"Condition","Talker","Target","Trial","current_stimulus","response_response","response_time_response","subject_nr","time_Audio1","time_Audio10","time_Audio11","time_Audio12","time_Audio13","time_Audio14","time_Audio15","time_Audio16","time_Audio2","time_Audio3","time_Audio4","time_Audio5","time_Audio6","time_Audio7","time_Audio8","time_Audio9","time_response"
"Mixed","Male","done","37","F_park.wav","NA","NA","211","131265.671091","NA","NA","NA","NA","NA","NA","NA","NA","NA","NA","NA","NA","NA","NA","NA","NA"
"Mixed","Male","done","37","F_jolt.wav","None","715.50124709","211","131265.671091","NA","NA","NA","NA","NA","NA","NA","132032.535741","NA","NA","NA","NA","NA","NA","NA","131281.463609"
"Mixed","Male","done","37","F_jolt.wav","None","719.723612419","211","131265.671091","NA","NA","NA","NA","NA","NA","NA","132032.535741","132781.855794","NA","NA","NA","NA","NA","NA","132042.405447"
"Mixed","Male","done","37","F_knife.wav","None","735.765632591","211","131265.671091","NA","NA","NA","NA","NA","NA","NA","132032.535741","132781.855794","133548.759091","NA","NA","NA","NA","NA","132791.595029"
"Mixed","Male","done","37","M_done.wav","None","733.966250205","211","131265.671091","NA","NA","NA","NA","NA","NA","NA","132032.535741","132781.855794","133548.759091","134315.099694","NA","NA","NA","NA","133558.843053"
"Mixed","Male","done","37","F_gnash.wav","space","629.994097864","211","131265.671091","NA","NA","NA","NA","NA","NA","NA","132032.535741","132781.855794","133548.759091","134315.099694","135081.999281","NA","NA","NA","134324.628692"
"Mixed","Male","done","37","F_romp.wav","None","731.968069915","211","131265.671091","NA","NA","NA","NA","NA","NA","NA","132032.535741","132781.855794","133548.759091","134315.099694","135081.999281","135848.560324","NA","NA","135091.843016"
"Mixed","Male","done","37","M_done.wav","None","730.759206344","211","131265.671091","NA","NA","NA","NA","NA","NA","NA","132032.535741","132781.855794","133548.759091","134315.099694","135081.999281","135848.560324","136615.245964","NA","135858.331094"
"Mixed","Male","done","37","F_reek.wav","space","537.717004074","211","131265.671091","NA","NA","NA","NA","NA","NA","NA","132032.535741","132781.855794","133548.759091","134315.099694","135081.999281","135848.560324","136615.245964","137381.875952","136624.892138"
"Mixed","Male","done","37","M_greet.wav","None","728.161541279","211","131265.671091","138148.707212","NA","NA","NA","NA","NA","NA","132032.535741","132781.855794","133548.759091","134315.099694","135081.999281","135848.560324","136615.245964","137381.875952","137391.359502"
"Mixed","Male","done","37","M_done.wav","None","727.747250465","211","131265.671091","138148.707212","138915.661831","NA","NA","NA","NA","NA","132032.535741","132781.855794","133548.759091","134315.099694","135081.999281","135848.560324","136615.245964","137381.875952","138157.875715"
"Mixed","Male","done","37","M_depth.wav","space","565.356384381","211","131265.671091","138148.707212","138915.661831","139681.999652","NA","NA","NA","NA","132032.535741","132781.855794","133548.759091","134315.099694","135081.999281","135848.560324","136615.245964","137381.875952","138925.172279"
"Mixed","Male","done","37","M_reek.wav","None","725.020042039","211","131265.671091","138148.707212","138915.661831","139681.999652","140449.08165","NA","NA","NA","132032.535741","132781.855794","133548.759091","134315.099694","135081.999281","135848.560324","136615.245964","137381.875952","139691.222878"
"Mixed","Male","done","37","M_done.wav","None","722.638179082","211","131265.671091","138148.707212","138915.661831","139681.999652","140449.08165","141216.009681","NA","NA","132032.535741","132781.855794","133548.759091","134315.099694","135081.999281","135848.560324","136615.245964","137381.875952","140458.981346"
"Mixed","Male","done","37","F_jaw.wav","space","440.307341865","211","131265.671091","138148.707212","138915.661831","139681.999652","140449.08165","141216.009681","141982.587419","NA","132032.535741","132781.855794","133548.759091","134315.099694","135081.999281","135848.560324","136615.245964","137381.875952","141226.177119"
"Mixed","Male","done","37","M_tile.wav","None","718.888847274","211","131265.671091","138148.707212","138915.661831","139681.999652","140449.08165","141216.009681","141982.587419","142732.760169","132032.535741","132781.855794","133548.759091","134315.099694","135081.999281","135848.560324","136615.245964","137381.875952","141993.094638"
"Mixed","Male","done","40","F_knife.wav","None","734.507610789","211","145915.87516","138148.707212","138915.661831","139681.999652","140449.08165","141216.009681","141982.587419","142732.760169","132032.535741","132781.855794","133548.759091","134315.099694","135081.999281","135848.560324","136615.245964","137381.875952","142742.641005"
"Mixed","Male","done","40","M_cad.wav","None","722.030655597","211","145915.87516","138148.707212","138915.661831","139681.999652","140449.08165","141216.009681","141982.587419","142732.760169","146682.552143","132781.855794","133548.759091","134315.099694","135081.999281","135848.560324","136615.245964","137381.875952","145925.557507"
"Mixed","Male","done","40","F_lash.wav","None","720.439036842","211","145915.87516","138148.707212","138915.661831","139681.999652","140449.08165","141216.009681","141982.587419","142732.760169","146682.552143","147449.222324","133548.759091","134315.099694","135081.999281","135848.560324","136615.245964","137381.875952","146692.526349"
"Mixed","Male","done","40","M_cad.wav","None","720.018871827","211","145915.87516","138148.707212","138915.661831","139681.999652","140449.08165","141216.009681","141982.587419","142732.760169","146682.552143","147449.222324","148216.496318","134315.099694","135081.999281","135848.560324","136615.245964","137381.875952","147458.816248"
"Mixed","Male","done","40","M_done.wav","None","718.25875435","211","145915.87516","138148.707212","138915.661831","139681.999652","140449.08165","141216.009681","141982.587419","142732.760169","146682.552143","147449.222324","148216.496318","148965.255532","135081.999281","135848.560324","136615.245964","137381.875952","148226.365096"
"Mixed","Male","done","40","F_bluff.wav","space","539.479595143","211","145915.87516","138148.707212","138915.661831","139681.999652","140449.08165","141216.009681","141982.587419","142732.760169","146682.552143","147449.222324","148216.496318","148965.255532","149732.115236","135848.560324","136615.245964","137381.875952","148974.874499"
"Mixed","Male","done","40","M_jaw.wav","None","732.566627441","211","145915.87516","138148.707212","138915.661831","139681.999652","140449.08165","141216.009681","141982.587419","142732.760169","146682.552143","147449.222324","148216.496318","148965.255532","149732.115236","150498.416574","136615.245964","137381.875952","149742.517954"
"Mixed","Male","done","40","M_done.wav","None","732.983391616","211","145915.87516","138148.707212","138915.661831","139681.999652","140449.08165","141216.009681","141982.587419","142732.760169","146682.552143","147449.222324","148216.496318","148965.255532","149732.115236","150498.416574","151265.163121","137381.875952","150507.516441"
"Mixed","Male","done","40","M_depth.wav","space","599.630601006","211","145915.87516","138148.707212","138915.661831","139681.999652","140449.08165","141216.009681","141982.587419","142732.760169","146682.552143","147449.222324","148216.496318","148965.255532","149732.115236","150498.416574","151265.163121","152032.105683","151274.637704"
"Mixed","Male","done","40","M_done.wav","None","729.187683901","211","145915.87516","152798.811109","138915.661831","139681.999652","140449.08165","141216.009681","141982.587419","142732.760169","146682.552143","147449.222324","148216.496318","148965.255532","149732.115236","150498.416574","151265.163121","152032.105683","152041.790812"
"Mixed","Male","done","40","F_jaw.wav","space","666.129222256","211","145915.87516","152798.811109","153565.149857","139681.999652","140449.08165","141216.009681","141982.587419","142732.760169","146682.552143","147449.222324","148216.496318","148965.255532","149732.115236","150498.416574","151265.163121","152032.105683","152808.121213"
"Mixed","Male","done","40","F_jaw.wav","None","733.09376603","211","145915.87516","152798.811109","153565.149857","154332.031203","140449.08165","141216.009681","141982.587419","142732.760169","146682.552143","147449.222324","148216.496318","148965.255532","149732.115236","150498.416574","151265.163121","152032.105683","153568.861161"
"Mixed","Male","done","40","F_greet.wav","None","725.820488995","211","145915.87516","152798.811109","153565.149857","154332.031203","155098.641095","141216.009681","141982.587419","142732.760169","146682.552143","147449.222324","148216.496318","148965.255532","149732.115236","150498.416574","151265.163121","152032.105683","154341.610905"
"Mixed","Male","done","40","M_done.wav","None","724.427977228","211","145915.87516","152798.811109","153565.149857","154332.031203","155098.641095","155865.254079","141982.587419","142732.760169","146682.552143","147449.222324","148216.496318","148965.255532","149732.115236","150498.416574","151265.163121","152032.105683","155108.413721"
"Mixed","Male","done","40","F_park.wav","space","703.367473208","211","145915.87516","152798.811109","153565.149857","154332.031203","155098.641095","155865.254079","156632.343498","142732.760169","146682.552143","147449.222324","148216.496318","148965.255532","149732.115236","150498.416574","151265.163121","152032.105683","155874.801318"
"Mixed","Male","done","40","F_bluff.wav","None","720.901249442","211","145915.87516","152798.811109","153565.149857","154332.031203","155098.641095","155865.254079","156632.343498","157399.085716","146682.552143","147449.222324","148216.496318","148965.255532","149732.115236","150498.416574","151265.163121","152032.105683","156642.566587"
"Mixed","Female","cave","20","M_jaw.wav","None","719.880981022","211","160515.56976","152798.811109","153565.149857","154332.031203","155098.641095","155865.254079","156632.343498","157399.085716","146682.552143","147449.222324","148216.496318","148965.255532","149732.115236","150498.416574","151265.163121","152032.105683","157408.947383"
"Mixed","Female","cave","20","F_done.wav","space","715.851848363","211","160515.56976","152798.811109","153565.149857","154332.031203","155098.641095","155865.254079","156632.343498","157399.085716","161282.24767","147449.222324","148216.496318","148965.255532","149732.115236","150498.416574","151265.163121","152032.105683","160526.200029"
"Mixed","Female","cave","20","F_cave.wav","None","719.36466347","211","160515.56976","152798.811109","153565.149857","154332.031203","155098.641095","155865.254079","156632.343498","157399.085716","161282.24767","162049.058215","148216.496318","148965.255532","149732.115236","150498.416574","151265.163121","152032.105683","161292.932044"
"Mixed","Female","cave","20","M_romp.wav","b","679.158049752","211","160515.56976","152798.811109","153565.149857","154332.031203","155098.641095","155865.254079","156632.343498","157399.085716","161282.24767","162049.058215","162798.19091","148965.255532","149732.115236","150498.416574","151265.163121","152032.105683","162058.913699"
"Mixed","Female","cave","20","F_bluff.wav","None","735.385659966","211","160515.56976","152798.811109","153565.149857","154332.031203","155098.641095","155865.254079","156632.343498","157399.085716","161282.24767","162049.058215","162798.19091","163565.04072","149732.115236","150498.416574","151265.163121","152032.105683","162807.384765"
"Mixed","Female","cave","20","F_done.wav","None","739.16590889","211","160515.56976","152798.811109","153565.149857","154332.031203","155098.641095","155865.254079","156632.343498","157399.085716","161282.24767","162049.058215","162798.19091","163565.04072","164331.809217","150498.416574","151265.163121","152032.105683","163569.106335"
"Mixed","Female","cave","20","M_reek.wav","None","731.742992532","211","160515.56976","152798.811109","153565.149857","154332.031203","155098.641095","155865.254079","156632.343498","157399.085716","161282.24767","162049.058215","162798.19091","163565.04072","164331.809217","165098.313063","151265.163121","152032.105683","164341.908638"
"Mixed","Female","cave","20","F_cave.wav","None","730.894005625","211","160515.56976","152798.811109","153565.149857","154332.031203","155098.641095","155865.254079","156632.343498","157399.085716","161282.24767","162049.058215","162798.19091","163565.04072","164331.809217","165098.313063","165865.073214","152032.105683","165108.247077"
"Mixed","Female","cave","20","M_knife.wav","space","502.934508258","211","160515.56976","152798.811109","153565.149857","154332.031203","155098.641095","155865.254079","156632.343498","157399.085716","161282.24767","162049.058215","162798.19091","163565.04072","164331.809217","165098.313063","165865.073214","166631.48369","165875.079882"
"Mixed","Female","cave","20","F_cave.wav","None","728.572121938","211","160515.56976","167398.44913","153565.149857","154332.031203","155098.641095","155865.254079","156632.343498","157399.085716","161282.24767","162049.058215","162798.19091","163565.04072","164331.809217","165098.313063","165865.073214","166631.48369","166640.994756"
"Mixed","Female","cave","20","M_dime.wav","space","545.930783148","211","160515.56976","167398.44913","168165.067061","154332.031203","155098.641095","155865.254079","156632.343498","157399.085716","161282.24767","162049.058215","162798.19091","163565.04072","164331.809217","165098.313063","165865.073214","166631.48369","167408.034397"
"Mixed","Female","cave","20","F_cave.wav","None","725.285311812","211","160515.56976","167398.44913","168165.067061","168931.689629","155098.641095","155865.254079","156632.343498","157399.085716","161282.24767","162049.058215","162798.19091","163565.04072","164331.809217","165098.313063","165865.073214","166631.48369","168174.792074"
"Mixed","Female","cave","20","F_tile.wav","space","420.517844963","211","160515.56976","167398.44913","168165.067061","168931.689629","169698.279735","155865.254079","156632.343498","157399.085716","161282.24767","162049.058215","162798.19091","163565.04072","164331.809217","165098.313063","165865.073214","166631.48369","168941.360537"
"Mixed","Female","cave","20","M_priest.wav","None","722.744225175","211","160515.56976","167398.44913","168165.067061","168931.689629","169698.279735","170465.354313","156632.343498","157399.085716","161282.24767","162049.058215","162798.19091","163565.04072","164331.809217","165098.313063","165865.073214","166631.48369","169708.052051"
"Mixed","Female","cave","20","M_jolt.wav","None","720.631342032","211","160515.56976","167398.44913","168165.067061","168931.689629","169698.279735","170465.354313","171231.681622","157399.085716","161282.24767","162049.058215","162798.19091","163565.04072","164331.809217","165098.313063","165865.073214","166631.48369","170475.601518"
"Mixed","Female","cave","20","M_tile.wav","None","720.359579776","211","160515.56976","167398.44913","168165.067061","168931.689629","169698.279735","170465.354313","171231.681622","171981.930119","161282.24767","162049.058215","162798.19091","163565.04072","164331.809217","165098.313063","165865.073214","166631.48369","171241.304299"
"Mixed","Male","ball","5","M_knife.wav","None","735.490778461","211","175115.154603","167398.44913","168165.067061","168931.689629","169698.279735","170465.354313","171231.681622","171981.930119","161282.24767","162049.058215","162798.19091","163565.04072","164331.809217","165098.313063","165865.073214","166631.48369","171991.555579"
"Mixed","Male","ball","5","M_ball.wav","None","721.492695971","211","175115.154603","167398.44913","168165.067061","168931.689629","169698.279735","170465.354313","171231.681622","171981.930119","175881.974114","162049.058215","162798.19091","163565.04072","164331.809217","165098.313063","165865.073214","166631.48369","175125.390369"
"Mixed","Male","ball","5","F_romp.wav","space","413.570744568","211","175115.154603","167398.44913","168165.067061","168931.689629","169698.279735","170465.354313","171231.681622","171981.930119","175881.974114","176648.719115","162798.19091","163565.04072","164331.809217","165098.313063","165865.073214","166631.48369","175892.204006"
"Mixed","Male","ball","5","F_reek.wav","None","718.322752975","211","175115.154603","167398.44913","168165.067061","168931.689629","169698.279735","170465.354313","171231.681622","171981.930119","175881.974114","176648.719115","177397.744527","163565.04072","164331.809217","165098.313063","165865.073214","166631.48369","176659.035574"
"Mixed","Male","ball","5","M_ball.wav","None","735.664842417","211","175115.154603","167398.44913","168165.067061","168931.689629","169698.279735","170465.354313","171231.681622","171981.930119","175881.974114","176648.719115","177397.744527","178164.67905","164331.809217","165098.313063","165865.073214","166631.48369","177407.309388"
"Mixed","Male","ball","5","F_reek.wav","space","283.446330577","211","175115.154603","167398.44913","168165.067061","168931.689629","169698.279735","170465.354313","171231.681622","171981.930119","175881.974114","176648.719115","177397.744527","178164.67905","178931.51371","165098.313063","165865.073214","166631.48369","178174.271428"
"Mixed","Male","ball","5","M_ball.wav","None","731.850893702","211","175115.154603","167398.44913","168165.067061","168931.689629","169698.279735","170465.354313","171231.681622","171981.930119","175881.974114","176648.719115","177397.744527","178164.67905","178931.51371","179698.145554","165865.073214","166631.48369","178941.610039"
"Mixed","Male","ball","5","F_priest.wav","space","405.503204092","211","175115.154603","167398.44913","168165.067061","168931.689629","169698.279735","170465.354313","171231.681622","171981.930119","175881.974114","176648.719115","177397.744527","178164.67905","178931.51371","179698.145554","180464.782963","166631.48369","179708.238482"
"Mixed","Male","ball","5","F_lash.wav","None","730.21444492","211","175115.154603","167398.44913","168165.067061","168931.689629","169698.279735","170465.354313","171231.681622","171981.930119","175881.974114","176648.719115","177397.744527","178164.67905","178931.51371","179698.145554","180464.782963","181231.097286","180473.881593"
"Mixed","Male","ball","5","F_knife.wav","None","729.297130951","211","175115.154603","181998.362933","168165.067061","168931.689629","169698.279735","170465.354313","171231.681622","171981.930119","175881.974114","176648.719115","177397.744527","178164.67905","178931.51371","179698.145554","180464.782963","181231.097286","181240.408008"
"Mixed","Male","ball","5","F_done.wav","None","727.089022752","211","175115.154603","181998.362933","182764.745893","168931.689629","169698.279735","170465.354313","171231.681622","171981.930119","175881.974114","176648.719115","177397.744527","178164.67905","178931.51371","179698.145554","180464.782963","181231.097286","182008.170804"
"Mixed","Male","ball","5","M_dime.wav","None","726.570231724","211","175115.154603","181998.362933","182764.745893","183531.38392","169698.279735","170465.354313","171231.681622","171981.930119","175881.974114","176648.719115","177397.744527","178164.67905","178931.51371","179698.145554","180464.782963","181231.097286","182774.278292"
"Mixed","Male","ball","5","F_knife.wav","None","725.432477891","211","175115.154603","181998.362933","182764.745893","183531.38392","184298.107588","170465.354313","171231.681622","171981.930119","175881.974114","176648.719115","177397.744527","178164.67905","178931.51371","179698.145554","180464.782963","181231.097286","183540.967023"
"Mixed","Male","ball","5","M_ball.wav","None","723.305063671","211","175115.154603","181998.362933","182764.745893","183531.38392","184298.107588","185064.722736","171231.681622","171981.930119","175881.974114","176648.719115","177397.744527","178164.67905","178931.51371","179698.145554","180464.782963","181231.097286","184308.757335"
"Mixed","Male","ball","5","M_cad.wav","space","327.888294822","211","175115.154603","181998.362933","182764.745893","183531.38392","184298.107588","185064.722736","185831.325517","171981.930119","175881.974114","176648.719115","177397.744527","178164.67905","178931.51371","179698.145554","180464.782963","181231.097286","185073.692441"
"Mixed","Male","ball","5","M_bluff.wav","None","722.333026119","211","175115.154603","181998.362933","182764.745893","183531.38392","184298.107588","185064.722736","185831.325517","186598.379072","175881.974114","176648.719115","177397.744527","178164.67905","178931.51371","179698.145554","180464.782963","181231.097286","185840.482272"
"Mixed","Female","ball","11","F_bluff.wav","None","719.885000261","211","189715.010591","181998.362933","182764.745893","183531.38392","184298.107588","185064.722736","185831.325517","186598.379072","175881.974114","176648.719115","177397.744527","178164.67905","178931.51371","179698.145554","180464.782963","181231.097286","186608.451285"
"Mixed","Female","ball","11","F_ball.wav","None","721.828766167","211","189715.010591","181998.362933","182764.745893","183531.38392","184298.107588","185064.722736","185831.325517","186598.379072","190481.406227","176648.719115","177397.744527","178164.67905","178931.51371","179698.145554","180464.782963","181231.097286","189724.679025"
"Mixed","Female","ball","11","M_tile.wav","space","485.594892176","211","189715.010591","181998.362933","182764.745893","183531.38392","184298.107588","185064.722736","185831.325517","186598.379072","190481.406227","191248.50863","177397.744527","178164.67905","178931.51371","179698.145554","180464.782963","181231.097286","190491.877272"
"Mixed","Female","ball","11","F_jaw.wav","None","718.242368195","211","189715.010591","181998.362933","182764.745893","183531.38392","184298.107588","185064.722736","185831.325517","186598.379072","190481.406227","191248.50863","191997.540844","178164.67905","178931.51371","179698.145554","180464.782963","181231.097286","191258.710387"
"Mixed","Female","ball","11","F_depth.wav","None","734.456597245","211","189715.010591","181998.362933","182764.745893","183531.38392","184298.107588","185064.722736","185831.325517","186598.379072","190481.406227","191248.50863","191997.540844","192764.588524","178931.51371","179698.145554","180464.782963","181231.097286","192008.102477"
"Mixed","Female","ball","11","M_romp.wav","None","734.005514998","211","189715.010591","181998.362933","182764.745893","183531.38392","184298.107588","185064.722736","185831.325517","186598.379072","190481.406227","191248.50863","191997.540844","192764.588524","193531.18574","179698.145554","180464.782963","181231.097286","192773.944076"
"Mixed","Female","ball","11","F_reek.wav","None","732.600945514","211","189715.010591","181998.362933","182764.745893","183531.38392","184298.107588","185064.722736","185831.325517","186598.379072","190481.406227","191248.50863","191997.540844","192764.588524","193531.18574","194297.757914","180464.782963","181231.097286","193540.932705"
"Mixed","Female","ball","11","F_ball.wav","None","731.755359448","211","189715.010591","181998.362933","182764.745893","183531.38392","184298.107588","185064.722736","185831.325517","186598.379072","190481.406227","191248.50863","191997.540844","192764.588524","193531.18574","194297.757914","195064.442935","181231.097286","194307.260632"
"Mixed","Female","ball","11","M_greet.wav","space","335.215367842","211","189715.010591","181998.362933","182764.745893","183531.38392","184298.107588","185064.722736","185831.325517","186598.379072","190481.406227","191248.50863","191997.540844","192764.588524","193531.18574","194297.757914","195064.442935","195831.022528","195074.106114"
"Mixed","Female","ball","11","F_ball.wav","None","729.369168053","211","189715.010591","196597.731047","182764.745893","183531.38392","184298.107588","185064.722736","185831.325517","186598.379072","190481.406227","191248.50863","191997.540844","192764.588524","193531.18574","194297.757914","195064.442935","195831.022528","195840.567912"
"Mixed","Female","ball","11","M_knife.wav","space","449.969283771","211","189715.010591","196597.731047","197364.431527","183531.38392","184298.107588","185064.722736","185831.325517","186598.379072","190481.406227","191248.50863","191997.540844","192764.588524","193531.18574","194297.757914","195064.442935","195831.022528","196607.374129"
"Mixed","Female","ball","11","M_dime.wav","None","727.800737252","211","189715.010591","196597.731047","197364.431527","198130.729155","184298.107588","185064.722736","185831.325517","186598.379072","190481.406227","191248.50863","191997.540844","192764.588524","193531.18574","194297.757914","195064.442935","195831.022528","197373.497075"
"Mixed","Female","ball","11","M_tile.wav","None","725.457520806","211","189715.010591","196597.731047","197364.431527","198130.729155","198897.689649","185064.722736","185831.325517","186598.379072","190481.406227","191248.50863","191997.540844","192764.588524","193531.18574","194297.757914","195064.442935","195831.022528","198141.351077"
"Mixed","Female","ball","11","F_ball.wav","None","725.417328416","211","189715.010591","196597.731047","197364.431527","198130.729155","198897.689649","199664.713832","185831.325517","186598.379072","190481.406227","191248.50863","191997.540844","192764.588524","193531.18574","194297.757914","195064.442935","195831.022528","198907.173198"
"Mixed","Female","ball","11","M_depth.wav","space","374.462929205","211","189715.010591","196597.731047","197364.431527","198130.729155","198897.689649","199664.713832","200431.601361","186598.379072","190481.406227","191248.50863","191997.540844","192764.588524","193531.18574","194297.757914","195064.442935","195831.022528","199674.825928"
"Mixed","Female","ball","11","M_tile.wav","None","721.881634672","211","189715.010591","196597.731047","197364.431527","198130.729155","198897.689649","199664.713832","200431.601361","201198.013383","190481.406227","191248.50863","191997.540844","192764.588524","193531.18574","194297.757914","195064.442935","195831.022528","200441.479105"
"Mixed","Male","cave","16","F_lash.wav","None","720.535189495","211","204314.633153","196597.731047","197364.431527","198130.729155","198897.689649","199664.713832","200431.601361","201198.013383","190481.406227","191248.50863","191997.540844","192764.588524","193531.18574","194297.757914","195064.442935","195831.022528","201208.4127"
"Mixed","Male","cave","16","M_cave.wav","None","721.009459812","211","204314.633153","196597.731047","197364.431527","198130.729155","198897.689649","199664.713832","200431.601361","201198.013383","205081.134217","191248.50863","191997.540844","192764.588524","193531.18574","194297.757914","195064.442935","195831.022528","204325.190149"
"Mixed","Male","cave","16","F_jolt.wav","space","469.260704238","211","204314.633153","196597.731047","197364.431527","198130.729155","198897.689649","199664.713832","200431.601361","201198.013383","205081.134217","205847.992375","191997.540844","192764.588524","193531.18574","194297.757914","195064.442935","195831.022528","205091.89743"
"Mixed","Male","cave","16","F_romp.wav","None","718.761159224","211","204314.633153","196597.731047","197364.431527","198130.729155","198897.689649","199664.713832","200431.601361","201198.013383","205081.134217","205847.992375","206597.435787","192764.588524","193531.18574","194297.757914","195064.442935","195831.022528","205858.050984"
"Mixed","Male","cave","16","M_cave.wav","None","735.875388724","211","204314.633153","196597.731047","197364.431527","198130.729155","198897.689649","199664.713832","200431.601361","201198.013383","205081.134217","205847.992375","206597.435787","207363.919537","193531.18574","194297.757914","195064.442935","195831.022528","206606.607073"
"Mixed","Male","cave","16","F_jolt.wav","space","371.766638011","211","204314.633153","196597.731047","197364.431527","198130.729155","198897.689649","199664.713832","200431.601361","201198.013383","205081.134217","205847.992375","206597.435787","207363.919537","208130.772748","194297.757914","195064.442935","195831.022528","207373.33476"
"Mixed","Male","cave","16","M_cave.wav","None","733.671918162","211","204314.633153","196597.731047","197364.431527","198130.729155","198897.689649","199664.713832","200431.601361","201198.013383","205081.134217","205847.992375","206597.435787","207363.919537","208130.772748","208897.355124","195064.442935","195831.022528","208140.720056"
"Mixed","Male","cave","16","M_tile.wav","space","430.109295528","211","204314.633153","196597.731047","197364.431527","198130.729155","198897.689649","199664.713832","200431.601361","201198.013383","205081.134217","205847.992375","206597.435787","207363.919537","208130.772748","208897.355124","209664.202461","195831.022528","208906.983675"
"Mixed","Male","cave","16","F_jolt.wav","None","731.628289563","211","204314.633153","196597.731047","197364.431527","198130.729155","198897.689649","199664.713832","200431.601361","201198.013383","205081.134217","205847.992375","206597.435787","207363.919537","208130.772748","208897.355124","209664.202461","210430.768451","209673.724966"
"Mixed","Male","cave","16","F_done.wav","None","730.274733505","211","204314.633153","211197.324547","197364.431527","198130.729155","198897.689649","199664.713832","200431.601361","201198.013383","205081.134217","205847.992375","206597.435787","207363.919537","208130.772748","208897.355124","209664.202461","210430.768451","210440.847466"
"Mixed","Male","cave","16","M_knife.wav","None","729.9847299","211","204314.633153","211197.324547","211964.158898","198130.729155","198897.689649","199664.713832","200431.601361","201198.013383","205081.134217","205847.992375","206597.435787","207363.919537","208130.772748","208897.355124","209664.202461","210430.768451","211206.962683"
"Mixed","Male","cave","16","M_cave.wav","None","728.897062014","211","204314.633153","211197.324547","211964.158898","212730.476005","198897.689649","199664.713832","200431.601361","201198.013383","205081.134217","205847.992375","206597.435787","207363.919537","208130.772748","208897.355124","209664.202461","210430.768451","211973.952238"
"Mixed","Male","cave","16","M_jolt.wav","space","405.310280621","211","204314.633153","211197.324547","211964.158898","212730.476005","213497.370954","199664.713832","200431.601361","201198.013383","205081.134217","205847.992375","206597.435787","207363.919537","208130.772748","208897.355124","209664.202461","210430.768451","212739.702941"
"Mixed","Male","cave","16","F_priest.wav","None","726.77459463","211","204314.633153","211197.324547","211964.158898","212730.476005","213497.370954","214264.055357","200431.601361","201198.013383","205081.134217","205847.992375","206597.435787","207363.919537","208130.772748","208897.355124","209664.202461","210430.768451","213507.014345"
"Mixed","Male","cave","16","F_ball.wav","None","725.580262137","211","204314.633153","211197.324547","211964.158898","212730.476005","213497.370954","214264.055357","215030.709461","201198.013383","205081.134217","205847.992375","206597.435787","207363.919537","208130.772748","208897.355124","209664.202461","210430.768451","214273.853953"
"Mixed","Male","cave","16","M_jolt.wav","None","725.182975875","211","204314.633153","211197.324547","211964.158898","212730.476005","213497.370954","214264.055357","215030.709461","215797.674592","205081.134217","205847.992375","206597.435787","207363.919537","208130.772748","208897.355124","209664.202461","210430.768451","215040.072742"
"Mixed","Male","tile","30","M_lash.wav","None","722.960645799","211","218931.117661","211197.324547","211964.158898","212730.476005","213497.370954","214264.055357","215030.709461","215797.674592","205081.134217","205847.992375","206597.435787","207363.919537","208130.772748","208897.355124","209664.202461","210430.768451","215808.131725"
"Mixed","Male","tile","30","F_done.wav","None","721.579573466","211","218931.117661","211197.324547","211964.158898","212730.476005","213497.370954","214264.055357","215030.709461","215797.674592","219697.741775","205847.992375","206597.435787","207363.919537","208130.772748","208897.355124","209664.202461","210430.768451","218941.188637"
"Mixed","Male","tile","30","F_gnash.wav","None","720.741407364","211","218931.117661","211197.324547","211964.158898","212730.476005","213497.370954","214264.055357","215030.709461","215797.674592","219697.741775","220463.888527","206597.435787","207363.919537","208130.772748","208897.355124","209664.202461","210430.768451","219707.842123"
"Mixed","Male","tile","30","M_tile.wav","None","720.908978838","211","218931.117661","211197.324547","211964.158898","212730.476005","213497.370954","214264.055357","215030.709461","215797.674592","219697.741775","220463.888527","221230.966507","207363.919537","208130.772748","208897.355124","209664.202461","210430.768451","220473.51646"
"Mixed","Male","tile","30","M_park.wav","space","311.734663439","211","218931.117661","211197.324547","211964.158898","212730.476005","213497.370954","214264.055357","215030.709461","215797.674592","219697.741775","220463.888527","221230.966507","221980.445474","208130.772748","208897.355124","209664.202461","210430.768451","221241.091279"
"Mixed","Male","tile","30","M_tile.wav","None","735.152853187","211","218931.117661","211197.324547","211964.158898","212730.476005","213497.370954","214264.055357","215030.709461","215797.674592","219697.741775","220463.888527","221230.966507","221980.445474","222747.077627","208897.355124","209664.202461","210430.768451","221989.984674"
"Mixed","Male","tile","30","F_ball.wav","space","460.085708764","211","218931.117661","211197.324547","211964.158898","212730.476005","213497.370954","214264.055357","215030.709461","215797.674592","219697.741775","220463.888527","221230.966507","221980.445474","222747.077627","223513.625066","209664.202461","210430.768451","222756.682062"
"Mixed","Male","tile","30","F_cave.wav","None","733.312041615","211","218931.117661","211197.324547","211964.158898","212730.476005","213497.370954","214264.055357","215030.709461","215797.674592","219697.741775","220463.888527","221230.966507","221980.445474","222747.077627","223513.625066","224280.420771","210430.768451","223522.820467"
"Mixed","Male","tile","30","M_tile.wav","None","732.094521285","211","218931.117661","211197.324547","211964.158898","212730.476005","213497.370954","214264.055357","215030.709461","215797.674592","219697.741775","220463.888527","221230.966507","221980.445474","222747.077627","223513.625066","224280.420771","225047.25234","224290.033555"
"Mixed","Male","tile","30","F_depth.wav","space","383.890827536","211","218931.117661","225813.593252","211964.158898","212730.476005","213497.370954","214264.055357","215030.709461","215797.674592","219697.741775","220463.888527","221230.966507","221980.445474","222747.077627","223513.625066","224280.420771","225047.25234","225056.878727"
"Mixed","Male","tile","30","F_jaw.wav","None","730.241961312","211","218931.117661","225813.593252","226580.442444","212730.476005","213497.370954","214264.055357","215030.709461","215797.674592","219697.741775","220463.888527","221230.966507","221980.445474","222747.077627","223513.625066","224280.420771","225047.25234","225822.955297"
"Mixed","Male","tile","30","F_romp.wav","None","728.924887488","211","218931.117661","225813.593252","226580.442444","227347.344195","213497.370954","214264.055357","215030.709461","215797.674592","219697.741775","220463.888527","221230.966507","221980.445474","222747.077627","223513.625066","224280.420771","225047.25234","226590.14767"
"Mixed","Male","tile","30","M_tile.wav","None","728.134024888","211","218931.117661","225813.593252","226580.442444","227347.344195","228113.543507","214264.055357","215030.709461","215797.674592","219697.741775","220463.888527","221230.966507","221980.445474","222747.077627","223513.625066","224280.420771","225047.25234","227356.868555"
"Mixed","Male","tile","30","F_reek.wav","space","301.5616599","211","218931.117661","225813.593252","226580.442444","227347.344195","228113.543507","228880.120008","215030.709461","215797.674592","219697.741775","220463.888527","221230.966507","221980.445474","222747.077627","223513.625066","224280.420771","225047.25234","228123.042515"
"Mixed","Male","tile","30","M_reek.wav","None","726.666693459","211","218931.117661","225813.593252","226580.442444","227347.344195","228113.543507","228880.120008","229647.164906","215797.674592","219697.741775","220463.888527","221230.966507","221980.445474","222747.077627","223513.625066","224280.420771","225047.25234","228889.541414"
"Mixed","Male","tile","30","M_reek.wav","None","725.613961928","211","218931.117661","225813.593252","226580.442444","227347.344195","228113.543507","228880.120008","229647.164906","230413.725949","219697.741775","220463.888527","221230.966507","221980.445474","222747.077627","223513.625066","224280.420771","225047.25234","229656.482121"
"Mixed","Male","ball","2","F_lash.wav","None","725.078475545","211","233547.381729","225813.593252","226580.442444","227347.344195","228113.543507","228880.120008","229647.164906","230413.725949","219697.741775","220463.888527","221230.966507","221980.445474","222747.077627","223513.625066","224280.420771","225047.25234","230423.344298"
"Mixed","Male","ball","2","M_ball.wav","None","721.88719979","211","233547.381729","225813.593252","226580.442444","227347.344195","228113.543507","228880.120008","229647.164906","230413.725949","234313.998732","220463.888527","221230.966507","221980.445474","222747.077627","223513.625066","224280.420771","225047.25234","233557.090046"
"Mixed","Male","ball","2","M_cave.wav","space","267.892493284","211","233547.381729","225813.593252","226580.442444","227347.344195","228113.543507","228880.120008","229647.164906","230413.725949","234313.998732","235080.463004","221230.966507","221980.445474","222747.077627","223513.625066","224280.420771","225047.25234","234324.660228"
"Mixed","Male","ball","2","F_knife.wav","None","720.16603779","211","233547.381729","225813.593252","226580.442444","227347.344195","228113.543507","228880.120008","229647.164906","230413.725949","234313.998732","235080.463004","235830.449323","221980.445474","222747.077627","223513.625066","224280.420771","225047.25234","235089.832469"
"Mixed","Male","ball","2","M_ball.wav","None","735.356597695","211","233547.381729","225813.593252","226580.442444","227347.344195","228113.543507","228880.120008","229647.164906","230413.725949","234313.998732","235080.463004","235830.449323","236597.035718","222747.077627","223513.625066","224280.420771","225047.25234","235840.408689"
"Mixed","Male","ball","2","F_jolt.wav","space","273.712660884","211","233547.381729","225813.593252","226580.442444","227347.344195","228113.543507","228880.120008","229647.164906","230413.725949","234313.998732","235080.463004","235830.449323","236597.035718","237363.550695","223513.625066","224280.420771","225047.25234","236606.800615"
"Mixed","Male","ball","2","M_ball.wav","None","733.932859497","211","233547.381729","225813.593252","226580.442444","227347.344195","228113.543507","228880.120008","229647.164906","230413.725949","234313.998732","235080.463004","235830.449323","236597.035718","237363.550695","238129.929326","224280.420771","225047.25234","237373.071654"
"Mixed","Male","ball","2","F_gnash.wav","space","317.234837683","211","233547.381729","225813.593252","226580.442444","227347.344195","228113.543507","228880.120008","229647.164906","230413.725949","234313.998732","235080.463004","235830.449323","236597.035718","237363.550695","238129.929326","238896.573228","225047.25234","238139.215933"
"Mixed","Male","ball","2","F_done.wav","None","731.866661459","211","233547.381729","225813.593252","226580.442444","227347.344195","228113.543507","228880.120008","229647.164906","230413.725949","234313.998732","235080.463004","235830.449323","236597.035718","237363.550695","238129.929326","238896.573228","239663.530939","238906.101607"
"Mixed","Male","ball","2","M_depth.wav","None","730.847629718","211","233547.381729","240429.882363","226580.442444","227347.344195","228113.543507","228880.120008","229647.164906","230413.725949","234313.998732","235080.463004","235830.449323","236597.035718","237363.550695","238129.929326","238896.573228","239663.530939","239673.054371"
"Mixed","Male","ball","2","M_ball.wav","None","730.60740286","211","233547.381729","240429.882363","241196.671575","227347.344195","228113.543507","228880.120008","229647.164906","230413.725949","234313.998732","235080.463004","235830.449323","236597.035718","237363.550695","238129.929326","238896.573228","239663.530939","240439.528537"
"Mixed","Male","ball","2","M_park.wav","space","361.878072959","211","233547.381729","240429.882363","241196.671575","241963.742134","228113.543507","228880.120008","229647.164906","230413.725949","234313.998732","235080.463004","235830.449323","236597.035718","237363.550695","238129.929326","238896.573228","239663.530939","241206.503253"
"Mixed","Male","ball","2","F_done.wav","None","728.558827541","211","233547.381729","240429.882363","241196.671575","241963.742134","242730.157248","228880.120008","229647.164906","230413.725949","234313.998732","235080.463004","235830.449323","236597.035718","237363.550695","238129.929326","238896.573228","239663.530939","241972.971544"
"Mixed","Male","ball","2","F_priest.wav","None","727.485999931","211","233547.381729","240429.882363","241196.671575","241963.742134","242730.157248","243496.476828","229647.164906","230413.725949","234313.998732","235080.463004","235830.449323","236597.035718","237363.550695","238129.929326","238896.573228","239663.530939","242739.905449"
"Mixed","Male","ball","2","F_dime.wav","None","727.692836197","211","233547.381729","240429.882363","241196.671575","241963.742134","242730.157248","243496.476828","244263.47504","230413.725949","234313.998732","235080.463004","235830.449323","236597.035718","237363.550695","238129.929326","238896.573228","239663.530939","243505.561545"
"Mixed","Male","ball","2","M_jolt.wav","None","727.029970847","211","233547.381729","240429.882363","241196.671575","241963.742134","242730.157248","243496.476828","244263.47504","245030.066692","234313.998732","235080.463004","235830.449323","236597.035718","237363.550695","238129.929326","238896.573228","239663.530939","244272.696721"
"Mixed","Male","cave","18","F_reek.wav","None","725.796991843","211","248162.832673","240429.882363","241196.671575","241963.742134","242730.157248","243496.476828","244263.47504","245030.066692","234313.998732","235080.463004","235830.449323","236597.035718","237363.550695","238129.929326","238896.573228","239663.530939","245039.84581"
"Mixed","Male","cave","18","M_lash.wav","None","725.739176734","211","248162.832673","240429.882363","241196.671575","241963.742134","242730.157248","243496.476828","244263.47504","245030.066692","248930.347204","235080.463004","235830.449323","236597.035718","237363.550695","238129.929326","238896.573228","239663.530939","248171.968095"
"Mixed","Male","cave","18","F_depth.wav","None","722.747007734","211","248162.832673","240429.882363","241196.671575","241963.742134","242730.157248","243496.476828","244263.47504","245030.066692","248930.347204","249697.192067","235830.449323","236597.035718","237363.550695","238129.929326","238896.573228","239663.530939","248940.861842"
"Mixed","Male","cave","18","M_cave.wav","None","722.167619038","211","248162.832673","240429.882363","241196.671575","241963.742134","242730.157248","243496.476828","244263.47504","245030.066692","248930.347204","249697.192067","250463.752182","236597.035718","237363.550695","238129.929326","238896.573228","239663.530939","249707.423195"
"Mixed","Male","cave","18","F_depth.wav","space","422.388337087","211","248162.832673","240429.882363","241196.671575","241963.742134","242730.157248","243496.476828","244263.47504","245030.066692","248930.347204","249697.192067","250463.752182","251230.730917","237363.550695","238129.929326","238896.573228","239663.530939","250473.822541"
"Mixed","Male","cave","18","F_jaw.wav","None","719.261709019","211","248162.832673","240429.882363","241196.671575","241963.742134","242730.157248","243496.476828","244263.47504","245030.066692","248930.347204","249697.192067","250463.752182","251230.730917","251997.176021","238129.929326","238896.573228","239663.530939","251241.290077"
"Mixed","Male","cave","18","M_cave.wav","None","719.091664418","211","248162.832673","240429.882363","241196.671575","241963.742134","242730.157248","243496.476828","244263.47504","245030.066692","248930.347204","249697.192067","250463.752182","251230.730917","251997.176021","252763.758397","238896.573228","239663.530939","252007.116218"
"Mixed","Male","cave","18","F_priest.wav","space","386.877740617","211","248162.832673","240429.882363","241196.671575","241963.742134","242730.157248","243496.476828","244263.47504","245030.066692","248930.347204","249697.192067","250463.752182","251230.730917","251997.176021","252763.758397","253513.050624","239663.530939","252773.302235"
"Mixed","Male","cave","18","M_cave.wav","None","734.51564915","211","248162.832673","240429.882363","241196.671575","241963.742134","242730.157248","243496.476828","244263.47504","245030.066692","248930.347204","249697.192067","250463.752182","251230.730917","251997.176021","252763.758397","253513.050624","254279.559726","253522.527063"
"Mixed","Male","cave","18","M_bluff.wav","space","446.789756301","211","248162.832673","255046.238564","241196.671575","241963.742134","242730.157248","243496.476828","244263.47504","245030.066692","248930.347204","249697.192067","250463.752182","251230.730917","251997.176021","252763.758397","253513.050624","254279.559726","254289.34441"
"Mixed","Male","cave","18","F_cad.wav","None","732.920629554","211","248162.832673","255046.238564","255813.174324","241963.742134","242730.157248","243496.476828","244263.47504","245030.066692","248930.347204","249697.192067","250463.752182","251230.730917","251997.176021","252763.758397","253513.050624","254279.559726","255055.51435"
"Mixed","Male","cave","18","F_bluff.wav","None","732.015064103","211","248162.832673","255046.238564","255813.174324","256579.78669","242730.157248","243496.476828","244263.47504","245030.066692","248930.347204","249697.192067","250463.752182","251230.730917","251997.176021","252763.758397","253513.050624","254279.559726","255822.336953"
"Mixed","Male","cave","18","M_gnash.wav","None","731.50276579","211","248162.832673","255046.238564","255813.174324","256579.78669","257346.767589","243496.476828","244263.47504","245030.066692","248930.347204","249697.192067","250463.752182","251230.730917","251997.176021","252763.758397","253513.050624","254279.559726","256589.398855"
"Mixed","Male","cave","18","M_cave.wav","None","730.501047685","211","248162.832673","255046.238564","255813.174324","256579.78669","257346.767589","258112.92578","244263.47504","245030.066692","248930.347204","249697.192067","250463.752182","251230.730917","251997.176021","252763.758397","253513.050624","254279.559726","257356.39614"
"Mixed","Male","cave","18","F_bluff.wav","space","445.707962615","211","248162.832673","255046.238564","255813.174324","256579.78669","257346.767589","258112.92578","258879.731997","245030.066692","248930.347204","249697.192067","250463.752182","251230.730917","251997.176021","252763.758397","253513.050624","254279.559726","258122.326472"
"Mixed","Male","cave","18","M_knife.wav","None","727.880812832","211","248162.832673","255046.238564","255813.174324","256579.78669","257346.767589","258112.92578","258879.731997","259646.429385","248930.347204","249697.192067","250463.752182","251230.730917","251997.176021","252763.758397","253513.050624","254279.559726","258890.313726"
"Mixed","Male","done","41","M_cad.wav","None","728.603966651","211","262780.089802","255046.238564","255813.174324","256579.78669","257346.767589","258112.92578","258879.731997","259646.429385","248930.347204","249697.192067","250463.752182","251230.730917","251997.176021","252763.758397","253513.050624","254279.559726","259655.958692"
"Mixed","Male","done","41","F_ball.wav","None","721.343365847","211","262780.089802","255046.238564","255813.174324","256579.78669","257346.767589","258112.92578","258879.731997","259646.429385","263546.710516","249697.192067","250463.752182","251230.730917","251997.176021","252763.758397","253513.050624","254279.559726","262789.996299"
"Mixed","Male","done","41","M_jolt.wav","None","720.377511694","211","262780.089802","255046.238564","255813.174324","256579.78669","257346.767589","258112.92578","258879.731997","259646.429385","263546.710516","264313.384716","250463.752182","251230.730917","251997.176021","252763.758397","253513.050624","254279.559726","263556.751193"
"Mixed","Male","done","41","M_ball.wav","None","719.873870024","211","262780.089802","255046.238564","255813.174324","256579.78669","257346.767589","258112.92578","258879.731997","259646.429385","263546.710516","264313.384716","265080.057679","251230.730917","251997.176021","252763.758397","253513.050624","254279.559726","264323.507015"
"Mixed","Male","done","41","M_dime.wav","None","711.426356924","211","262780.089802","255046.238564","255813.174324","256579.78669","257346.767589","258112.92578","258879.731997","259646.429385","263546.710516","264313.384716","265080.057679","265847.065476","251997.176021","252763.758397","253513.050624","254279.559726","265097.982868"
"Mixed","Male","done","41","F_bluff.wav","None","718.069540802","211","262780.089802","255046.238564","255813.174324","256579.78669","257346.767589","258112.92578","258879.731997","259646.429385","263546.710516","264313.384716","265080.057679","265847.065476","266596.108202","252763.758397","253513.050624","254279.559726","265857.081729"
"Mixed","Male","done","41","M_done.wav","None","735.509637976","211","262780.089802","255046.238564","255813.174324","256579.78669","257346.767589","258112.92578","258879.731997","259646.429385","263546.710516","264313.384716","265080.057679","265847.065476","266596.108202","267362.767252","253513.050624","254279.559726","266605.725004"
"Mixed","Male","done","41","F_bluff.wav","space","651.215680642","211","262780.089802","255046.238564","255813.174324","256579.78669","257346.767589","258112.92578","258879.731997","259646.429385","263546.710516","264313.384716","265080.057679","265847.065476","266596.108202","267362.767252","268129.527402","254279.559726","267372.611915"
"Mixed","Male","done","41","F_knife.wav","None","733.917400939","211","262780.089802","255046.238564","255813.174324","256579.78669","257346.767589","258112.92578","258879.731997","259646.429385","263546.710516","264313.384716","265080.057679","265847.065476","266596.108202","267362.767252","268129.527402","268895.928294","268139.090718"
"Mixed","Male","done","41","M_done.wav","None","734.00984332","211","262780.089802","269662.885696","255813.174324","256579.78669","257346.767589","258112.92578","258879.731997","259646.429385","263546.710516","264313.384716","265080.057679","265847.065476","266596.108202","267362.767252","268129.527402","268895.928294","268905.020432"
"Mixed","Male","done","41","F_jolt.wav","space","399.827729212","211","262780.089802","269662.885696","270429.59607","256579.78669","257346.767589","258112.92578","258879.731997","259646.429385","263546.710516","264313.384716","265080.057679","265847.065476","266596.108202","267362.767252","268129.527402","268895.928294","269671.976288"
"Mixed","Male","done","41","M_done.wav","None","731.503693154","211","262780.089802","269662.885696","270429.59607","271196.278927","257346.767589","258112.92578","258879.731997","259646.429385","263546.710516","264313.384716","265080.057679","265847.065476","266596.108202","267362.767252","268129.527402","268895.928294","270439.401467"
"Mixed","Male","done","41","F_romp.wav","space","457.252454245","211","262780.089802","269662.885696","270429.59607","271196.278927","271962.980952","258112.92578","258879.731997","259646.429385","263546.710516","264313.384716","265080.057679","265847.065476","266596.108202","267362.767252","268129.527402","268895.928294","271206.527986"
"Mixed","Male","done","41","M_done.wav","None","729.371950612","211","262780.089802","269662.885696","270429.59607","271196.278927","271962.980952","272729.55158","258879.731997","259646.429385","263546.710516","264313.384716","265080.057679","265847.065476","266596.108202","267362.767252","268129.527402","268895.928294","271972.464811"
"Mixed","Male","done","41","F_romp.wav","space","372.546988772","211","262780.089802","269662.885696","270429.59607","271196.278927","271962.980952","272729.55158","273496.172911","259646.429385","263546.710516","264313.384716","265080.057679","265847.065476","266596.108202","267362.767252","268129.527402","268895.928294","272739.189715"
"Mixed","Male","done","41","F_depth.wav","None","727.145910379","211","262780.089802","269662.885696","270429.59607","271196.278927","271962.980952","272729.55158","273496.172911","274262.586789","263546.710516","264313.384716","265080.057679","265847.065476","266596.108202","267362.767252","268129.527402","268895.928294","273505.980164"
"Mixed","Female","tile","31","M_greet.wav","space","279.541485244","211","277396.377985","269662.885696","270429.59607","271196.278927","271962.980952","272729.55158","273496.172911","274262.586789","263546.710516","264313.384716","265080.057679","265847.065476","266596.108202","267362.767252","268129.527402","268895.928294","274272.118569"
"Mixed","Female","tile","31","F_tile.wav","None","722.211830551","211","277396.377985","269662.885696","270429.59607","271196.278927","271962.980952","272729.55158","273496.172911","274262.586789","278162.966854","264313.384716","265080.057679","265847.065476","266596.108202","267362.767252","268129.527402","268895.928294","277406.182456"
"Mixed","Female","tile","31","M_cling.wav","space","570.112690213","211","277396.377985","269662.885696","270429.59607","271196.278927","271962.980952","272729.55158","273496.172911","274262.586789","278162.966854","278929.806152","265080.057679","265847.065476","266596.108202","267362.767252","268129.527402","268895.928294","278173.48984"
"Mixed","Female","tile","31","M_jaw.wav","None","720.629177871","211","277396.377985","269662.885696","270429.59607","271196.278927","271962.980952","272729.55158","273496.172911","274262.586789","278162.966854","278929.806152","279696.489627","265847.065476","266596.108202","267362.767252","268129.527402","268895.928294","278939.465002"
"Mixed","Female","tile","31","F_jolt.wav","None","648.05872296","211","277396.377985","269662.885696","270429.59607","271196.278927","271962.980952","272729.55158","273496.172911","274262.586789","278162.966854","278929.806152","279696.489627","280462.564343","266596.108202","267362.767252","268129.527402","268895.928294","279778.082656"
"Mixed","Female","tile","31","F_tile.wav","None","720.42883432","211","277396.377985","269662.885696","270429.59607","271196.278927","271962.980952","272729.55158","273496.172911","274262.586789","278162.966854","278929.806152","279696.489627","280462.564343","281229.134661","267362.767252","268129.527402","268895.928294","280472.582142"
"Mixed","Female","tile","31","M_park.wav","space","392.760979361","211","277396.377985","269662.885696","270429.59607","271196.278927","271962.980952","272729.55158","273496.172911","274262.586789","278162.966854","278929.806152","279696.489627","280462.564343","281229.134661","281979.247741","268129.527402","268895.928294","281238.813607"
"Mixed","Female","tile","31","M_lash.wav","None","736.172812525","211","277396.377985","269662.885696","270429.59607","271196.278927","271962.980952","272729.55158","273496.172911","274262.586789","278162.966854","278929.806152","279696.489627","280462.564343","281229.134661","281979.247741","282746.068798","268895.928294","281988.504048"
"Mixed","Female","tile","31","M_romp.wav","None","735.453677829","211","277396.377985","269662.885696","270429.59607","271196.278927","271962.980952","272729.55158","273496.172911","274262.586789","278162.966854","278929.806152","279696.489627","280462.564343","281229.134661","281979.247741","282746.068798","283512.295316","282755.706315"
"Mixed","Female","tile","31","F_jaw.wav","None","735.962266102","211","277396.377985","284278.972917","270429.59607","271196.278927","271962.980952","272729.55158","273496.172911","274262.586789","278162.966854","278929.806152","279696.489627","280462.564343","281229.134661","281979.247741","282746.068798","283512.295316","283521.369831"
"Mixed","Female","tile","31","M_depth.wav","None","735.692049609","211","277396.377985","284278.972917","285045.435335","271196.278927","271962.980952","272729.55158","273496.172911","274262.586789","278162.966854","278929.806152","279696.489627","280462.564343","281229.134661","281979.247741","282746.068798","283512.295316","284288.27962"
"Mixed","Female","tile","31","F_tile.wav","None","735.716474126","211","277396.377985","284278.972917","285045.435335","285812.363056","271962.980952","272729.55158","273496.172911","274262.586789","278162.966854","278929.806152","279696.489627","280462.564343","281229.134661","281979.247741","282746.068798","283512.295316","285054.609712"
"Mixed","Female","tile","31","F_ball.wav","space","417.930691619","211","277396.377985","284278.972917","285045.435335","285812.363056","286578.889163","272729.55158","273496.172911","274262.586789","278162.966854","278929.806152","279696.489627","280462.564343","281229.134661","281979.247741","282746.068798","283512.295316","285821.548254"
"Mixed","Female","tile","31","F_tile.wav","None","733.623996377","211","277396.377985","284278.972917","285045.435335","285812.363056","286578.889163","287345.874081","273496.172911","274262.586789","278162.966854","278929.806152","279696.489627","280462.564343","281229.134661","281979.247741","282746.068798","283512.295316","286588.13836"
"Mixed","Female","tile","31","M_done.wav","space","436.454128241","211","277396.377985","284278.972917","285045.435335","285812.363056","286578.889163","287345.874081","288112.522311","274262.586789","278162.966854","278929.806152","279696.489627","280462.564343","281229.134661","281979.247741","282746.068798","283512.295316","287354.994044"
"Mixed","Female","tile","31","F_bluff.wav","None","731.285417685","211","277396.377985","284278.972917","285045.435335","285812.363056","286578.889163","287345.874081","288112.522311","288878.994003","278162.966854","278929.806152","279696.489627","280462.564343","281229.134661","281979.247741","282746.068798","283512.295316","288121.730697"
"Mixed","Male","ball","1","F_done.wav","None","730.901425704","211","292012.786746","284278.972917","285045.435335","285812.363056","286578.889163","287345.874081","288112.522311","288878.994003","278162.966854","278929.806152","279696.489627","280462.564343","281229.134661","281979.247741","282746.068798","283512.295316","288888.446017"
"Mixed","Male","ball","1","M_gnash.wav","None","721.944087418","211","292012.786746","284278.972917","285045.435335","285812.363056","286578.889163","287345.874081","288112.522311","288878.994003","292779.491554","278929.806152","279696.489627","280462.564343","281229.134661","281979.247741","282746.068798","283512.295316","292022.721687"
"Mixed","Male","ball","1","M_ball.wav","None","721.062946483","211","292012.786746","284278.972917","285045.435335","285812.363056","286578.889163","287345.874081","288112.522311","288878.994003","292779.491554","293546.187705","279696.489627","280462.564343","281229.134661","281979.247741","282746.068798","283512.295316","292789.707532"
"Mixed","Male","ball","1","F_done.wav","space","443.229637924","211","292012.786746","284278.972917","285045.435335","285812.363056","286578.889163","287345.874081","288112.522311","288878.994003","292779.491554","293546.187705","294312.728961","280462.564343","281229.134661","281979.247741","282746.068798","283512.295316","293556.047827"
"Mixed","Male","ball","1","F_reek.wav","None","719.347040518","211","292012.786746","284278.972917","285045.435335","285812.363056","286578.889163","287345.874081","288112.522311","288878.994003","292779.491554","293546.187705","294312.728961","295079.302681","281229.134661","281979.247741","282746.068798","283512.295316","294322.671941"
"Mixed","Male","ball","1","M_done.wav","None","718.634398538","211","292012.786746","284278.972917","285045.435335","285812.363056","286578.889163","287345.874081","288112.522311","288878.994003","292779.491554","293546.187705","294312.728961","295079.302681","295845.971006","281979.247741","282746.068798","283512.295316","295089.789494"
"Mixed","Male","ball","1","F_lash.wav","None","718.673972529","211","292012.786746","284278.972917","285045.435335","285812.363056","286578.889163","287345.874081","288112.522311","288878.994003","292779.491554","293546.187705","294312.728961","295079.302681","295845.971006","296595.815725","282746.068798","283512.295316","295855.993134"
"Mixed","Male","ball","1","F_dime.wav","None","735.501599498","211","292012.786746","284278.972917","285045.435335","285812.363056","286578.889163","287345.874081","288112.522311","288878.994003","292779.491554","293546.187705","294312.728961","295079.302681","295845.971006","296595.815725","297362.029877","283512.295316","296605.403156"
"Mixed","Male","ball","1","M_ball.wav","None","735.898576677","211","292012.786746","284278.972917","285045.435335","285812.363056","286578.889163","287345.874081","288112.522311","288878.994003","292779.491554","293546.187705","294312.728961","295079.302681","295845.971006","296595.815725","297362.029877","298128.841658","297371.419438"
"Mixed","Male","ball","1","F_cad.wav","space","388.732774183","211","292012.786746","298895.279342","285045.435335","285812.363056","286578.889163","287345.874081","288112.522311","288878.994003","292779.491554","293546.187705","294312.728961","295079.302681","295845.971006","296595.815725","297362.029877","298128.841658","298138.432491"
"Mixed","Male","ball","1","F_tile.wav","None","734.567280975","211","292012.786746","298895.279342","299662.245091","285812.363056","286578.889163","287345.874081","288112.522311","288878.994003","292779.491554","293546.187705","294312.728961","295079.302681","295845.971006","296595.815725","297362.029877","298128.841658","298904.318611"
"Mixed","Male","ball","1","M_ball.wav","None","733.813209925","211","292012.786746","298895.279342","299662.245091","300428.887447","286578.889163","287345.874081","288112.522311","288878.994003","292779.491554","293546.187705","294312.728961","295079.302681","295845.971006","296595.815725","297362.029877","298128.841658","299671.286215"
"Mixed","Male","ball","1","M_jaw.wav","space","392.854658421","211","292012.786746","298895.279342","299662.245091","300428.887447","301195.504759","287345.874081","288112.522311","288878.994003","292779.491554","293546.187705","294312.728961","295079.302681","295845.971006","296595.815725","297362.029877","298128.841658","300438.329876"
"Mixed","Male","ball","1","M_ball.wav","None","731.628907961","211","292012.786746","298895.279342","299662.245091","300428.887447","301195.504759","301962.304792","288112.522311","288878.994003","292779.491554","293546.187705","294312.728961","295079.302681","295845.971006","296595.815725","297362.029877","298128.841658","301204.975942"
"Mixed","Male","ball","1","F_cave.wav","space","363.687039819","211","292012.786746","298895.279342","299662.245091","300428.887447","301195.504759","301962.304792","302728.808948","288878.994003","292779.491554","293546.187705","294312.728961","295079.302681","295845.971006","296595.815725","297362.029877","298128.841658","301971.420118"
"Mixed","Male","ball","1","M_done.wav","None","729.4980929","211","292012.786746","298895.279342","299662.245091","300428.887447","301195.504759","301962.304792","302728.808948","303495.118325","292779.491554","293546.187705","294312.728961","295079.302681","295845.971006","296595.815725","297362.029877","298128.841658","302738.28013"
"Mixed","Male","done","39","M_tile.wav","None","729.89599756","211","306629.165516","298895.279342","299662.245091","300428.887447","301195.504759","301962.304792","302728.808948","303495.118325","292779.491554","293546.187705","294312.728961","295079.302681","295845.971006","296595.815725","297362.029877","298128.841658","303504.247872"
"Mixed","Male","done","39","F_ball.wav","None","721.903895028","211","306629.165516","298895.279342","299662.245091","300428.887447","301195.504759","301962.304792","302728.808948","303495.118325","307395.530853","293546.187705","294312.728961","295079.302681","295845.971006","296595.815725","297362.029877","298128.841658","306638.696987"
"Mixed","Male","done","39","M_done.wav","None","720.87404225","211","306629.165516","298895.279342","299662.245091","300428.887447","301195.504759","301962.304792","302728.808948","303495.118325","307395.530853","308162.53865","294312.728961","295079.302681","295845.971006","296595.815725","297362.029877","298128.841658","307405.940992"
"Mixed","Male","done","39","F_cave.wav","space","410.766552319","211","306629.165516","298895.279342","299662.245091","300428.887447","301195.504759","301962.304792","302728.808948","303495.118325","307395.530853","308162.53865","308929.219034","295079.302681","295845.971006","296595.815725","297362.029877","298128.841658","308172.220998"
"Mixed","Male","done","39","M_done.wav","None","719.184725196","211","306629.165516","298895.279342","299662.245091","300428.887447","301195.504759","301962.304792","302728.808948","303495.118325","307395.530853","308162.53865","308929.219034","309695.617762","295845.971006","296595.815725","297362.029877","298128.841658","308939.054112"
"Mixed","Male","done","39","M_bluff.wav","space","461.979697924","211","306629.165516","298895.279342","299662.245091","300428.887447","301195.504759","301962.304792","302728.808948","303495.118325","307395.530853","308162.53865","308929.219034","309695.617762","310445.07756","296595.815725","297362.029877","298128.841658","309704.942397"
"Mixed","Male","done","39","M_cad.wav","None","735.220252769","211","306629.165516","298895.279342","299662.245091","300428.887447","301195.504759","301962.304792","302728.808948","303495.118325","307395.530853","308162.53865","308929.219034","309695.617762","310445.07756","311212.234069","297362.029877","298128.841658","310454.647987"
"Mixed","Male","done","39","F_cad.wav","None","734.680128866","211","306629.165516","298895.279342","299662.245091","300428.887447","301195.504759","301962.304792","302728.808948","303495.118325","307395.530853","308162.53865","308929.219034","309695.617762","310445.07756","311212.234069","311978.528915","298128.841658","311221.633215"
"Mixed","Male","done","39","F_lash.wav","None","734.66405191","211","306629.165516","298895.279342","299662.245091","300428.887447","301195.504759","301962.304792","302728.808948","303495.118325","307395.530853","308162.53865","308929.219034","309695.617762","310445.07756","311212.234069","311978.528915","312745.025341","311987.971963"
"Mixed","Male","done","39","M_done.wav","None","735.21376017","211","306629.165516","313511.672334","299662.245091","300428.887447","301195.504759","301962.304792","302728.808948","303495.118325","307395.530853","308162.53865","308929.219034","309695.617762","310445.07756","311212.234069","311978.528915","312745.025341","312754.004631"
"Mixed","Male","done","39","F_priest.wav","space","477.955246111","211","306629.165516","313511.672334","314278.630973","300428.887447","301195.504759","301962.304792","302728.808948","303495.118325","307395.530853","308162.53865","308929.219034","309695.617762","310445.07756","311212.234069","311978.528915","312745.025341","313520.948429"
"Mixed","Male","done","39","M_done.wav","None","733.031004202","211","306629.165516","313511.672334","314278.630973","315045.413383","301195.504759","301962.304792","302728.808948","303495.118325","307395.530853","308162.53865","308929.219034","309695.617762","310445.07756","311212.234069","311978.528915","312745.025341","314288.112976"
"Mixed","Male","done","39","F_romp.wav","space","592.187279253","211","306629.165516","313511.672334","314278.630973","315045.413383","315811.684732","301962.304792","302728.808948","303495.118325","307395.530853","308162.53865","308929.219034","309695.617762","310445.07756","311212.234069","311978.528915","312745.025341","315054.626716"
"Mixed","Male","done","39","M_jaw.wav","None","731.751958607","211","306629.165516","313511.672334","314278.630973","315045.413383","315811.684732","316578.679235","302728.808948","303495.118325","307395.530853","308162.53865","308929.219034","309695.617762","310445.07756","311212.234069","311978.528915","312745.025341","315820.962064"
"Mixed","Male","done","39","F_bluff.wav","None","730.147972936","211","306629.165516","313511.672334","314278.630973","315045.413383","315811.684732","316578.679235","317345.358382","303495.118325","307395.530853","308162.53865","308929.219034","309695.617762","310445.07756","311212.234069","311978.528915","312745.025341","316588.779583"
"Mixed","Male","done","39","F_cling.wav","None","731.164840399","211","306629.165516","313511.672334","314278.630973","315045.413383","315811.684732","316578.679235","317345.358382","318111.871503","307395.530853","308162.53865","308929.219034","309695.617762","310445.07756","311212.234069","311978.528915","312745.025341","317354.38281"
"Mixed","Female","cave","23","F_depth.wav","None","730.434266385","211","321245.685888","313511.672334","314278.630973","315045.413383","315811.684732","316578.679235","317345.358382","318111.871503","307395.530853","308162.53865","308929.219034","309695.617762","310445.07756","311212.234069","311978.528915","312745.025341","318121.136468"
"Mixed","Female","cave","23","M_jolt.wav","None","721.597196185","211","321245.685888","313511.672334","314278.630973","315045.413383","315811.684732","316578.679235","317345.358382","318111.871503","322012.133156","308162.53865","308929.219034","309695.617762","310445.07756","311212.234069","311978.528915","312745.025341","321255.441818"
"Mixed","Female","cave","23","F_cave.wav","None","721.427460667","211","321245.685888","313511.672334","314278.630973","315045.413383","315811.684732","316578.679235","317345.358382","318111.871503","322012.133156","322778.973381","308929.219034","309695.617762","310445.07756","311212.234069","311978.528915","312745.025341","322021.661535"
"Mixed","Female","cave","23","M_priest.wav","space","377.823631396","211","321245.685888","313511.672334","314278.630973","315045.413383","315811.684732","316578.679235","317345.358382","318111.871503","322012.133156","322778.973381","323546.465342","309695.617762","310445.07756","311212.234069","311978.528915","312745.025341","322788.809387"
"Mixed","Female","cave","23","F_knife.wav","None","719.495752361","211","321245.685888","313511.672334","314278.630973","315045.413383","315811.684732","316578.679235","317345.358382","318111.871503","322012.133156","322778.973381","323546.465342","324311.475886","310445.07756","311212.234069","311978.528915","312745.025341","323555.374759"
"Mixed","Female","cave","23","M_park.wav","None","720.878679887","211","321245.685888","313511.672334","314278.630973","315045.413383","315811.684732","316578.679235","317345.358382","318111.871503","322012.133156","322778.973381","323546.465342","324311.475886","325078.259224","311212.234069","311978.528915","312745.025341","324320.436625"
"Mixed","Female","cave","23","F_tile.wav","None","720.138521516","211","321245.685888","313511.672334","314278.630973","315045.413383","315811.684732","316578.679235","317345.358382","318111.871503","322012.133156","322778.973381","323546.465342","324311.475886","325078.259224","325845.069769","311978.528915","312745.025341","325087.950847"
"Mixed","Female","cave","23","F_cave.wav","None","722.186478437","211","321245.685888","313511.672334","314278.630973","315045.413383","315811.684732","316578.679235","317345.358382","318111.871503","322012.133156","322778.973381","323546.465342","324311.475886","325078.259224","325845.069769","326612.099827","312745.025341","325852.485884"
"Mixed","Female","cave","23","M_greet.wav","space","392.312061158","211","321245.685888","313511.672334","314278.630973","315045.413383","315811.684732","316578.679235","317345.358382","318111.871503","322012.133156","322778.973381","323546.465342","324311.475886","325078.259224","325845.069769","326612.099827","327361.39731","326622.270048"
"Mixed","Female","cave","23","F_cave.wav","None","735.758521711","211","321245.685888","328128.204454","314278.630973","315045.413383","315811.684732","316578.679235","317345.358382","318111.871503","322012.133156","322778.973381","323546.465342","324311.475886","325078.259224","325845.069769","326612.099827","327361.39731","327370.827064"
"Mixed","Female","cave","23","F_reek.wav","space","308.551426046","211","321245.685888","328128.204454","328894.951928","315045.413383","315811.684732","316578.679235","317345.358382","318111.871503","322012.133156","322778.973381","323546.465342","324311.475886","325078.259224","325845.069769","326612.099827","327361.39731","328138.023765"
"Mixed","Female","cave","23","M_done.wav","None","733.668826404","211","321245.685888","328128.204454","328894.951928","329661.622109","315811.684732","316578.679235","317345.358382","318111.871503","322012.133156","322778.973381","323546.465342","324311.475886","325078.259224","325845.069769","326612.099827","327361.39731","328904.332523"
"Mixed","Female","cave","23","F_cave.wav","None","733.901942265","211","321245.685888","328128.204454","328894.951928","329661.622109","330428.166766","316578.679235","317345.358382","318111.871503","322012.133156","322778.973381","323546.465342","324311.475886","325078.259224","325845.069769","326612.099827","327361.39731","329670.95571"
"Mixed","Female","cave","23","M_gnash.wav","space","440.934343264","211","321245.685888","328128.204454","328894.951928","329661.622109","330428.166766","331195.179201","317345.358382","318111.871503","322012.133156","322778.973381","323546.465342","324311.475886","325078.259224","325845.069769","326612.099827","327361.39731","330437.595901"
"Mixed","Female","cave","23","M_jolt.wav","None","731.700017583","211","321245.685888","328128.204454","328894.951928","329661.622109","330428.166766","331195.179201","331961.582875","318111.871503","322012.133156","322778.973381","323546.465342","324311.475886","325078.259224","325845.069769","326612.099827","327361.39731","331204.681919"
"Mixed","Female","cave","23","M_gnash.wav","None","732.148317271","211","321245.685888","328128.204454","328894.951928","329661.622109","330428.166766","331195.179201","331961.582875","332728.217192","322012.133156","322778.973381","323546.465342","324311.475886","325078.259224","325845.069769","326612.099827","327361.39731","331970.677177"
"Mixed","Male","cave","15","M_park.wav","None","731.708056061","211","335861.926768","328128.204454","328894.951928","329661.622109","330428.166766","331195.179201","331961.582875","332728.217192","322012.133156","322778.973381","323546.465342","324311.475886","325078.259224","325845.069769","326612.099827","327361.39731","332738.001257"
"Mixed","Male","cave","15","F_ball.wav","None","721.717464156","211","335861.926768","328128.204454","328894.951928","329661.622109","330428.166766","331195.179201","331961.582875","332728.217192","336628.408972","322778.973381","323546.465342","324311.475886","325078.259224","325845.069769","326612.099827","327361.39731","335871.818424"
"Mixed","Male","cave","15","M_lash.wav","None","721.622857498","211","335861.926768","328128.204454","328894.951928","329661.622109","330428.166766","331195.179201","331961.582875","332728.217192","336628.408972","337395.077916","323546.465342","324311.475886","325078.259224","325845.069769","326612.099827","327361.39731","336638.324126"
"Mixed","Male","cave","15","F_bluff.wav","None","721.822891966","211","335861.926768","328128.204454","328894.951928","329661.622109","330428.166766","331195.179201","331961.582875","332728.217192","336628.408972","337395.077916","338161.838994","324311.475886","325078.259224","325845.069769","326612.099827","327361.39731","337404.569504"
"Mixed","Male","cave","15","M_cave.wav","None","720.924437395","211","335861.926768","328128.204454","328894.951928","329661.622109","330428.166766","331195.179201","331961.582875","332728.217192","336628.408972","337395.077916","338161.838994","338928.625423","325078.259224","325845.069769","326612.099827","327361.39731","338172.043842"
"Mixed","Male","cave","15","F_jolt.wav","None","721.602761187","211","335861.926768","328128.204454","328894.951928","329661.622109","330428.166766","331195.179201","331961.582875","332728.217192","336628.408972","337395.077916","338161.838994","338928.625423","339695.098662","325845.069769","326612.099827","327361.39731","338937.96057"
"Mixed","Male","cave","15","M_cave.wav","None","720.861057052","211","335861.926768","328128.204454","328894.951928","329661.622109","330428.166766","331195.179201","331961.582875","332728.217192","336628.408972","337395.077916","338161.838994","338928.625423","339695.098662","340461.288698","326612.099827","327361.39731","339705.188807"
"Mixed","Male","cave","15","F_knife.wav","space","720.094928169","211","335861.926768","328128.204454","328894.951928","329661.622109","330428.166766","331195.179201","331961.582875","332728.217192","336628.408972","337395.077916","338161.838994","338928.625423","339695.098662","340461.288698","341228.292167","327361.39731","340470.229341"
"Mixed","Male","cave","15","M_cave.wav","None","719.189671916","211","335861.926768","328128.204454","328894.951928","329661.622109","330428.166766","331195.179201","331961.582875","332728.217192","336628.408972","337395.077916","338161.838994","338928.625423","339695.098662","340461.288698","341228.292167","341995.059737","341238.347685"
"Mixed","Male","cave","15","F_jaw.wav","space","689.509754884","211","335861.926768","342744.209127","328894.951928","329661.622109","330428.166766","331195.179201","331961.582875","332728.217192","336628.408972","337395.077916","338161.838994","338928.625423","339695.098662","340461.288698","341228.292167","341995.059737","342004.769291"
"Mixed","Male","cave","15","M_depth.wav","None","735.726676881","211","335861.926768","342744.209127","343511.169002","329661.622109","330428.166766","331195.179201","331961.582875","332728.217192","336628.408972","337395.077916","338161.838994","338928.625423","339695.098662","340461.288698","341228.292167","341995.059737","342753.38876"
"Mixed","Male","cave","15","M_priest.wav","None","735.237257206","211","335861.926768","342744.209127","343511.169002","344277.766218","330428.166766","331195.179201","331961.582875","332728.217192","336628.408972","337395.077916","338161.838994","338928.625423","339695.098662","340461.288698","341228.292167","341995.059737","343520.389137"
"Mixed","Male","cave","15","F_jaw.wav","None","734.701770823","211","335861.926768","342744.209127","343511.169002","344277.766218","345044.320459","331195.179201","331961.582875","332728.217192","336628.408972","337395.077916","338161.838994","338928.625423","339695.098662","340461.288698","341228.292167","341995.059737","344287.341901"
"Mixed","Male","cave","15","F_gnash.wav","None","735.191809013","211","335861.926768","342744.209127","343511.169002","344277.766218","345044.320459","345811.301977","331961.582875","332728.217192","336628.408972","337395.077916","338161.838994","338928.625423","339695.098662","340461.288698","341228.292167","341995.059737","345053.450316"
"Mixed","Male","cave","15","M_cave.wav","None","734.734233934","211","335861.926768","342744.209127","343511.169002","344277.766218","345044.320459","345811.301977","346577.795002","332728.217192","336628.408972","337395.077916","338161.838994","338928.625423","339695.098662","340461.288698","341228.292167","341995.059737","345820.383912"
"Mixed","Male","cave","15","F_ball.wav","space","403.02024188","211","335861.926768","342744.209127","343511.169002","344277.766218","345044.320459","345811.301977","346577.795002","347344.93698","336628.408972","337395.077916","338161.838994","338928.625423","339695.098662","340461.288698","341228.292167","341995.059737","346587.146844"
"Mixed","Female","ball","8","F_greet.wav","None","732.615167391","211","350478.220825","342744.209127","343511.169002","344277.766218","345044.320459","345811.301977","346577.795002","347344.93698","336628.408972","337395.077916","338161.838994","338928.625423","339695.098662","340461.288698","341228.292167","341995.059737","347354.354676"
"Mixed","Female","ball","8","M_gnash.wav","None","721.562259714","211","350478.220825","342744.209127","343511.169002","344277.766218","345044.320459","345811.301977","346577.795002","347344.93698","351244.698392","337395.077916","338161.838994","338928.625423","339695.098662","340461.288698","341228.292167","341995.059737","350487.803619"
"Mixed","Female","ball","8","F_ball.wav","None","720.564560848","211","350478.220825","342744.209127","343511.169002","344277.766218","345044.320459","345811.301977","346577.795002","347344.93698","351244.698392","352011.53769","338161.838994","338928.625423","339695.098662","340461.288698","341228.292167","341995.059737","351255.294343"
"Mixed","Female","ball","8","M_cad.wav","space","352.877141442","211","350478.220825","342744.209127","343511.169002","344277.766218","345044.320459","345811.301977","346577.795002","347344.93698","351244.698392","352011.53769","352778.002271","338928.625423","339695.098662","340461.288698","341228.292167","341995.059737","352021.201178"
"Mixed","Female","ball","8","F_ball.wav","None","719.09321018","211","350478.220825","342744.209127","343511.169002","344277.766218","345044.320459","345811.301977","346577.795002","347344.93698","351244.698392","352011.53769","352778.002271","353544.698732","339695.098662","340461.288698","341228.292167","341995.059737","352788.511654"
"Mixed","Female","ball","8","M_cling.wav","space","365.869177505","211","350478.220825","342744.209127","343511.169002","344277.766218","345044.320459","345811.301977","346577.795002","347344.93698","351244.698392","352011.53769","352778.002271","353544.698732","354294.097314","340461.288698","341228.292167","341995.059737","353552.212236"
"Mixed","Female","ball","8","M_tile.wav","None","735.100293881","211","350478.220825","342744.209127","343511.169002","344277.766218","345044.320459","345811.301977","346577.795002","347344.93698","351244.698392","352011.53769","352778.002271","353544.698732","354294.097314","355060.822837","341228.292167","341995.059737","354304.207247"
"Mixed","Female","ball","8","F_cling.wav","None","735.977415578","211","350478.220825","342744.209127","343511.169002","344277.766218","345044.320459","345811.301977","346577.795002","347344.93698","351244.698392","352011.53769","352778.002271","353544.698732","354294.097314","355060.822837","355827.479415","341995.059737","355070.14469"
"Mixed","Female","ball","8","M_greet.wav","space","441.050592111","211","350478.220825","342744.209127","343511.169002","344277.766218","345044.320459","345811.301977","346577.795002","347344.93698","351244.698392","352011.53769","352778.002271","353544.698732","354294.097314","355060.822837","355827.479415","356594.003666","355836.920298"
"Mixed","Female","ball","8","F_ball.wav","None","734.929630882","211","350478.220825","357360.748667","343511.169002","344277.766218","345044.320459","345811.301977","346577.795002","347344.93698","351244.698392","352011.53769","352778.002271","353544.698732","354294.097314","355060.822837","355827.479415","356594.003666","356603.115591"
"Mixed","Female","ball","8","M_jaw.wav","space","427.866250859","211","350478.220825","357360.748667","358127.692156","344277.766218","345044.320459","345811.301977","346577.795002","347344.93698","351244.698392","352011.53769","352778.002271","353544.698732","354294.097314","355060.822837","355827.479415","356594.003666","357370.06279"
"Mixed","Female","ball","8","F_cling.wav","None","732.895277441","211","350478.220825","357360.748667","358127.692156","358894.320908","345044.320459","345811.301977","346577.795002","347344.93698","351244.698392","352011.53769","352778.002271","353544.698732","354294.097314","355060.822837","355827.479415","356594.003666","358137.201367"
"Mixed","Female","ball","8","M_dime.wav","None","732.995758415","211","350478.220825","357360.748667","358127.692156","358894.320908","359661.014895","345811.301977","346577.795002","347344.93698","351244.698392","352011.53769","352778.002271","353544.698732","354294.097314","355060.822837","355827.479415","356594.003666","358903.664711"
"Mixed","Female","ball","8","M_jaw.wav","None","732.971333899","211","350478.220825","357360.748667","358127.692156","358894.320908","359661.014895","360427.664052","346577.795002","347344.93698","351244.698392","352011.53769","352778.002271","353544.698732","354294.097314","355060.822837","355827.479415","356594.003666","359670.103941"
"Mixed","Female","ball","8","F_ball.wav","None","732.636809465","211","350478.220825","357360.748667","358127.692156","358894.320908","359661.014895","360427.664052","361194.24581","347344.93698","351244.698392","352011.53769","352778.002271","353544.698732","354294.097314","355060.822837","355827.479415","356594.003666","360437.0363"
"Mixed","Female","ball","8","F_priest.wav","space","569.815266528","211","350478.220825","357360.748667","358127.692156","358894.320908","359661.014895","360427.664052","361194.24581","361960.981535","351244.698392","352011.53769","352778.002271","353544.698732","354294.097314","355060.822837","355827.479415","356594.003666","361204.062956"
"Mixed","Male","ball","4","F_priest.wav","None","731.50987667","211","365094.50097","357360.748667","358127.692156","358894.320908","359661.014895","360427.664052","361194.24581","361960.981535","351244.698392","352011.53769","352778.002271","353544.698732","354294.097314","355060.822837","355827.479415","356594.003666","361970.102735"
"Mixed","Male","ball","4","M_ball.wav","None","721.779607818","211","365094.50097","357360.748667","358127.692156","358894.320908","359661.014895","360427.664052","361194.24581","361960.981535","365861.269467","352011.53769","352778.002271","353544.698732","354294.097314","355060.822837","355827.479415","356594.003666","365104.366347"
"Mixed","Male","ball","4","M_cave.wav","space","646.894071135","211","365094.50097","357360.748667","358127.692156","358894.320908","359661.014895","360427.664052","361194.24581","361960.981535","365861.269467","366627.870085","352778.002271","353544.698732","354294.097314","355060.822837","355827.479415","356594.003666","365870.86772"
"Mixed","Male","ball","4","M_romp.wav","None","719.949926483","211","365094.50097","357360.748667","358127.692156","358894.320908","359661.014895","360427.664052","361194.24581","361960.981535","365861.269467","366627.870085","367394.53501","353544.698732","354294.097314","355060.822837","355827.479415","356594.003666","366638.354115"
"Mixed","Male","ball","4","M_ball.wav","None","720.527460217","211","365094.50097","357360.748667","358127.692156","358894.320908","359661.014895","360427.664052","361194.24581","361960.981535","365861.269467","366627.870085","367394.53501","368161.009485","354294.097314","355060.822837","355827.479415","356594.003666","367404.321548"
"Mixed","Male","ball","4","F_dime.wav","space","547.312473995","211","365094.50097","357360.748667","358127.692156","358894.320908","359661.014895","360427.664052","361194.24581","361960.981535","365861.269467","366627.870085","367394.53501","368161.009485","368927.918037","355060.822837","355827.479415","356594.003666","368170.437074"
"Mixed","Male","ball","4","M_cave.wav","None","718.684793683","211","365094.50097","357360.748667","358127.692156","358894.320908","359661.014895","360427.664052","361194.24581","361960.981535","365861.269467","366627.870085","367394.53501","368161.009485","368927.918037","369694.680352","355827.479415","356594.003666","368937.791144"
"Mixed","Male","ball","4","M_ball.wav","None","719.194927835","211","365094.50097","357360.748667","358127.692156","358894.320908","359661.014895","360427.664052","361194.24581","361960.981535","365861.269467","366627.870085","367394.53501","368161.009485","368927.918037","369694.680352","370461.121127","356594.003666","369704.150607"
"Mixed","Male","ball","4","F_bluff.wav","space","502.982739243","211","365094.50097","357360.748667","358127.692156","358894.320908","359661.014895","360427.664052","361194.24581","361960.981535","365861.269467","366627.870085","367394.53501","368161.009485","368927.918037","369694.680352","370461.121127","371210.549699","370470.702374"
"Mixed","Male","ball","4","M_ball.wav","None","735.258280998","211","365094.50097","371977.1936","358127.692156","358894.320908","359661.014895","360427.664052","361194.24581","361960.981535","365861.269467","366627.870085","367394.53501","368161.009485","368927.918037","369694.680352","370461.121127","371210.549699","371219.779418"
"Mixed","Male","ball","4","M_reek.wav","space","531.191614806","211","365094.50097","371977.1936","372743.802256","358894.320908","359661.014895","360427.664052","361194.24581","361960.981535","365861.269467","366627.870085","367394.53501","368161.009485","368927.918037","369694.680352","370461.121127","371210.549699","371986.475879"
"Mixed","Male","ball","4","F_depth.wav","None","733.920183498","211","365094.50097","371977.1936","372743.802256","373510.607854","359661.014895","360427.664052","361194.24581","361960.981535","365861.269467","366627.870085","367394.53501","368161.009485","368927.918037","369694.680352","370461.121127","371210.549699","372753.428643"
"Mixed","Male","ball","4","F_dime.wav","None","734.279441647","211","365094.50097","371977.1936","372743.802256","373510.607854","374277.020804","360427.664052","361194.24581","361960.981535","365861.269467","366627.870085","367394.53501","368161.009485","368927.918037","369694.680352","370461.121127","371210.549699","373519.810366"
"Mixed","Male","ball","4","F_knife.wav","None","734.637463","211","365094.50097","371977.1936","372743.802256","373510.607854","374277.020804","375060.343311","361194.24581","361960.981535","365861.269467","366627.870085","367394.53501","368161.009485","368927.918037","369694.680352","370461.121127","371210.549699","374286.198273"
"Mixed","Male","ball","4","F_knife.wav","None","720.546938013","211","365094.50097","371977.1936","372743.802256","373510.607854","374277.020804","375060.343311","375827.732936","361960.981535","365861.269467","366627.870085","367394.53501","368161.009485","368927.918037","369694.680352","370461.121127","371210.549699","375069.137406"
"Mixed","Male","ball","4","F_greet.wav","None","719.317978364","211","365094.50097","371977.1936","372743.802256","373510.607854","374277.020804","375060.343311","375827.732936","376594.542244","365861.269467","366627.870085","367394.53501","368161.009485","368927.918037","369694.680352","370461.121127","371210.549699","375837.369525"
"Mixed","Male","done","42","F_cave.wav","None","718.926875503","211","379710.85006","371977.1936","372743.802256","373510.607854","374277.020804","375060.343311","375827.732936","376594.542244","365861.269467","366627.870085","367394.53501","368161.009485","368927.918037","369694.680352","370461.121127","371210.549699","376604.458944"
"Mixed","Male","done","42","F_cave.wav","None","722.598295892","211","379710.85006","371977.1936","372743.802256","373510.607854","374277.020804","375060.343311","375827.732936","376594.542244","380477.577747","366627.870085","367394.53501","368161.009485","368927.918037","369694.680352","370461.121127","371210.549699","379720.117498"
"Mixed","Male","done","42","F_cave.wav","None","722.024472198","211","379710.85006","371977.1936","372743.802256","373510.607854","374277.020804","375060.343311","375827.732936","376594.542244","380477.577747","381244.395094","367394.53501","368161.009485","368927.918037","369694.680352","370461.121127","371210.549699","380487.191458"
"Mixed","Male","done","42","F_gnash.wav","None","721.760748303","211","379710.85006","371977.1936","372743.802256","373510.607854","374277.020804","375060.343311","375827.732936","376594.542244","380477.577747","381244.395094","382010.880699","368161.009485","368927.918037","369694.680352","370461.121127","371210.549699","381254.232645"
"Mixed","Male","done","42","M_greet.wav","None","721.481874934","211","379710.85006","371977.1936","372743.802256","373510.607854","374277.020804","375060.343311","375827.732936","376594.542244","380477.577747","381244.395094","382010.880699","382777.540368","368927.918037","369694.680352","370461.121127","371210.549699","382021.042881"
"Mixed","Male","done","42","F_bluff.wav","None","722.297780449","211","379710.85006","371977.1936","372743.802256","373510.607854","374277.020804","375060.343311","375827.732936","376594.542244","380477.577747","381244.395094","382010.880699","382777.540368","383543.781727","369694.680352","370461.121127","371210.549699","382787.047724"
"Mixed","Male","done","42","M_done.wav","None","724.848760758","211","379710.85006","371977.1936","372743.802256","373510.607854","374277.020804","375060.343311","375827.732936","376594.542244","380477.577747","381244.395094","382010.880699","382777.540368","383543.781727","384311.212162","370461.121127","371210.549699","383551.041709"
"Mixed","Male","done","42","F_tile.wav","space","372.225758736","211","379710.85006","371977.1936","372743.802256","373510.607854","374277.020804","375060.343311","375827.732936","376594.542244","380477.577747","381244.395094","382010.880699","382777.540368","383543.781727","384311.212162","385077.540399","371210.549699","384321.162562"
"Mixed","Male","done","42","M_done.wav","None","720.118116122","211","379710.85006","371977.1936","372743.802256","373510.607854","374277.020804","375060.343311","375827.732936","376594.542244","380477.577747","381244.395094","382010.880699","382777.540368","383543.781727","384311.212162","385077.540399","385844.156475","385087.423708"
"Mixed","Male","done","42","M_park.wav","space","407.404922647","211","379710.85006","386594.050351","372743.802256","373510.607854","374277.020804","375060.343311","375827.732936","376594.542244","380477.577747","381244.395094","382010.880699","382777.540368","383543.781727","384311.212162","385077.540399","385844.156475","385853.965273"
"Mixed","Male","done","42","M_done.wav","None","735.631451942","211","379710.85006","386594.050351","387377.502711","373510.607854","374277.020804","375060.343311","375827.732936","376594.542244","380477.577747","381244.395094","382010.880699","382777.540368","383543.781727","384311.212162","385077.540399","385844.156475","386603.52308"
"Mixed","Male","done","42","F_park.wav","space","575.714891311","211","379710.85006","386594.050351","387377.502711","388126.945505","374277.020804","375060.343311","375827.732936","376594.542244","380477.577747","381244.395094","382010.880699","382777.540368","383543.781727","384311.212162","385077.540399","385844.156475","387381.57791"
"Mixed","Male","done","42","M_dime.wav","None","735.263227718","211","379710.85006","386594.050351","387377.502711","388126.945505","388893.822831","375060.343311","375827.732936","376594.542244","380477.577747","381244.395094","382010.880699","382777.540368","383543.781727","384311.212162","385077.540399","385844.156475","388136.504183"
"Mixed","Male","done","42","M_done.wav","None","735.44749443","211","379710.85006","386594.050351","387377.502711","388126.945505","388893.822831","389677.337025","375827.732936","376594.542244","380477.577747","381244.395094","382010.880699","382777.540368","383543.781727","384311.212162","385077.540399","385844.156475","388903.488483"
"Mixed","Male","done","42","F_cad.wav","space","686.431945185","211","379710.85006","386594.050351","387377.502711","388126.945505","388893.822831","389677.337025","390427.592633","376594.542244","380477.577747","381244.395094","382010.880699","382777.540368","383543.781727","384311.212162","385077.540399","385844.156475","389686.808517"
"Mixed","Male","done","42","M_knife.wav","None","734.215752105","211","379710.85006","386594.050351","387377.502711","388126.945505","388893.822831","389677.337025","390427.592633","391193.11764","380477.577747","381244.395094","382010.880699","382777.540368","383543.781727","384311.212162","385077.540399","385844.156475","390436.724345"
"Mixed","Male","tile","26","M_gnash.wav","None","735.474392306","211","394327.437831","386594.050351","387377.502711","388126.945505","388893.822831","389677.337025","390427.592633","391193.11764","380477.577747","381244.395094","382010.880699","382777.540368","383543.781727","384311.212162","385077.540399","385844.156475","391202.316751"
"Mixed","Male","tile","26","F_reek.wav","None","721.247213194","211","394327.437831","386594.050351","387377.502711","388126.945505","388893.822831","389677.337025","390427.592633","391193.11764","395093.72773","381244.395094","382010.880699","382777.540368","383543.781727","384311.212162","385077.540399","385844.156475","394337.375863"
"Mixed","Male","tile","26","M_tile.wav","None","722.05879027","211","394327.437831","386594.050351","387377.502711","388126.945505","388893.822831","389677.337025","390427.592633","391193.11764","395093.72773","395860.615568","382010.880699","382777.540368","383543.781727","384311.212162","385077.540399","385844.156475","395103.401729"
"Mixed","Male","tile","26","M_bluff.wav","space","614.778495044","211","394327.437831","386594.050351","387377.502711","388126.945505","388893.822831","389677.337025","390427.592633","391193.11764","395093.72773","395860.615568","396627.326869","382777.540368","383543.781727","384311.212162","385077.540399","385844.156475","395870.373044"
"Mixed","Male","tile","26","F_greet.wav","None","720.297126914","211","394327.437831","386594.050351","387377.502711","388126.945505","388893.822831","389677.337025","390427.592633","391193.11764","395093.72773","395860.615568","396627.326869","397393.903989","383543.781727","384311.212162","385077.540399","385844.156475","396637.216052"
"Mixed","Male","tile","26","M_tile.wav","None","720.374110737","211","394327.437831","386594.050351","387377.502711","388126.945505","388893.822831","389677.337025","390427.592633","391193.11764","395093.72773","395860.615568","396627.326869","397393.903989","398160.13731","384311.212162","385077.540399","385844.156475","397404.061843"
"Mixed","Male","tile","26","F_cad.wav","space","395.984718227","211","394327.437831","386594.050351","387377.502711","388126.945505","388893.822831","389677.337025","390427.592633","391193.11764","395093.72773","395860.615568","396627.326869","397393.903989","398160.13731","398927.180971","385077.540399","385844.156475","398169.043634"
"Mixed","Male","tile","26","F_jaw.wav","None","718.997675925","211","394327.437831","386594.050351","387377.502711","388126.945505","388893.822831","389677.337025","390427.592633","391193.11764","395093.72773","395860.615568","396627.326869","397393.903989","398160.13731","398927.180971","399693.861354","385844.156475","398937.287193"
