"Condition","Talker","Target","Trial","current_stimulus","response_response","response_time_response","subject_nr","time_Audio1","time_Audio10","time_Audio11","time_Audio12","time_Audio13","time_Audio14","time_Audio15","time_Audio16","time_Audio2","time_Audio3","time_Audio4","time_Audio5","time_Audio6","time_Audio7","time_Audio8","time_Audio9","time_response"
"Blocked","Female","done","20","F_gnash.wav","NA","NA","214","624833.526461","NA","NA","NA","NA","NA","NA","NA","NA","NA","NA","NA","NA","NA","NA","NA","NA"
"Blocked","Female","done","20","F_gnash.wav","space","0.0275160854217","214","624833.526461","NA","NA","NA","NA","NA","NA","NA","625600.319929","NA","NA","NA","NA","NA","NA","NA","624848.308472"
"Blocked","Female","done","20","F_romp.wav","None","719.334407593","214","624833.526461","NA","NA","NA","NA","NA","NA","NA","625600.319929","626367.066402","NA","NA","NA","NA","NA","NA","625610.18058"
"Blocked","Female","done","20","F_cling.wav","None","718.888894386","214","624833.526461","NA","NA","NA","NA","NA","NA","NA","625600.319929","626367.066402","627132.913502","NA","NA","NA","NA","NA","626377.255082"
"Blocked","Female","done","20","F_done.wav","None","721.589798894","214","624833.526461","NA","NA","NA","NA","NA","NA","NA","625600.319929","626367.066402","627132.913502","627899.472","NA","NA","NA","NA","627142.113458"
"Blocked","Female","done","20","F_priest.wav","None","722.019544461","214","624833.526461","NA","NA","NA","NA","NA","NA","NA","625600.319929","626367.066402","627132.913502","627899.472","628666.07842","NA","NA","NA","627908.694526"
"Blocked","Female","done","20","F_dime.wav","None","722.088798415","214","624833.526461","NA","NA","NA","NA","NA","NA","NA","625600.319929","626367.066402","627132.913502","627899.472","628666.07842","629433.156942","NA","NA","628675.425232"
"Blocked","Female","done","20","F_done.wav","None","720.492247267","214","624833.526461","NA","NA","NA","NA","NA","NA","NA","625600.319929","626367.066402","627132.913502","627899.472","628666.07842","629433.156942","630182.478624","NA","629443.605942"
"Blocked","Female","done","20","F_cad.wav","None","736.69922015","214","624833.526461","NA","NA","NA","NA","NA","NA","NA","625600.319929","626367.066402","627132.913502","627899.472","628666.07842","629433.156942","630182.478624","630949.505824","630191.215753"
"Blocked","Female","done","20","F_done.wav","None","741.045215414","214","624833.526461","631715.933853","NA","NA","NA","NA","NA","NA","625600.319929","626367.066402","627132.913502","627899.472","628666.07842","629433.156942","630182.478624","630949.505824","630953.58346"
"Blocked","Female","done","20","F_cave.wav","None","733.73181156","214","624833.526461","631715.933853","632483.349987","NA","NA","NA","NA","NA","625600.319929","626367.066402","627132.913502","627899.472","628666.07842","629433.156942","630182.478624","630949.505824","631724.888019"
"Blocked","Female","done","20","F_cling.wav","None","732.315506211","214","624833.526461","631715.933853","632483.349987","633249.939403","NA","NA","NA","NA","625600.319929","626367.066402","627132.913502","627899.472","628666.07842","629433.156942","630182.478624","630949.505824","632493.022354"
"Blocked","Female","done","20","F_done.wav","None","729.433737564","214","624833.526461","631715.933853","632483.349987","633249.939403","634016.68835","NA","NA","NA","625600.319929","626367.066402","627132.913502","627899.472","628666.07842","629433.156942","630182.478624","630949.505824","633259.38824"
"Blocked","Female","done","20","F_ball.wav","space","527.145388798","214","624833.526461","631715.933853","632483.349987","633249.939403","634016.68835","634782.46094","NA","NA","625600.319929","626367.066402","627132.913502","627899.472","628666.07842","629433.156942","630182.478624","630949.505824","634025.595831"
"Blocked","Female","done","20","F_cling.wav","space","289.494545017","214","624833.526461","631715.933853","632483.349987","633249.939403","634016.68835","634782.46094","635549.860997","NA","625600.319929","626367.066402","627132.913502","627899.472","628666.07842","629433.156942","630182.478624","630949.505824","634791.303496"
"Blocked","Female","done","20","F_jaw.wav","space","481.302357846","214","624833.526461","631715.933853","632483.349987","633249.939403","634016.68835","634782.46094","635549.860997","636316.088685","625600.319929","626367.066402","627132.913502","627899.472","628666.07842","629433.156942","630182.478624","630949.505824","635559.468439"
"Blocked","Female","ball","3","F_dime.wav","space","339.49095865","214","639466.996468","631715.933853","632483.349987","633249.939403","634016.68835","634782.46094","635549.860997","636316.088685","625600.319929","626367.066402","627132.913502","627899.472","628666.07842","629433.156942","630182.478624","630949.505824","636325.275965"
"Blocked","Female","ball","3","F_ball.wav","space","284.263088382","214","639466.996468","631715.933853","632483.349987","633249.939403","634016.68835","634782.46094","635549.860997","636316.088685","640216.164493","626367.066402","627132.913502","627899.472","628666.07842","629433.156942","630182.478624","630949.505824","639476.435412"
"Blocked","Female","ball","3","F_cling.wav","space","271.420188517","214","639466.996468","631715.933853","632483.349987","633249.939403","634016.68835","634782.46094","635549.860997","636316.088685","640216.164493","640983.216117","627132.913502","627899.472","628666.07842","629433.156942","630182.478624","630949.505824","640225.201517"
"Blocked","Female","ball","3","F_cave.wav","space","183.760749824","214","639466.996468","631715.933853","632483.349987","633249.939403","634016.68835","634782.46094","635549.860997","636316.088685","640216.164493","640983.216117","641750.039265","627899.472","628666.07842","629433.156942","630182.478624","630949.505824","640992.838708"
"Blocked","Female","ball","3","F_depth.wav","space","177.602403113","214","639466.996468","631715.933853","632483.349987","633249.939403","634016.68835","634782.46094","635549.860997","636316.088685","640216.164493","640983.216117","641750.039265","642516.612294","628666.07842","629433.156942","630182.478624","630949.505824","641758.975499"
"Blocked","Female","ball","3","F_ball.wav","space","186.461035992","214","639466.996468","631715.933853","632483.349987","633249.939403","634016.68835","634782.46094","635549.860997","636316.088685","640216.164493","640983.216117","641750.039265","642516.612294","643282.615833","629433.156942","630182.478624","630949.505824","642526.092048"
"Blocked","Female","ball","3","F_cling.wav","space","245.079567852","214","639466.996468","631715.933853","632483.349987","633249.939403","634016.68835","634782.46094","635549.860997","636316.088685","640216.164493","640983.216117","641750.039265","642516.612294","643282.615833","644050.045572","630182.478624","630949.505824","643291.470447"
"Blocked","Female","ball","3","F_knife.wav","space","172.89220621","214","639466.996468","631715.933853","632483.349987","633249.939403","634016.68835","634782.46094","635549.860997","636316.088685","640216.164493","640983.216117","641750.039265","642516.612294","643282.615833","644050.045572","644816.234303","630949.505824","644059.646211"
"Blocked","Female","ball","3","F_done.wav","space","159.463739365","214","639466.996468","631715.933853","632483.349987","633249.939403","634016.68835","634782.46094","635549.860997","636316.088685","640216.164493","640983.216117","641750.039265","642516.612294","643282.615833","644050.045572","644816.234303","645566.405893","644825.061401"
"Blocked","Female","ball","3","F_depth.wav","space","304.895513087","214","639466.996468","646332.929455","632483.349987","633249.939403","634016.68835","634782.46094","635549.860997","636316.088685","640216.164493","640983.216117","641750.039265","642516.612294","643282.615833","644050.045572","644816.234303","645566.405893","645575.576477"
"Blocked","Female","ball","3","F_done.wav","space","642.494972904","214","639466.996468","646332.929455","647099.481461","633249.939403","634016.68835","634782.46094","635549.860997","636316.088685","640216.164493","640983.216117","641750.039265","642516.612294","643282.615833","644050.045572","644816.234303","645566.405893","646341.947619"
"Blocked","Female","ball","3","F_ball.wav","space","546.977992082","214","639466.996468","646332.929455","647099.481461","647866.483309","634016.68835","634782.46094","635549.860997","636316.088685","640216.164493","640983.216117","641750.039265","642516.612294","643282.615833","644050.045572","644816.234303","645566.405893","647109.446921"
"Blocked","Female","ball","3","F_cling.wav","None","725.288702452","214","639466.996468","646332.929455","647099.481461","647866.483309","648632.647307","634782.46094","635549.860997","636316.088685","640216.164493","640983.216117","641750.039265","642516.612294","643282.615833","644050.045572","644816.234303","645566.405893","647876.526679"
"Blocked","Female","ball","3","F_ball.wav","space","6.41248401371","214","639466.996468","646332.929455","647099.481461","647866.483309","648632.647307","649399.94503","635549.860997","636316.088685","640216.164493","640983.216117","641750.039265","642516.612294","643282.615833","644050.045572","644816.234303","645566.405893","648641.924246"
"Blocked","Female","ball","3","F_jolt.wav","space","174.822351226","214","639466.996468","646332.929455","647099.481461","647866.483309","648632.647307","649399.94503","650166.159113","636316.088685","640216.164493","640983.216117","641750.039265","642516.612294","643282.615833","644050.045572","644816.234303","645566.405893","649409.556181"
"Blocked","Female","ball","3","F_bluff.wav","space","280.084972139","214","639466.996468","646332.929455","647099.481461","647866.483309","648632.647307","649399.94503","650166.159113","650932.679275","640216.164493","640983.216117","641750.039265","642516.612294","643282.615833","644050.045572","644816.234303","645566.405893","650176.245767"
"Blocked","Female","ball","2","F_lash.wav","space","290.671244024","214","654049.3351","646332.929455","647099.481461","647866.483309","648632.647307","649399.94503","650166.159113","650932.679275","640216.164493","640983.216117","641750.039265","642516.612294","643282.615833","644050.045572","644816.234303","645566.405893","650941.636533"
"Blocked","Female","ball","2","F_lash.wav","space","0.0355544907507","214","654049.3351","646332.929455","647099.481461","647866.483309","648632.647307","649399.94503","650166.159113","650932.679275","654816.715062","640983.216117","641750.039265","642516.612294","643282.615833","644050.045572","644816.234303","645566.405893","654059.489771"
"Blocked","Female","ball","2","F_priest.wav","space","0.0349361507688","214","654049.3351","646332.929455","647099.481461","647866.483309","648632.647307","649399.94503","650166.159113","650932.679275","654816.715062","655565.429226","641750.039265","642516.612294","643282.615833","644050.045572","644816.234303","645566.405893","654826.415563"
"Blocked","Female","ball","2","F_ball.wav","space","0.0228785428917","214","654049.3351","646332.929455","647099.481461","647866.483309","648632.647307","649399.94503","650166.159113","650932.679275","654816.715062","655565.429226","656332.14942","642516.612294","643282.615833","644050.045572","644816.234303","645566.405893","655574.560237"
"Blocked","Female","ball","2","F_park.wav","space","0.0355544907507","214","654049.3351","646332.929455","647099.481461","647866.483309","648632.647307","649399.94503","650166.159113","650932.679275","654816.715062","655565.429226","656332.14942","657099.215575","643282.615833","644050.045572","644816.234303","645566.405893","656341.684516"
"Blocked","Female","ball","2","F_ball.wav","space","0.0476120986277","214","654049.3351","646332.929455","647099.481461","647866.483309","648632.647307","649399.94503","650166.159113","650932.679275","654816.715062","655565.429226","656332.14942","657099.215575","657865.803136","644050.045572","644816.234303","645566.405893","657108.679562"
"Blocked","Female","ball","2","F_cave.wav","None","728.976166742","214","654049.3351","646332.929455","647099.481461","647866.483309","648632.647307","649399.94503","650166.159113","650932.679275","654816.715062","655565.429226","656332.14942","657099.215575","657865.803136","658632.1177","644816.234303","645566.405893","657875.331739"
"Blocked","Female","ball","2","F_tile.wav","None","726.704389468","214","654049.3351","646332.929455","647099.481461","647866.483309","648632.647307","649399.94503","650166.159113","650932.679275","654816.715062","655565.429226","656332.14942","657099.215575","657865.803136","658632.1177","659399.130368","645566.405893","658641.08145"
"Blocked","Female","ball","2","F_ball.wav","None","726.126551723","214","654049.3351","646332.929455","647099.481461","647866.483309","648632.647307","649399.94503","650166.159113","650932.679275","654816.715062","655565.429226","656332.14942","657099.215575","657865.803136","658632.1177","659399.130368","660166.105009","659408.528811"
"Blocked","Female","ball","2","F_dime.wav","None","722.641593435","214","654049.3351","660932.921664","647099.481461","647866.483309","648632.647307","649399.94503","650166.159113","650932.679275","654816.715062","655565.429226","656332.14942","657099.215575","657865.803136","658632.1177","659399.130368","660166.105009","660175.940926"
"Blocked","Female","ball","2","F_cave.wav","space","225.400312636","214","654049.3351","660932.921664","661682.043623","647866.483309","648632.647307","649399.94503","650166.159113","650932.679275","654816.715062","655565.429226","656332.14942","657099.215575","657865.803136","658632.1177","659399.130368","660166.105009","660942.574862"
"Blocked","Female","ball","2","F_ball.wav","None","734.50257106","214","654049.3351","660932.921664","661682.043623","662449.046089","648632.647307","649399.94503","650166.159113","650932.679275","654816.715062","655565.429226","656332.14942","657099.215575","657865.803136","658632.1177","659399.130368","660166.105009","661691.53358"
"Blocked","Female","ball","2","F_jaw.wav","space","508.866052944","214","654049.3351","660932.921664","661682.043623","662449.046089","663215.435162","649399.94503","650166.159113","650932.679275","654816.715062","655565.429226","656332.14942","657099.215575","657865.803136","658632.1177","659399.130368","660166.105009","662459.065344"
"Blocked","Female","ball","2","F_dime.wav","None","728.706570968","214","654049.3351","660932.921664","661682.043623","662449.046089","663215.435162","663981.954705","650166.159113","650932.679275","654816.715062","655565.429226","656332.14942","657099.215575","657865.803136","658632.1177","659399.130368","660166.105009","663224.6345"
"Blocked","Female","ball","2","F_priest.wav","None","726.448397145","214","654049.3351","660932.921664","661682.043623","662449.046089","663215.435162","663981.954705","664749.331885","650932.679275","654816.715062","655565.429226","656332.14942","657099.215575","657865.803136","658632.1177","659399.130368","660166.105009","663990.794788"
"Blocked","Female","ball","2","F_priest.wav","None","721.760460438","214","654049.3351","660932.921664","661682.043623","662449.046089","663215.435162","663981.954705","664749.331885","665516.566228","654816.715062","655565.429226","656332.14942","657099.215575","657865.803136","658632.1177","659399.130368","660166.105009","664759.344338"
"Blocked","Female","ball","6","F_priest.wav","None","718.632902062","214","668649.28217","660932.921664","661682.043623","662449.046089","663215.435162","663981.954705","664749.331885","665516.566228","654816.715062","655565.429226","656332.14942","657099.215575","657865.803136","658632.1177","659399.130368","660166.105009","665526.434608"
"Blocked","Female","ball","6","F_dime.wav","None","719.905752783","214","668649.28217","660932.921664","661682.043623","662449.046089","663215.435162","663981.954705","664749.331885","665516.566228","669398.352807","655565.429226","656332.14942","657099.215575","657865.803136","658632.1177","659399.130368","660166.105009","668658.948972"
"Blocked","Female","ball","6","F_romp.wav","None","735.490985855","214","668649.28217","660932.921664","661682.043623","662449.046089","663215.435162","663981.954705","664749.331885","665516.566228","669398.352807","670164.954898","656332.14942","657099.215575","657865.803136","658632.1177","659399.130368","660166.105009","669407.244212"
"Blocked","Female","ball","6","F_ball.wav","None","733.087193214","214","668649.28217","660932.921664","661682.043623","662449.046089","663215.435162","663981.954705","664749.331885","665516.566228","669398.352807","670164.954898","670931.724869","657099.215575","657865.803136","658632.1177","659399.130368","660166.105009","670173.719853"
"Blocked","Female","ball","6","F_park.wav","space","544.448058296","214","668649.28217","660932.921664","661682.043623","662449.046089","663215.435162","663981.954705","664749.331885","665516.566228","669398.352807","670164.954898","670931.724869","671698.24163","657865.803136","658632.1177","659399.130368","660166.105009","670935.272279"
"Blocked","Female","ball","6","F_ball.wav","None","727.552132157","214","668649.28217","660932.921664","661682.043623","662449.046089","663215.435162","663981.954705","664749.331885","665516.566228","669398.352807","670164.954898","670931.724869","671698.24163","672465.618809","658632.1177","659399.130368","660166.105009","671706.858801"
"Blocked","Female","ball","6","F_gnash.wav","space","428.228780467","214","668649.28217","660932.921664","661682.043623","662449.046089","663215.435162","663981.954705","664749.331885","665516.566228","669398.352807","670164.954898","670931.724869","671698.24163","672465.618809","673232.463908","659399.130368","660166.105009","672475.436176"
"Blocked","Female","ball","6","F_jaw.wav","None","719.226507448","214","668649.28217","660932.921664","661682.043623","662449.046089","663215.435162","663981.954705","664749.331885","665516.566228","669398.352807","670164.954898","670931.724869","671698.24163","672465.618809","673232.463908","673981.938319","660166.105009","673242.308791"
"Blocked","Female","ball","6","F_ball.wav","None","733.753762593","214","668649.28217","660932.921664","661682.043623","662449.046089","663215.435162","663981.954705","664749.331885","665516.566228","669398.352807","670164.954898","670931.724869","671698.24163","672465.618809","673232.463908","673981.938319","674748.245772","673991.703128"
"Blocked","Female","ball","6","F_cave.wav","space","490.459648441","214","668649.28217","675515.025018","661682.043623","662449.046089","663215.435162","663981.954705","664749.331885","665516.566228","669398.352807","670164.954898","670931.724869","671698.24163","672465.618809","673232.463908","673981.938319","674748.245772","674757.119555"
"Blocked","Female","ball","6","F_priest.wav","None","728.397092324","214","668649.28217","675515.025018","676281.964104","662449.046089","663215.435162","663981.954705","664749.331885","665516.566228","669398.352807","670164.954898","670931.724869","671698.24163","672465.618809","673232.463908","673981.938319","674748.245772","675524.091104"
"Blocked","Female","ball","6","F_gnash.wav","None","725.535728867","214","668649.28217","675515.025018","676281.964104","677048.825589","663215.435162","663981.954705","664749.331885","665516.566228","669398.352807","670164.954898","670931.724869","671698.24163","672465.618809","673232.463908","673981.938319","674748.245772","676290.835413"
"Blocked","Female","ball","6","F_ball.wav","None","721.074104207","214","668649.28217","675515.025018","676281.964104","677048.825589","677798.98883","663981.954705","664749.331885","665516.566228","669398.352807","670164.954898","670931.724869","671698.24163","672465.618809","673232.463908","673981.938319","674748.245772","677059.17009"
"Blocked","Female","ball","6","F_depth.wav","space","383.416520534","214","668649.28217","675515.025018","676281.964104","677048.825589","677798.98883","678564.743488","664749.331885","665516.566228","669398.352807","670164.954898","670931.724869","671698.24163","672465.618809","673232.463908","673981.938319","674748.245772","677808.028946"
"Blocked","Female","ball","6","F_dime.wav","None","733.266820673","214","668649.28217","675515.025018","676281.964104","677048.825589","677798.98883","678564.743488","679331.982778","665516.566228","669398.352807","670164.954898","670931.724869","671698.24163","672465.618809","673232.463908","673981.938319","674748.245772","678573.963849"
"Blocked","Female","ball","6","F_jaw.wav","None","730.057641558","214","668649.28217","675515.025018","676281.964104","677048.825589","677798.98883","678564.743488","679331.982778","680098.518089","669398.352807","670164.954898","670931.724869","671698.24163","672465.618809","673232.463908","673981.938319","674748.245772","679341.257553"
"Blocked","Female","ball","4","F_depth.wav","None","727.509157601","214","683232.181017","675515.025018","676281.964104","677048.825589","677798.98883","678564.743488","679331.982778","680098.518089","669398.352807","670164.954898","670931.724869","671698.24163","672465.618809","673232.463908","673981.938319","674748.245772","680108.01763"
"Blocked","Female","ball","4","F_park.wav","None","720.106712928","214","683232.181017","675515.025018","676281.964104","677048.825589","677798.98883","678564.743488","679331.982778","680098.518089","683981.452923","670164.954898","670931.724869","671698.24163","672465.618809","673232.463908","673981.938319","674748.245772","683242.211094"
"Blocked","Female","ball","4","F_priest.wav","space","272.30935992","214","683232.181017","675515.025018","676281.964104","677048.825589","677798.98883","678564.743488","679331.982778","680098.518089","683981.452923","684748.38428","670931.724869","671698.24163","672465.618809","673232.463908","673981.938319","674748.245772","683991.026665"
"Blocked","Female","ball","4","F_ball.wav","None","731.970473076","214","683232.181017","675515.025018","676281.964104","677048.825589","677798.98883","678564.743488","679331.982778","680098.518089","683981.452923","684748.38428","685515.30358","671698.24163","672465.618809","673232.463908","673981.938319","674748.245772","684757.836519"
"Blocked","Female","ball","4","F_park.wav","space","394.314744415","214","683232.181017","675515.025018","676281.964104","677048.825589","677798.98883","678564.743488","679331.982778","680098.518089","683981.452923","684748.38428","685515.30358","686281.666992","672465.618809","673232.463908","673981.938319","674748.245772","685524.9373"
"Blocked","Female","ball","4","F_jaw.wav","None","725.925591563","214","683232.181017","675515.025018","676281.964104","677048.825589","677798.98883","678564.743488","679331.982778","680098.518089","683981.452923","684748.38428","685515.30358","686281.666992","687048.636686","673232.463908","673981.938319","674748.245772","686290.936511"
"Blocked","Female","ball","4","F_ball.wav","None","722.56955695","214","683232.181017","675515.025018","676281.964104","677048.825589","677798.98883","678564.743488","679331.982778","680098.518089","683981.452923","684748.38428","685515.30358","686281.666992","687048.636686","687814.708861","673981.938319","674748.245772","687058.365322"
"Blocked","Female","ball","4","F_done.wav","space","455.524425619","214","683232.181017","675515.025018","676281.964104","677048.825589","677798.98883","678564.743488","679331.982778","680098.518089","683981.452923","684748.38428","685515.30358","686281.666992","687048.636686","687814.708861","688564.742252","674748.245772","687823.683742"
"Blocked","Female","ball","4","F_jolt.wav","None","733.722845645","214","683232.181017","675515.025018","676281.964104","677048.825589","677798.98883","678564.743488","679331.982778","680098.518089","683981.452923","684748.38428","685515.30358","686281.666992","687048.636686","687814.708861","688564.742252","689331.485943","688574.29126"
"Blocked","Female","ball","4","F_depth.wav","None","730.996589242","214","683232.181017","690098.19377","676281.964104","677048.825589","677798.98883","678564.743488","679331.982778","680098.518089","683981.452923","684748.38428","685515.30358","686281.666992","687048.636686","687814.708861","688564.742252","689331.485943","689340.712178"
"Blocked","Female","ball","4","F_ball.wav","None","728.190567119","214","683232.181017","690098.19377","690864.727535","677048.825589","677798.98883","678564.743488","679331.982778","680098.518089","683981.452923","684748.38428","685515.30358","686281.666992","687048.636686","687814.708861","688564.742252","689331.485943","690107.612309"
"Blocked","Female","ball","4","F_cling.wav","space","372.896101741","214","683232.181017","690098.19377","690864.727535","691631.951057","677798.98883","678564.743488","679331.982778","680098.518089","683981.452923","684748.38428","685515.30358","686281.666992","687048.636686","687814.708861","688564.742252","689331.485943","690874.231096"
"Blocked","Female","ball","4","F_jaw.wav","None","721.738200234","214","683232.181017","690098.19377","690864.727535","691631.951057","692397.972528","678564.743488","679331.982778","680098.518089","683981.452923","684748.38428","685515.30358","686281.666992","687048.636686","687814.708861","688564.742252","689331.485943","691641.681239"
"Blocked","Female","ball","4","F_ball.wav","None","720.697535799","214","683232.181017","690098.19377","690864.727535","691631.951057","692397.972528","693148.110418","679331.982778","680098.518089","683981.452923","684748.38428","685515.30358","686281.666992","687048.636686","687814.708861","688564.742252","689331.485943","692406.80921"
"Blocked","Female","ball","4","F_park.wav","space","649.475092068","214","683232.181017","690098.19377","690864.727535","691631.951057","692397.972528","693148.110418","693915.099899","680098.518089","683981.452923","684748.38428","685515.30358","686281.666992","687048.636686","687814.708861","688564.742252","689331.485943","693157.569767"
"Blocked","Female","ball","4","F_jaw.wav","None","730.865501391","214","683232.181017","690098.19377","690864.727535","691631.951057","692397.972528","693148.110418","693915.099899","694681.388802","683981.452923","684748.38428","685515.30358","686281.666992","687048.636686","687814.708861","688564.742252","689331.485943","693924.55863"
"Blocked","Female","cave","11","F_bluff.wav","None","728.614438456","214","697814.952178","690098.19377","690864.727535","691631.951057","692397.972528","693148.110418","693915.099899","694681.388802","683981.452923","684748.38428","685515.30358","686281.666992","687048.636686","687814.708861","688564.742252","689331.485943","694690.930699"
"Blocked","Female","cave","11","F_greet.wav","None","720.471842076","214","697814.952178","690098.19377","690864.727535","691631.951057","692397.972528","693148.110418","693915.099899","694681.388802","698581.858183","684748.38428","685515.30358","686281.666992","687048.636686","687814.708861","688564.742252","689331.485943","697824.476452"
"Blocked","Female","cave","11","F_tile.wav","None","720.237491623","214","697814.952178","690098.19377","690864.727535","691631.951057","692397.972528","693148.110418","693915.099899","694681.388802","698581.858183","699330.767433","685515.30358","686281.666992","687048.636686","687814.708861","688564.742252","689331.485943","698591.30702"
"Blocked","Female","cave","11","F_priest.wav","None","735.48171077","214","697814.952178","690098.19377","690864.727535","691631.951057","692397.972528","693148.110418","693915.099899","694681.388802","698581.858183","699330.767433","700097.917991","686281.666992","687048.636686","687814.708861","688564.742252","689331.485943","699340.030459"
"Blocked","Female","cave","11","F_cave.wav","None","732.103415947","214","697814.952178","690098.19377","690864.727535","691631.951057","692397.972528","693148.110418","693915.099899","694681.388802","698581.858183","699330.767433","700097.917991","700864.518227","687048.636686","687814.708861","688564.742252","689331.485943","700107.469163"
"Blocked","Female","cave","11","F_knife.wav","space","628.80680371","214","697814.952178","690098.19377","690864.727535","691631.951057","692397.972528","693148.110418","693915.099899","694681.388802","698581.858183","699330.767433","700097.917991","700864.518227","701631.228219","687814.708861","688564.742252","689331.485943","700874.032609"
"Blocked","Female","cave","11","F_cave.wav","None","727.176800414","214","697814.952178","690098.19377","690864.727535","691631.951057","692397.972528","693148.110418","693915.099899","694681.388802","698581.858183","699330.767433","700097.917991","700864.518227","701631.228219","702397.407985","688564.742252","689331.485943","701640.438068"
"Blocked","Female","cave","11","F_ball.wav","None","725.429374565","214","697814.952178","690098.19377","690864.727535","691631.951057","692397.972528","693148.110418","693915.099899","694681.388802","698581.858183","699330.767433","700097.917991","700864.518227","701631.228219","702397.407985","703164.363148","689331.485943","702406.245904"
"Blocked","Female","cave","11","F_dime.wav","None","722.21834043","214","697814.952178","690098.19377","690864.727535","691631.951057","692397.972528","693148.110418","693915.099899","694681.388802","698581.858183","699330.767433","700097.917991","700864.518227","701631.228219","702397.407985","703164.363148","703931.066956","703173.543008"
"Blocked","Female","cave","11","F_ball.wav","None","720.026638039","214","697814.952178","704681.005741","690864.727535","691631.951057","692397.972528","693148.110418","693915.099899","694681.388802","698581.858183","699330.767433","700097.917991","700864.518227","701631.228219","702397.407985","703164.363148","703931.066956","703940.133042"
"Blocked","Female","cave","11","F_depth.wav","None","733.510446218","214","697814.952178","704681.005741","705447.834453","691631.951057","692397.972528","693148.110418","693915.099899","694681.388802","698581.858183","699330.767433","700097.917991","700864.518227","701631.228219","702397.407985","703164.363148","703931.066956","704690.85217"
"Blocked","Female","cave","11","F_cave.wav","None","731.093668459","214","697814.952178","704681.005741","705447.834453","706214.236203","692397.972528","693148.110418","693915.099899","694681.388802","698581.858183","699330.767433","700097.917991","700864.518227","701631.228219","702397.407985","703164.363148","703931.066956","705457.22393"
"Blocked","Female","cave","11","F_cling.wav","space","430.608148716","214","697814.952178","704681.005741","705447.834453","706214.236203","706981.162304","693148.110418","693915.099899","694681.388802","698581.858183","699330.767433","700097.917991","700864.518227","701631.228219","702397.407985","703164.363148","703931.066956","706224.01276"
"Blocked","Female","cave","11","F_lash.wav","None","725.707317914","214","697814.952178","704681.005741","705447.834453","706214.236203","706981.162304","707748.042339","693915.099899","694681.388802","698581.858183","699330.767433","700097.917991","700864.518227","701631.228219","702397.407985","703164.363148","703931.066956","706990.186961"
"Blocked","Female","cave","11","F_cave.wav","None","722.204736972","214","697814.952178","704681.005741","705447.834453","706214.236203","706981.162304","707748.042339","708514.631754","694681.388802","698581.858183","699330.767433","700097.917991","700864.518227","701631.228219","702397.407985","703164.363148","703931.066956","707757.82848"
"Blocked","Female","cave","11","F_park.wav","space","522.122621565","214","697814.952178","704681.005741","705447.834453","706214.236203","706981.162304","707748.042339","708514.631754","709263.685387","698581.858183","699330.767433","700097.917991","700864.518227","701631.228219","702397.407985","703164.363148","703931.066956","708524.467363"
"Blocked","Female","done","22","F_lash.wav","None","734.978382869","214","712397.906985","704681.005741","705447.834453","706214.236203","706981.162304","707748.042339","708514.631754","709263.685387","698581.858183","699330.767433","700097.917991","700864.518227","701631.228219","702397.407985","703164.363148","703931.066956","709272.617911"
"Blocked","Female","done","22","F_jolt.wav","None","719.592564106","214","712397.906985","704681.005741","705447.834453","706214.236203","706981.162304","707748.042339","708514.631754","709263.685387","713147.338731","699330.767433","700097.917991","700864.518227","701631.228219","702397.407985","703164.363148","703931.066956","712408.027338"
"Blocked","Female","done","22","F_jaw.wav","None","734.970653633","214","712397.906985","704681.005741","705447.834453","706214.236203","706981.162304","707748.042339","708514.631754","709263.685387","713147.338731","713914.039138","700097.917991","700864.518227","701631.228219","702397.407985","703164.363148","703931.066956","713156.747686"
"Blocked","Female","done","22","F_priest.wav","None","732.549856664","214","712397.906985","704681.005741","705447.834453","706214.236203","706981.162304","707748.042339","708514.631754","709263.685387","713147.338731","713914.039138","714680.88331","700864.518227","701631.228219","702397.407985","703164.363148","703931.066956","713923.603914"
"Blocked","Female","done","22","F_done.wav","None","730.158739978","214","712397.906985","704681.005741","705447.834453","706214.236203","706981.162304","707748.042339","708514.631754","709263.685387","713147.338731","713914.039138","714680.88331","715447.445518","701631.228219","702397.407985","703164.363148","703931.066956","714690.182509"
"Blocked","Female","done","22","F_depth.wav","space","397.940683986","214","712397.906985","704681.005741","705447.834453","706214.236203","706981.162304","707748.042339","708514.631754","709263.685387","713147.338731","713914.039138","714680.88331","715447.445518","716214.779105","702397.407985","703164.363148","703931.066956","715456.446678"
"Blocked","Female","done","22","F_reek.wav","None","723.520871412","214","712397.906985","704681.005741","705447.834453","706214.236203","706981.162304","707748.042339","708514.631754","709263.685387","713147.338731","713914.039138","714680.88331","715447.445518","716214.779105","716980.837985","703164.363148","703931.066956","716224.62708"
"Blocked","Female","done","22","F_jolt.wav","None","724.971803742","214","712397.906985","704681.005741","705447.834453","706214.236203","706981.162304","707748.042339","708514.631754","709263.685387","713147.338731","713914.039138","714680.88331","715447.445518","716214.779105","716980.837985","717747.736879","703931.066956","716990.412655"
"Blocked","Female","done","22","F_lash.wav","None","722.219886273","214","712397.906985","704681.005741","705447.834453","706214.236203","706981.162304","707748.042339","708514.631754","709263.685387","713147.338731","713914.039138","714680.88331","715447.445518","716214.779105","716980.837985","717747.736879","718513.515034","717757.36318"
"Blocked","Female","done","22","F_cling.wav","None","721.343390818","214","712397.906985","719263.761442","705447.834453","706214.236203","706981.162304","707748.042339","708514.631754","709263.685387","713147.338731","713914.039138","714680.88331","715447.445518","716214.779105","716980.837985","717747.736879","718513.515034","718522.580811"
"Blocked","Female","done","22","F_done.wav","None","734.843584985","214","712397.906985","719263.761442","720030.691253","706214.236203","706981.162304","707748.042339","708514.631754","709263.685387","713147.338731","713914.039138","714680.88331","715447.445518","716214.779105","716980.837985","717747.736879","718513.515034","719273.301176"
"Blocked","Female","done","22","F_reek.wav","space","413.991526286","214","712397.906985","719263.761442","720030.691253","720797.284379","706981.162304","707748.042339","708514.631754","709263.685387","713147.338731","713914.039138","714680.88331","715447.445518","716214.779105","716980.837985","717747.736879","718513.515034","720040.27427"
"Blocked","Female","done","22","F_done.wav","None","729.287191229","214","712397.906985","719263.761442","720030.691253","720797.284379","721563.718901","707748.042339","708514.631754","709263.685387","713147.338731","713914.039138","714680.88331","715447.445518","716214.779105","716980.837985","717747.736879","718513.515034","720806.670146"
"Blocked","Female","done","22","F_jolt.wav","None","727.090542132","214","712397.906985","719263.761442","720030.691253","720797.284379","721563.718901","722330.575439","708514.631754","709263.685387","713147.338731","713914.039138","714680.88331","715447.445518","716214.779105","716980.837985","717747.736879","718513.515034","721573.074987"
"Blocked","Female","done","22","F_done.wav","space","0.0349361507688","214","712397.906985","719263.761442","720030.691253","720797.284379","721563.718901","722330.575439","723097.622116","709263.685387","713147.338731","713914.039138","714680.88331","715447.445518","716214.779105","716980.837985","717747.736879","718513.515034","722339.689136"
"Blocked","Female","done","22","F_bluff.wav","space","562.766349503","214","712397.906985","719263.761442","720030.691253","720797.284379","721563.718901","722330.575439","723097.622116","723847.056026","713147.338731","713914.039138","714680.88331","715447.445518","716214.779105","716980.837985","717747.736879","718513.515034","723107.363118"
"Blocked","Female","cave","8","F_tile.wav","None","735.130185079","214","726980.845715","719263.761442","720030.691253","720797.284379","721563.718901","722330.575439","723097.622116","723847.056026","713147.338731","713914.039138","714680.88331","715447.445518","716214.779105","716980.837985","717747.736879","718513.515034","723856.339458"
"Blocked","Female","cave","8","F_knife.wav","None","720.069921772","214","726980.845715","719263.761442","720030.691253","720797.284379","721563.718901","722330.575439","723097.622116","723847.056026","727730.193985","713914.039138","714680.88331","715447.445518","716214.779105","716980.837985","717747.736879","718513.515034","726990.608359"
"Blocked","Female","cave","8","F_park.wav","None","735.424823586","214","726980.845715","719263.761442","720030.691253","720797.284379","721563.718901","722330.575439","723097.622116","723847.056026","727730.193985","728497.034137","714680.88331","715447.445518","716214.779105","716980.837985","717747.736879","718513.515034","727739.47649"
"Blocked","Female","cave","8","F_cave.wav","None","732.26387491","214","726980.845715","719263.761442","720030.691253","720797.284379","721563.718901","722330.575439","723097.622116","723847.056026","727730.193985","728497.034137","729264.019908","715447.445518","716214.779105","716980.837985","717747.736879","718513.515034","728506.580054"
"Blocked","Female","cave","8","F_ball.wav","space","532.303881439","214","726980.845715","719263.761442","720030.691253","720797.284379","721563.718901","722330.575439","723097.622116","723847.056026","727730.193985","728497.034137","729264.019908","730029.979236","716214.779105","716980.837985","717747.736879","718513.515034","729273.572626"
"Blocked","Female","cave","8","F_cave.wav","space","0.0244243929628","214","726980.845715","719263.761442","720030.691253","720797.284379","721563.718901","722330.575439","723097.622116","723847.056026","727730.193985","728497.034137","729264.019908","730029.979236","730797.341266","716980.837985","717747.736879","718513.515034","730039.071292"
"Blocked","Female","cave","8","F_gnash.wav","space","590.778958664","214","726980.845715","719263.761442","720030.691253","720797.284379","721563.718901","722330.575439","723097.622116","723847.056026","727730.193985","728497.034137","729264.019908","730029.979236","730797.341266","731563.353771","717747.736879","718513.515034","730807.124007"
"Blocked","Female","cave","8","F_cling.wav","None","720.776374008","214","726980.845715","719263.761442","720030.691253","720797.284379","721563.718901","722330.575439","723097.622116","723847.056026","727730.193985","728497.034137","729264.019908","730029.979236","730797.341266","731563.353771","732313.64841","718513.515034","731572.252906"
"Blocked","Female","cave","8","F_cave.wav","None","734.6144904","214","726980.845715","719263.761442","720030.691253","720797.284379","721563.718901","722330.575439","723097.622116","723847.056026","727730.193985","728497.034137","729264.019908","730029.979236","730797.341266","731563.353771","732313.64841","733080.313263","732322.743248"
"Blocked","Female","cave","8","F_done.wav","None","732.104034287","214","726980.845715","733846.910717","720030.691253","720797.284379","721563.718901","722330.575439","723097.622116","723847.056026","727730.193985","728497.034137","729264.019908","730029.979236","730797.341266","731563.353771","732313.64841","733080.313263","733089.543827"
"Blocked","Female","cave","8","F_jolt.wav","space","469.559173798","214","726980.845715","733846.910717","734612.937444","720797.284379","721563.718901","722330.575439","723097.622116","723847.056026","727730.193985","728497.034137","729264.019908","730029.979236","730797.341266","731563.353771","732313.64841","733080.313263","733856.284426"
"Blocked","Female","cave","8","F_cave.wav","None","727.478549823","214","726980.845715","733846.910717","734612.937444","735380.523003","721563.718901","722330.575439","723097.622116","723847.056026","727730.193985","728497.034137","729264.019908","730029.979236","730797.341266","731563.353771","732313.64841","733080.313263","734621.93644"
"Blocked","Female","cave","8","F_romp.wav","space","711.349796817","214","726980.845715","733846.910717","734612.937444","735380.523003","736147.20146","722330.575439","723097.622116","723847.056026","727730.193985","728497.034137","729264.019908","730029.979236","730797.341266","731563.353771","732313.64841","733080.313263","735390.433122"
"Blocked","Female","cave","8","F_depth.wav","None","720.337662533","214","726980.845715","733846.910717","734612.937444","735380.523003","736147.20146","736896.330839","723097.622116","723847.056026","727730.193985","728497.034137","729264.019908","730029.979236","730797.341266","731563.353771","732313.64841","733080.313263","736156.970906"
"Blocked","Female","cave","8","F_romp.wav","None","736.057384325","214","726980.845715","733846.910717","734612.937444","735380.523003","736147.20146","736896.330839","737663.223858","723847.056026","727730.193985","728497.034137","729264.019908","730029.979236","730797.341266","731563.353771","732313.64841","733080.313263","736905.373427"
"Blocked","Female","cave","8","F_ball.wav","None","733.259091438","214","726980.845715","733846.910717","734612.937444","735380.523003","736147.20146","736896.330839","737663.223858","738430.124917","727730.193985","728497.034137","729264.019908","730029.979236","730797.341266","731563.353771","732313.64841","733080.313263","737672.496778"
"Blocked","Female","tile","13","F_knife.wav","None","730.955469706","214","741563.594615","733846.910717","734612.937444","735380.523003","736147.20146","736896.330839","737663.223858","738430.124917","727730.193985","728497.034137","729264.019908","730029.979236","730797.341266","731563.353771","732313.64841","733080.313263","738439.156066"
"Blocked","Female","tile","13","F_depth.wav","None","719.833097952","214","741563.594615","733846.910717","734612.937444","735380.523003","736147.20146","736896.330839","737663.223858","738430.124917","742313.334603","728497.034137","729264.019908","730029.979236","730797.341266","731563.353771","732313.64841","733080.313263","741573.692399"
"Blocked","Female","tile","13","F_gnash.wav","None","735.229737649","214","741563.594615","733846.910717","734612.937444","735380.523003","736147.20146","736896.330839","737663.223858","738430.124917","742313.334603","743079.94597","729264.019908","730029.979236","730797.341266","731563.353771","732313.64841","733080.313263","742322.785605"
"Blocked","Female","tile","13","F_tile.wav","None","733.314432771","214","741563.594615","733846.910717","734612.937444","735380.523003","736147.20146","736896.330839","737663.223858","738430.124917","742313.334603","743079.94597","743846.600001","730029.979236","730797.341266","731563.353771","732313.64841","733080.313263","743089.141288"
"Blocked","Female","tile","13","F_cave.wav","space","453.477723728","214","741563.594615","733846.910717","734612.937444","735380.523003","736147.20146","736896.330839","737663.223858","738430.124917","742313.334603","743079.94597","743846.600001","744612.797081","730797.341266","731563.353771","732313.64841","733080.313263","743856.065534"
"Blocked","Female","tile","13","F_tile.wav","None","728.337113447","214","741563.594615","733846.910717","734612.937444","735380.523003","736147.20146","736896.330839","737663.223858","738430.124917","742313.334603","743079.94597","743846.600001","744612.797081","745379.785634","731563.353771","732313.64841","733080.313263","744622.01095"
"Blocked","Female","tile","13","F_reek.wav","space","488.109960446","214","741563.594615","733846.910717","734612.937444","735380.523003","736147.20146","736896.330839","737663.223858","738430.124917","742313.334603","743079.94597","743846.600001","744612.797081","745379.785634","746146.882706","732313.64841","733080.313263","745389.36927"
"Blocked","Female","tile","13","F_bluff.wav","None","721.936377864","214","741563.594615","733846.910717","734612.937444","735380.523003","736147.20146","736896.330839","737663.223858","738430.124917","742313.334603","743079.94597","743846.600001","744612.797081","745379.785634","746146.882706","746913.504584","733080.313263","746156.594956"
"Blocked","Female","tile","13","F_priest.wav","None","719.674494016","214","741563.594615","733846.910717","734612.937444","735380.523003","736147.20146","736896.330839","737663.223858","738430.124917","742313.334603","743079.94597","743846.600001","744612.797081","745379.785634","746146.882706","746913.504584","747662.927674","746923.372346"
"Blocked","Female","tile","13","F_cave.wav","None","734.978692046","214","741563.594615","748429.844809","734612.937444","735380.523003","736147.20146","736896.330839","737663.223858","738430.124917","742313.334603","743079.94597","743846.600001","744612.797081","745379.785634","746146.882706","746913.504584","747662.927674","747672.166585"
"Blocked","Female","tile","13","F_cling.wav","None","733.083483174","214","741563.594615","748429.844809","749196.009117","735380.523003","736147.20146","736896.330839","737663.223858","738430.124917","742313.334603","743079.94597","743846.600001","744612.797081","745379.785634","746146.882706","746913.504584","747662.927674","748438.677163"
"Blocked","Female","tile","13","F_cling.wav","None","731.102943544","214","741563.594615","748429.844809","749196.009117","749962.594822","736147.20146","736896.330839","737663.223858","738430.124917","742313.334603","743079.94597","743846.600001","744612.797081","745379.785634","746146.882706","746913.504584","747662.927674","749204.894957"
"Blocked","Female","tile","13","F_tile.wav","None","729.349643465","214","741563.594615","748429.844809","749196.009117","749962.594822","750729.273279","736896.330839","737663.223858","738430.124917","742313.334603","743079.94597","743846.600001","744612.797081","745379.785634","746146.882706","746913.504584","747662.927674","749971.370598"
"Blocked","Female","tile","13","F_knife.wav","space","395.254928779","214","741563.594615","748429.844809","749196.009117","749962.594822","750729.273279","751496.090552","737663.223858","738430.124917","742313.334603","743079.94597","743846.600001","744612.797081","745379.785634","746146.882706","746913.504584","747662.927674","750738.076261"
"Blocked","Female","tile","13","F_tile.wav","None","723.499538719","214","741563.594615","748429.844809","749196.009117","749962.594822","750729.273279","751496.090552","752263.865632","738430.124917","742313.334603","743079.94597","743846.600001","744612.797081","745379.785634","746146.882706","746913.504584","747662.927674","751505.259591"
"Blocked","Female","tile","13","F_bluff.wav","None","719.619152682","214","741563.594615","748429.844809","749196.009117","749962.594822","750729.273279","751496.090552","752263.865632","753012.781375","742313.334603","743079.94597","743846.600001","744612.797081","745379.785634","746146.882706","746913.504584","747662.927674","752273.491933"
"Blocked","Female","cave","9","F_done.wav","space","79.4747952677","214","756146.551895","748429.844809","749196.009117","749962.594822","750729.273279","751496.090552","752263.865632","753012.781375","742313.334603","743079.94597","743846.600001","744612.797081","745379.785634","746146.882706","746913.504584","747662.927674","753021.789337"
"Blocked","Female","cave","9","F_cave.wav","None","720.54944362","214","756146.551895","748429.844809","749196.009117","749962.594822","750729.273279","751496.090552","752263.865632","753012.781375","756913.107302","743079.94597","743846.600001","744612.797081","745379.785634","746146.882706","746913.504584","747662.927674","756156.713059"
"Blocked","Female","cave","9","F_greet.wav","None","719.033894871","214","756146.551895","748429.844809","749196.009117","749962.594822","750729.273279","751496.090552","752263.865632","753012.781375","756913.107302","757662.576148","743846.600001","744612.797081","745379.785634","746146.882706","746913.504584","747662.927674","756922.725873"
"Blocked","Female","cave","9","F_cave.wav","space","125.146546328","214","756146.551895","748429.844809","749196.009117","749962.594822","750729.273279","751496.090552","752263.865632","753012.781375","756913.107302","757662.576148","758429.172057","744612.797081","745379.785634","746146.882706","746913.504584","747662.927674","757671.961915"
"Blocked","Female","cave","9","F_reek.wav","space","582.871331084","214","756146.551895","748429.844809","749196.009117","749962.594822","750729.273279","751496.090552","752263.865632","753012.781375","756913.107302","757662.576148","758429.172057","759196.157827","745379.785634","746146.882706","746913.504584","747662.927674","758438.202897"
"Blocked","Female","cave","9","F_done.wav","None","728.052677536","214","756146.551895","748429.844809","749196.009117","749962.594822","750729.273279","751496.090552","752263.865632","753012.781375","756913.107302","757662.576148","758429.172057","759196.157827","759962.316261","746146.882706","746913.504584","747662.927674","759205.362421"
"Blocked","Female","cave","9","F_cave.wav","None","726.091924735","214","756146.551895","748429.844809","749196.009117","749962.594822","750729.273279","751496.090552","752263.865632","753012.781375","756913.107302","757662.576148","758429.172057","759196.157827","759962.316261","760729.787427","746913.504584","747662.927674","759971.33999"
"Blocked","Female","cave","9","F_jolt.wav","space","569.55292858","214","756146.551895","748429.844809","749196.009117","749962.594822","750729.273279","751496.090552","752263.865632","753012.781375","756913.107302","757662.576148","758429.172057","759196.157827","759962.316261","760729.787427","761495.551979","747662.927674","760739.439698"
"Blocked","Female","cave","9","F_greet.wav","None","723.288066802","214","756146.551895","748429.844809","749196.009117","749962.594822","750729.273279","751496.090552","752263.865632","753012.781375","756913.107302","757662.576148","758429.172057","759196.157827","759962.316261","760729.787427","761495.551979","762263.024692","761504.327445"
"Blocked","Female","cave","9","F_greet.wav","None","719.267626991","214","756146.551895","763012.756332","749196.009117","749962.594822","750729.273279","751496.090552","752263.865632","753012.781375","756913.107302","757662.576148","758429.172057","759196.157827","759962.316261","760729.787427","761495.551979","762263.024692","762272.794756"
"Blocked","Female","cave","9","F_cave.wav","None","734.506899426","214","756146.551895","763012.756332","763779.41191","749962.594822","750729.273279","751496.090552","752263.865632","753012.781375","756913.107302","757662.576148","758429.172057","759196.157827","759962.316261","760729.787427","761495.551979","762263.024692","763022.046875"
"Blocked","Female","cave","9","F_tile.wav","space","536.556507519","214","756146.551895","763012.756332","763779.41191","764545.544373","750729.273279","751496.090552","752263.865632","753012.781375","756913.107302","757662.576148","758429.172057","759196.157827","759962.316261","760729.787427","761495.551979","762263.024692","763788.367622"
"Blocked","Female","cave","9","F_lash.wav","None","729.311615614","214","756146.551895","763012.756332","763779.41191","764545.544373","765312.484387","751496.090552","752263.865632","753012.781375","756913.107302","757662.576148","758429.172057","759196.157827","759962.316261","760729.787427","761495.551979","762263.024692","764554.710939"
"Blocked","Female","cave","9","F_greet.wav","None","726.98604285","214","756146.551895","763012.756332","763779.41191","764545.544373","765312.484387","766079.83405","752263.865632","753012.781375","756913.107302","757662.576148","758429.172057","759196.157827","759962.316261","760729.787427","761495.551979","762263.024692","765321.430515"
"Blocked","Female","cave","9","F_tile.wav","None","723.680712035","214","756146.551895","763012.756332","763779.41191","764545.544373","765312.484387","766079.83405","766846.10904","753012.781375","756913.107302","757662.576148","758429.172057","759196.157827","759962.316261","760729.787427","761495.551979","762263.024692","766089.415521"
"Blocked","Female","cave","9","F_ball.wav","None","721.354520923","214","756146.551895","763012.756332","763779.41191","764545.544373","765312.484387","766079.83405","766846.10904","767612.71546","756913.107302","757662.576148","758429.172057","759196.157827","759962.316261","760729.787427","761495.551979","762263.024692","766856.308232"
"Blocked","Female","tile","15","F_greet.wav","None","719.17889535","214","770729.572245","763012.756332","763779.41191","764545.544373","765312.484387","766079.83405","766846.10904","767612.71546","756913.107302","757662.576148","758429.172057","759196.157827","759962.316261","760729.787427","761495.551979","762263.024692","767622.684011"
"Blocked","Female","tile","15","F_done.wav","None","721.322676465","214","770729.572245","763012.756332","763779.41191","764545.544373","765312.484387","766079.83405","766846.10904","767612.71546","771496.19567","757662.576148","758429.172057","759196.157827","759962.316261","760729.787427","761495.551979","762263.024692","770739.281094"
"Blocked","Female","tile","15","F_jaw.wav","None","718.634138742","214","770729.572245","763012.756332","763779.41191","764545.544373","765312.484387","766079.83405","766846.10904","767612.71546","771496.19567","772245.602992","758429.172057","759196.157827","759962.316261","760729.787427","761495.551979","762263.024692","771506.189882"
"Blocked","Female","tile","15","F_depth.wav","None","734.561313249","214","770729.572245","763012.756332","763779.41191","764545.544373","765312.484387","766079.83405","766846.10904","767612.71546","771496.19567","772245.602992","773012.721087","759196.157827","759962.316261","760729.787427","761495.551979","762263.024692","772254.899099"
"Blocked","Female","tile","15","F_ball.wav","None","732.031688633","214","770729.572245","763012.756332","763779.41191","764545.544373","765312.484387","766079.83405","766846.10904","767612.71546","771496.19567","772245.602992","773012.721087","773779.080171","759962.316261","760729.787427","761495.551979","762263.024692","773022.113346"
"Blocked","Female","tile","15","F_tile.wav","None","730.631460094","214","770729.572245","763012.756332","763779.41191","764545.544373","765312.484387","766079.83405","766846.10904","767612.71546","771496.19567","772245.602992","773012.721087","773779.080171","774545.674534","760729.787427","761495.551979","762263.024692","773788.147184"
"Blocked","Female","tile","15","F_reek.wav","space","433.469203017","214","770729.572245","763012.756332","763779.41191","764545.544373","765312.484387","766079.83405","766846.10904","767612.71546","771496.19567","772245.602992","773012.721087","773779.080171","774545.674534","775311.933756","761495.551979","762263.024692","774555.114714"
"Blocked","Female","tile","15","F_tile.wav","None","726.151594448","214","770729.572245","763012.756332","763779.41191","764545.544373","765312.484387","766079.83405","766846.10904","767612.71546","771496.19567","772245.602992","773012.721087","773779.080171","774545.674534","775311.933756","776078.912107","762263.024692","775320.716642"
"Blocked","Female","tile","15","F_cave.wav","space","716.542607261","214","770729.572245","763012.756332","763779.41191","764545.544373","765312.484387","766079.83405","766846.10904","767612.71546","771496.19567","772245.602992","773012.721087","773779.080171","774545.674534","775311.933756","776078.912107","776845.92292","776087.993651"
"Blocked","Female","tile","15","F_lash.wav","None","719.17673116","214","770729.572245","777595.490392","763779.41191","764545.544373","765312.484387","766079.83405","766846.10904","767612.71546","771496.19567","772245.602992","773012.721087","773779.080171","774545.674534","775311.933756","776078.912107","776845.92292","776855.631151"
"Blocked","Female","tile","15","F_bluff.wav","None","735.197274858","214","770729.572245","777595.490392","778361.993549","764545.544373","765312.484387","766079.83405","766846.10904","767612.71546","771496.19567","772245.602992","773012.721087","773779.080171","774545.674534","775311.933756","776078.912107","776845.92292","777604.789901"
"Blocked","Female","tile","15","F_tile.wav","None","733.114090959","214","770729.572245","777595.490392","778361.993549","779128.89399","765312.484387","766079.83405","766846.10904","767612.71546","771496.19567","772245.602992","773012.721087","773779.080171","774545.674534","775311.933756","776078.912107","776845.92292","778371.367877"
"Blocked","Female","tile","15","F_cling.wav","space","426.406535596","214","770729.572245","777595.490392","778361.993549","779128.89399","779895.528235","766079.83405","766846.10904","767612.71546","771496.19567","772245.602992","773012.721087","773779.080171","774545.674534","775311.933756","776078.912107","776845.92292","779138.044788"
"Blocked","Female","tile","15","F_tile.wav","None","727.877069272","214","770729.572245","777595.490392","778361.993549","779128.89399","779895.528235","780661.872479","766846.10904","767612.71546","771496.19567","772245.602992","773012.721087","773779.080171","774545.674534","775311.933756","776078.912107","776845.92292","779905.007061"
"Blocked","Female","tile","15","F_jolt.wav","space","541.554232033","214","770729.572245","777595.490392","778361.993549","779128.89399","779895.528235","780661.872479","781429.190298","767612.71546","771496.19567","772245.602992","773012.721087","773779.080171","774545.674534","775311.933756","776078.912107","776845.92292","780670.865909"
"Blocked","Female","tile","15","F_cave.wav","None","722.285430202","214","770729.572245","777595.490392","778361.993549","779128.89399","779895.528235","780661.872479","781429.190298","782195.789297","771496.19567","772245.602992","773012.721087","773779.080171","774545.674534","775311.933756","776078.912107","776845.92292","781439.006119"
"Blocked","Female","cave","12","F_romp.wav","None","720.659817118","214","785311.80947","777595.490392","778361.993549","779128.89399","779895.528235","780661.872479","781429.190298","782195.789297","771496.19567","772245.602992","773012.721087","773779.080171","774545.674534","775311.933756","776078.912107","776845.92292","782205.322538"
"Blocked","Female","cave","12","F_greet.wav","None","721.444489238","214","785311.80947","777595.490392","778361.993549","779128.89399","779895.528235","780661.872479","781429.190298","782195.789297","786061.408786","772245.602992","773012.721087","773779.080171","774545.674534","775311.933756","776078.912107","776845.92292","785320.695001"
"Blocked","Female","cave","12","F_cave.wav","None","736.780840896","214","785311.80947","777595.490392","778361.993549","779128.89399","779895.528235","780661.872479","781429.190298","782195.789297","786061.408786","786828.71362","773012.721087","773779.080171","774545.674534","775311.933756","776078.912107","776845.92292","786070.039561"
"Blocked","Female","cave","12","F_bluff.wav","space","422.510381904","214","785311.80947","777595.490392","778361.993549","779128.89399","779895.528235","780661.872479","781429.190298","782195.789297","786061.408786","786828.71362","787595.284485","773779.080171","774545.674534","775311.933756","776078.912107","776845.92292","786837.750644"
"Blocked","Female","cave","12","F_bluff.wav","None","730.745852801","214","785311.80947","777595.490392","778361.993549","779128.89399","779895.528235","780661.872479","781429.190298","782195.789297","786061.408786","786828.71362","787595.284485","788362.222335","774545.674534","775311.933756","776078.912107","776845.92292","787604.939848"
"Blocked","Female","cave","12","F_cave.wav","None","728.833330446","214","785311.80947","777595.490392","778361.993549","779128.89399","779895.528235","780661.872479","781429.190298","782195.789297","786061.408786","786828.71362","787595.284485","788362.222335","789128.630577","775311.933756","776078.912107","776845.92292","788371.344071"
"Blocked","Female","cave","12","F_gnash.wav","space","522.499499144","214","785311.80947","777595.490392","778361.993549","779128.89399","779895.528235","780661.872479","781429.190298","782195.789297","786061.408786","786828.71362","787595.284485","788362.222335","789128.630577","789895.622222","776078.912107","776845.92292","789137.650906"
"Blocked","Female","cave","12","F_bluff.wav","None","722.888619843","214","785311.80947","777595.490392","778361.993549","779128.89399","779895.528235","780661.872479","781429.190298","782195.789297","786061.408786","786828.71362","787595.284485","788362.222335","789128.630577","789895.622222","790661.426966","776845.92292","789905.438353"
"Blocked","Female","cave","12","F_cling.wav","None","722.338916523","214","785311.80947","777595.490392","778361.993549","779128.89399","779895.528235","780661.872479","781429.190298","782195.789297","786061.408786","786828.71362","787595.284485","788362.222335","789128.630577","789895.622222","790661.426966","791428.900297","790670.700504"
"Blocked","Female","cave","12","F_gnash.wav","None","719.115515611","214","785311.80947","792178.259697","778361.993549","779128.89399","779895.528235","780661.872479","781429.190298","782195.789297","786061.408786","786828.71362","787595.284485","788362.222335","789128.630577","789895.622222","790661.426966","791428.900297","791438.662323"
"Blocked","Female","cave","12","F_cling.wav","None","734.947465928","214","785311.80947","792178.259697","792945.126438","779128.89399","779895.528235","780661.872479","781429.190298","782195.789297","786061.408786","786828.71362","787595.284485","788362.222335","789128.630577","789895.622222","790661.426966","791428.900297","792187.603108"
"Blocked","Female","cave","12","F_romp.wav","None","732.592831227","214","785311.80947","792178.259697","792945.126438","793711.693902","779895.528235","780661.872479","781429.190298","782195.789297","786061.408786","786828.71362","787595.284485","788362.222335","789128.630577","789895.622222","790661.426966","791428.900297","792954.547759"
"Blocked","Female","cave","12","F_cave.wav","None","730.760383762","214","785311.80947","792178.259697","792945.126438","793711.693902","794478.533436","780661.872479","781429.190298","782195.789297","786061.408786","786828.71362","787595.284485","788362.222335","789128.630577","789895.622222","790661.426966","791428.900297","793721.509415"
"Blocked","Female","cave","12","F_romp.wav","space","420.055267139","214","785311.80947","792178.259697","792945.126438","793711.693902","794478.533436","795244.593244","781429.190298","782195.789297","786061.408786","786828.71362","787595.284485","788362.222335","789128.630577","789895.622222","790661.426966","791428.900297","794487.934661"
"Blocked","Female","cave","12","F_cave.wav","None","726.837023169","214","785311.80947","792178.259697","792945.126438","793711.693902","794478.533436","795244.593244","796011.616115","782195.789297","786061.408786","786828.71362","787595.284485","788362.222335","789128.630577","789895.622222","790661.426966","791428.900297","795253.420651"
"Blocked","Female","cave","12","F_cad.wav","space","687.377105132","214","785311.80947","792178.259697","792945.126438","793711.693902","794478.533436","795244.593244","796011.616115","796778.774403","786061.408786","786828.71362","787595.284485","788362.222335","789128.630577","789895.622222","790661.426966","791428.900297","796020.538128"
"Blocked","Female","cave","7","F_dime.wav","None","718.890440235","214","799895.291411","792178.259697","792945.126438","793711.693902","794478.533436","795244.593244","796011.616115","796778.774403","786061.408786","786828.71362","787595.284485","788362.222335","789128.630577","789895.622222","790661.426966","791428.900297","796789.185376"
"Blocked","Female","cave","7","F_ball.wav","None","720.157725904","214","799895.291411","792178.259697","792945.126438","793711.693902","794478.533436","795244.593244","796011.616115","796778.774403","800644.87465","786828.71362","787595.284485","788362.222335","789128.630577","789895.622222","790661.426966","791428.900297","799904.832381"
"Blocked","Female","cave","7","F_bluff.wav","None","735.472744855","214","799895.291411","792178.259697","792945.126438","793711.693902","794478.533436","795244.593244","796011.616115","796778.774403","800644.87465","801411.213639","787595.284485","788362.222335","789128.630577","789895.622222","790661.426966","791428.900297","800654.335855"
"Blocked","Female","cave","7","F_bluff.wav","None","734.469799085","214","799895.291411","792178.259697","792945.126438","793711.693902","794478.533436","795244.593244","796011.616115","796778.774403","800644.87465","801411.213639","802178.172512","788362.222335","789128.630577","789895.622222","790661.426966","791428.900297","801420.341867"
"Blocked","Female","cave","7","F_cave.wav","None","732.299738571","214","799895.291411","792178.259697","792945.126438","793711.693902","794478.533436","795244.593244","796011.616115","796778.774403","800644.87465","801411.213639","802178.172512","802944.836128","789128.630577","789895.622222","790661.426966","791428.900297","802187.217265"
"Blocked","Female","cave","7","F_cad.wav","space","369.480397421","214","799895.291411","792178.259697","792945.126438","793711.693902","794478.533436","795244.593244","796011.616115","796778.774403","800644.87465","801411.213639","802178.172512","802944.836128","803711.339903","789895.622222","790661.426966","791428.900297","802954.259304"
"Blocked","Female","cave","7","F_reek.wav","None","727.731759624","214","799895.291411","792178.259697","792945.126438","793711.693902","794478.533436","795244.593244","796011.616115","796778.774403","800644.87465","801411.213639","802178.172512","802944.836128","803711.339903","804478.290429","790661.426966","791428.900297","803720.639721"
"Blocked","Female","cave","7","F_park.wav","None","724.730033216","214","799895.291411","792178.259697","792945.126438","793711.693902","794478.533436","795244.593244","796011.616115","796778.774403","800644.87465","801411.213639","802178.172512","802944.836128","803711.339903","804478.290429","805244.536666","791428.900297","804487.99093"
"Blocked","Female","cave","7","F_cave.wav","None","723.608366374","214","799895.291411","792178.259697","792945.126438","793711.693902","794478.533436","795244.593244","796011.616115","796778.774403","800644.87465","801411.213639","802178.172512","802944.836128","803711.339903","804478.290429","805244.536666","806011.189771","805253.802785"
"Blocked","Female","cave","7","F_knife.wav","space","391.40576886","214","799895.291411","806761.508215","792945.126438","793711.693902","794478.533436","795244.593244","796011.616115","796778.774403","800644.87465","801411.213639","802178.172512","802944.836128","803711.339903","804478.290429","805244.536666","806011.189771","806020.259257"
"Blocked","Female","cave","7","F_bluff.wav","None","734.733211481","214","799895.291411","806761.508215","807528.032087","793711.693902","794478.533436","795244.593244","796011.616115","796778.774403","800644.87465","801411.213639","802178.172512","802944.836128","803711.339903","804478.290429","805244.536666","806011.189771","806770.854099"
"Blocked","Female","cave","7","F_cave.wav","None","732.802757295","214","799895.291411","806761.508215","807528.032087","808294.852143","794478.533436","795244.593244","796011.616115","796778.774403","800644.87465","801411.213639","802178.172512","802944.836128","803711.339903","804478.290429","805244.536666","806011.189771","807537.326958"
"Blocked","Female","cave","7","F_priest.wav","space","538.775725989","214","799895.291411","806761.508215","807528.032087","808294.852143","809061.15434","795244.593244","796011.616115","796778.774403","800644.87465","801411.213639","802178.172512","802944.836128","803711.339903","804478.290429","805244.536666","806011.189771","808304.804308"
"Blocked","Female","cave","7","F_dime.wav","None","727.421971809","214","799895.291411","806761.508215","807528.032087","808294.852143","809061.15434","809828.016443","796011.616115","796778.774403","800644.87465","801411.213639","802178.172512","802944.836128","803711.339903","804478.290429","805244.536666","806011.189771","809070.418603"
"Blocked","Female","cave","7","F_cave.wav","None","725.210791745","214","799895.291411","806761.508215","807528.032087","808294.852143","809061.15434","809828.016443","810594.951201","796778.774403","800644.87465","801411.213639","802178.172512","802944.836128","803711.339903","804478.290429","805244.536666","806011.189771","809837.445184"
"Blocked","Female","cave","7","F_dime.wav","space","534.433749926","214","799895.291411","806761.508215","807528.032087","808294.852143","809061.15434","809828.016443","810594.951201","811360.95474","800644.87465","801411.213639","802178.172512","802944.836128","803711.339903","804478.290429","805244.536666","806011.189771","810605.091959"
"Blocked","Female","done","21","F_reek.wav","None","721.060500757","214","814478.269405","806761.508215","807528.032087","808294.852143","809061.15434","809828.016443","810594.951201","811360.95474","800644.87465","801411.213639","802178.172512","802944.836128","803711.339903","804478.290429","805244.536666","806011.189771","811369.939514"
"Blocked","Female","done","21","F_bluff.wav","None","719.774046585","214","814478.269405","806761.508215","807528.032087","808294.852143","809061.15434","809828.016443","810594.951201","811360.95474","815244.882936","801411.213639","802178.172512","802944.836128","803711.339903","804478.290429","805244.536666","806011.189771","814487.785333"
"Blocked","Female","done","21","F_done.wav","None","720.278301989","214","814478.269405","806761.508215","807528.032087","808294.852143","809061.15434","809828.016443","810594.951201","811360.95474","815244.882936","816011.503887","802178.172512","802944.836128","803711.339903","804478.290429","805244.536666","806011.189771","815254.569834"
"Blocked","Female","done","21","F_cling.wav","space","397.796920173","214","814478.269405","806761.508215","807528.032087","808294.852143","809061.15434","809828.016443","810594.951201","811360.95474","815244.882936","816011.503887","816761.234291","802944.836128","803711.339903","804478.290429","805244.536666","806011.189771","816021.553441"
"Blocked","Female","done","21","F_done.wav","None","732.333128872","214","814478.269405","806761.508215","807528.032087","808294.852143","809061.15434","809828.016443","810594.951201","811360.95474","815244.882936","816011.503887","816761.234291","817527.318524","803711.339903","804478.290429","805244.536666","806011.189771","816770.910677"
"Blocked","Female","done","21","F_ball.wav","None","731.051312236","214","814478.269405","806761.508215","807528.032087","808294.852143","809061.15434","809828.016443","810594.951201","811360.95474","815244.882936","816011.503887","816761.234291","817527.318524","818294.377258","804478.290429","805244.536666","806011.189771","817536.447989"
"Blocked","Female","done","21","F_done.wav","space","67.4740730466","214","814478.269405","806761.508215","807528.032087","808294.852143","809061.15434","809828.016443","810594.951201","811360.95474","815244.882936","816011.503887","816761.234291","817527.318524","818294.377258","819060.85661","805244.536666","806011.189771","818303.837535"
"Blocked","Female","done","21","F_ball.wav","space","620.923600509","214","814478.269405","806761.508215","807528.032087","808294.852143","809061.15434","809828.016443","810594.951201","811360.95474","815244.882936","816011.503887","816761.234291","817527.318524","818294.377258","819060.85661","819828.079204","806011.189771","819070.320287"
"Blocked","Female","done","21","F_done.wav","None","721.422538205","214","814478.269405","806761.508215","807528.032087","808294.852143","809061.15434","809828.016443","810594.951201","811360.95474","815244.882936","816011.503887","816761.234291","817527.318524","818294.377258","819060.85661","819828.079204","820594.318022","819837.87493"
"Blocked","Female","done","21","F_romp.wav","space","375.815589068","214","814478.269405","821344.181987","807528.032087","808294.852143","809061.15434","809828.016443","810594.951201","811360.95474","815244.882936","816011.503887","816761.234291","817527.318524","818294.377258","819060.85661","819828.079204","820594.318022","820603.439449"
"Blocked","Female","done","21","F_tile.wav","None","734.353242202","214","814478.269405","821344.181987","822111.258963","808294.852143","809061.15434","809828.016443","810594.951201","811360.95474","815244.882936","816011.503887","816761.234291","817527.318524","818294.377258","819060.85661","819828.079204","820594.318022","821353.604236"
"Blocked","Female","done","21","F_jolt.wav","None","731.887615657","214","814478.269405","821344.181987","822111.258963","822877.138216","809061.15434","809828.016443","810594.951201","811360.95474","815244.882936","816011.503887","816761.234291","817527.318524","818294.377258","819060.85661","819828.079204","820594.318022","822120.751393"
"Blocked","Female","done","21","F_romp.wav","None","731.373157658","214","814478.269405","821344.181987","822111.258963","822877.138216","823644.144083","809828.016443","810594.951201","811360.95474","815244.882936","816011.503887","816761.234291","817527.318524","818294.377258","819060.85661","819828.079204","820594.318022","822886.242948"
"Blocked","Female","done","21","F_park.wav","space","629.550047117","214","814478.269405","821344.181987","822111.258963","822877.138216","823644.144083","824410.731953","810594.951201","811360.95474","815244.882936","816011.503887","816761.234291","817527.318524","818294.377258","819060.85661","819828.079204","820594.318022","823653.563858"
"Blocked","Female","done","21","F_ball.wav","None","725.681347685","214","814478.269405","821344.181987","822111.258963","822877.138216","823644.144083","824410.731953","825177.310547","811360.95474","815244.882936","816011.503887","816761.234291","817527.318524","818294.377258","819060.85661","819828.079204","820594.318022","824420.308477"
"Blocked","Female","done","21","F_reek.wav","None","724.610075464","214","814478.269405","821344.181987","822111.258963","822877.138216","823644.144083","824410.731953","825177.310547","825943.931807","815244.882936","816011.503887","816761.234291","817527.318524","818294.377258","819060.85661","819828.079204","820594.318022","825186.357464"
"Blocked","Female","tile","17","F_dime.wav","None","722.29934283","214","829060.874542","821344.181987","822111.258963","822877.138216","823644.144083","824410.731953","825177.310547","825943.931807","815244.882936","816011.503887","816761.234291","817527.318524","818294.377258","819060.85661","819828.079204","820594.318022","825953.744846"
"Blocked","Female","tile","17","F_cave.wav","None","719.918119561","214","829060.874542","821344.181987","822111.258963","822877.138216","823644.144083","824410.731953","825177.310547","825943.931807","829810.717483","816011.503887","816761.234291","817527.318524","818294.377258","819060.85661","819828.079204","820594.318022","829070.812794"
"Blocked","Female","tile","17","F_park.wav","None","735.546945529","214","829060.874542","821344.181987","822111.258963","822877.138216","823644.144083","824410.731953","825177.310547","825943.931807","829810.717483","830576.710511","816761.234291","817527.318524","818294.377258","819060.85661","819828.079204","820594.318022","829820.156427"
"Blocked","Female","tile","17","F_gnash.wav","None","735.179033858","214","829060.874542","821344.181987","822111.258963","822877.138216","823644.144083","824410.731953","825177.310547","825943.931807","829810.717483","830576.710511","831343.47368","817527.318524","818294.377258","819060.85661","819828.079204","820594.318022","830585.995179"
"Blocked","Female","tile","17","F_romp.wav","None","733.691619527","214","829060.874542","821344.181987","822111.258963","822877.138216","823644.144083","824410.731953","825177.310547","825943.931807","829810.717483","830576.710511","831343.47368","832110.844367","818294.377258","819060.85661","819828.079204","820594.318022","831352.466183"
"Blocked","Female","tile","17","F_tile.wav","None","731.379031873","214","829060.874542","821344.181987","822111.258963","822877.138216","823644.144083","824410.731953","825177.310547","825943.931807","829810.717483","830576.710511","831343.47368","832110.844367","832877.212417","819060.85661","819828.079204","820594.318022","832120.0975"
"Blocked","Female","tile","17","F_park.wav","space","420.338466378","214","829060.874542","821344.181987","822111.258963","822877.138216","823644.144083","824410.731953","825177.310547","825943.931807","829810.717483","830576.710511","831343.47368","832110.844367","832877.212417","833644.196023","819828.079204","820594.318022","832886.522128"
"Blocked","Female","tile","17","F_tile.wav","None","726.855573332","214","829060.874542","821344.181987","822111.258963","822877.138216","823644.144083","824410.731953","825177.310547","825943.931807","829810.717483","830576.710511","831343.47368","832110.844367","832877.212417","833644.196023","834410.068166","820594.318022","833653.70855"
"Blocked","Female","tile","17","F_done.wav","None","726.368631418","214","829060.874542","821344.181987","822111.258963","822877.138216","823644.144083","824410.731953","825177.310547","825943.931807","829810.717483","830576.710511","831343.47368","832110.844367","832877.212417","833644.196023","834410.068166","835177.563757","834419.14971"
"Blocked","Female","tile","17","F_tile.wav","space","0.0231877128826","214","829060.874542","835944.185326","822111.258963","822877.138216","823644.144083","824410.731953","825177.310547","825943.931807","829810.717483","830576.710511","831343.47368","832110.844367","832877.212417","833644.196023","834410.068166","835177.563757","835187.396583"
"Blocked","Female","tile","17","F_knife.wav","None","719.438288535","214","829060.874542","835944.185326","836693.770111","822877.138216","823644.144083","824410.731953","825177.310547","825943.931807","829810.717483","830576.710511","831343.47368","832110.844367","832877.212417","833644.196023","834410.068166","835177.563757","835954.381735"
"Blocked","Female","tile","17","F_jaw.wav","space","139.865177378","214","829060.874542","835944.185326","836693.770111","837460.67859","823644.144083","824410.731953","825177.310547","825943.931807","829810.717483","830576.710511","831343.47368","832110.844367","832877.212417","833644.196023","834410.068166","835177.563757","836702.886592"
"Blocked","Female","tile","17","F_ball.wav","None","732.592522058","214","829060.874542","835944.185326","836693.770111","837460.67859","838227.130425","824410.731953","825177.310547","825943.931807","829810.717483","830576.710511","831343.47368","832110.844367","832877.212417","833644.196023","834410.068166","835177.563757","837469.939452"
"Blocked","Female","tile","17","F_tile.wav","None","730.749253664","214","829060.874542","835944.185326","836693.770111","837460.67859","838227.130425","838993.728806","825177.310547","825943.931807","829810.717483","830576.710511","831343.47368","832110.844367","832877.212417","833644.196023","834410.068166","835177.563757","838236.864317"
"Blocked","Female","tile","17","F_done.wav","space","663.59517102","214","829060.874542","835944.185326","836693.770111","837460.67859","838227.130425","838993.728806","839760.653362","825943.931807","829810.717483","830576.710511","831343.47368","832110.844367","832877.212417","833644.196023","834410.068166","835177.563757","839003.064797"
"Blocked","Female","tile","17","F_depth.wav","None","726.65368567","214","829060.874542","835944.185326","836693.770111","837460.67859","838227.130425","838993.728806","839760.653362","840527.189909","829810.717483","830576.710511","831343.47368","832110.844367","832877.212417","833644.196023","834410.068166","835177.563757","839769.870631"
"Blocked","Female","done","23","F_priest.wav","None","724.339243003","214","843660.639202","835944.185326","836693.770111","837460.67859","838227.130425","838993.728806","839760.653362","840527.189909","829810.717483","830576.710511","831343.47368","832110.844367","832877.212417","833644.196023","834410.068166","835177.563757","840536.790549"
"Blocked","Female","done","23","F_reek.wav","None","720.290977944","214","843660.639202","835944.185326","836693.770111","837460.67859","838227.130425","838993.728806","839760.653362","840527.189909","844426.664383","830576.710511","831343.47368","832110.844367","832877.212417","833644.196023","834410.068166","835177.563757","843670.420396"
"Blocked","Female","done","23","F_done.wav","None","720.202864642","214","843660.639202","835944.185326","836693.770111","837460.67859","838227.130425","838993.728806","839760.653362","840527.189909","844426.664383","845176.639649","831343.47368","832110.844367","832877.212417","833644.196023","834410.068166","835177.563757","844435.702334"
"Blocked","Female","done","23","F_jolt.wav","None","740.05710979","214","843660.639202","835944.185326","836693.770111","837460.67859","838227.130425","838993.728806","839760.653362","840527.189909","844426.664383","845176.639649","845943.490622","832110.844367","832877.212417","833644.196023","834410.068166","835177.563757","845180.78252"
"Blocked","Female","done","23","F_done.wav","space","161.419236276","214","843660.639202","835944.185326","836693.770111","837460.67859","838227.130425","838993.728806","839760.653362","840527.189909","844426.664383","845176.639649","845943.490622","846709.990688","832877.212417","833644.196023","834410.068166","835177.563757","845953.037466"
"Blocked","Female","done","23","F_depth.wav","None","730.173889278","214","843660.639202","835944.185326","836693.770111","837460.67859","838227.130425","838993.728806","839760.653362","840527.189909","844426.664383","845176.639649","845943.490622","846709.990688","847476.477768","833644.196023","834410.068166","835177.563757","846719.543097"
"Blocked","Female","done","23","F_depth.wav","space","60.8556821682","214","843660.639202","835944.185326","836693.770111","837460.67859","838227.130425","838993.728806","839760.653362","840527.189909","844426.664383","845176.639649","845943.490622","846709.990688","847476.477768","848243.045233","834410.068166","835177.563757","847485.573534"
"Blocked","Female","done","23","F_bluff.wav","None","725.813053876","214","843660.639202","835944.185326","836693.770111","837460.67859","838227.130425","838993.728806","839760.653362","840527.189909","844426.664383","845176.639649","845943.490622","846709.990688","847476.477768","848243.045233","849010.383766","835177.563757","848252.116883"
"Blocked","Female","done","23","F_reek.wav","None","722.812564149","214","843660.639202","835944.185326","836693.770111","837460.67859","838227.130425","838993.728806","839760.653362","840527.189909","844426.664383","845176.639649","845943.490622","846709.990688","847476.477768","848243.045233","849010.383766","849776.563841","849020.00141"
"Blocked","Female","done","23","F_jaw.wav","None","721.661835385","214","843660.639202","850543.719655","836693.770111","837460.67859","838227.130425","838993.728806","839760.653362","840527.189909","844426.664383","845176.639649","845943.490622","846709.990688","847476.477768","848243.045233","849010.383766","849776.563841","849785.56531"
"Blocked","Female","done","23","F_done.wav","None","718.736164672","214","843660.639202","850543.719655","851293.342777","837460.67859","838227.130425","838993.728806","839760.653362","840527.189909","844426.664383","845176.639649","845943.490622","846709.990688","847476.477768","848243.045233","849010.383766","849776.563841","850553.455402"
"Blocked","Female","done","23","F_knife.wav","space","579.544976739","214","843660.639202","850543.719655","851293.342777","852060.20859","838227.130425","838993.728806","839760.653362","840527.189909","844426.664383","845176.639649","845943.490622","846709.990688","847476.477768","848243.045233","849010.383766","849776.563841","851302.759152"
"Blocked","Female","done","23","F_greet.wav","None","730.775223899","214","843660.639202","850543.719655","851293.342777","852060.20859","852826.693507","838993.728806","839760.653362","840527.189909","844426.664383","845176.639649","845943.490622","846709.990688","847476.477768","848243.045233","849010.383766","849776.563841","852069.568696"
"Blocked","Female","done","23","F_knife.wav","None","729.489078898","214","843660.639202","850543.719655","851293.342777","852060.20859","852826.693507","853593.303637","839760.653362","840527.189909","844426.664383","845176.639649","845943.490622","846709.990688","847476.477768","848243.045233","849010.383766","849776.563841","852835.861927"
"Blocked","Female","done","23","F_done.wav","None","727.498955013","214","843660.639202","850543.719655","851293.342777","852060.20859","852826.693507","853593.303637","854359.348914","840527.189909","844426.664383","845176.639649","845943.490622","846709.990688","847476.477768","848243.045233","849010.383766","849776.563841","853602.789574"
"Blocked","Female","done","23","F_romp.wav","space","617.966394515","214","843660.639202","850543.719655","851293.342777","852060.20859","852826.693507","853593.303637","854359.348914","855126.479994","844426.664383","845176.639649","845943.490622","846709.990688","847476.477768","848243.045233","849010.383766","849776.563841","854368.25114"
"Blocked","Female","done","19","F_cling.wav","None","723.421009679","214","858243.488273","850543.719655","851293.342777","852060.20859","852826.693507","853593.303637","854359.348914","855126.479994","844426.664383","845176.639649","845943.490622","846709.990688","847476.477768","848243.045233","849010.383766","849776.563841","855135.478372"
"Blocked","Female","done","19","F_done.wav","None","719.774046585","214","858243.488273","850543.719655","851293.342777","852060.20859","852826.693507","853593.303637","854359.348914","855126.479994","858993.275255","845176.639649","845943.490622","846709.990688","847476.477768","848243.045233","849010.383766","849776.563841","858253.320171"
"Blocked","Female","done","19","F_tile.wav","None","735.449247972","214","858243.488273","850543.719655","851293.342777","852060.20859","852826.693507","853593.303637","854359.348914","855126.479994","858993.275255","859759.922794","845943.490622","846709.990688","847476.477768","848243.045233","849010.383766","849776.563841","859002.910521"
"Blocked","Female","done","19","F_done.wav","space","136.802235422","214","858243.488273","850543.719655","851293.342777","852060.20859","852826.693507","853593.303637","854359.348914","855126.479994","858993.275255","859759.922794","860526.42286","846709.990688","847476.477768","848243.045233","849010.383766","849776.563841","859769.267751"
"Blocked","Female","done","19","F_knife.wav","space","583.753082421","214","858243.488273","850543.719655","851293.342777","852060.20859","852826.693507","853593.303637","854359.348914","855126.479994","858993.275255","859759.922794","860526.42286","861292.586858","847476.477768","848243.045233","849010.383766","849776.563841","860530.269546"
"Blocked","Female","done","19","F_priest.wav","None","729.012957912","214","858243.488273","850543.719655","851293.342777","852060.20859","852826.693507","853593.303637","854359.348914","855126.479994","858993.275255","859759.922794","860526.42286","861292.586858","862059.560262","848243.045233","849010.383766","849776.563841","861301.397261"
"Blocked","Female","done","19","F_jaw.wav","None","726.745509004","214","858243.488273","850543.719655","851293.342777","852060.20859","852826.693507","853593.303637","854359.348914","855126.479994","858993.275255","859759.922794","860526.42286","861292.586858","862059.560262","862826.593027","849010.383766","849776.563841","862068.740122"
"Blocked","Female","done","19","F_gnash.wav","None","724.701589628","214","858243.488273","850543.719655","851293.342777","852060.20859","852826.693507","853593.303637","854359.348914","855126.479994","858993.275255","859759.922794","860526.42286","861292.586858","862059.560262","862826.593027","863593.52562","849776.563841","862836.083293"
"Blocked","Female","done","19","F_done.wav","None","722.282647679","214","858243.488273","850543.719655","851293.342777","852060.20859","852826.693507","853593.303637","854359.348914","855126.479994","858993.275255","859759.922794","860526.42286","861292.586858","862059.560262","862826.593027","863593.52562","864359.98704","863603.521378"
"Blocked","Female","done","19","F_romp.wav","space","624.606118094","214","858243.488273","865109.677561","851293.342777","852060.20859","852826.693507","853593.303637","854359.348914","855126.479994","858993.275255","859759.922794","860526.42286","861292.586858","862059.560262","862826.593027","863593.52562","864359.98704","864369.306335"
"Blocked","Female","done","19","F_cad.wav","None","735.525612836","214","858243.488273","865109.677561","865876.05705","852060.20859","852826.693507","853593.303637","854359.348914","855126.479994","858993.275255","859759.922794","860526.42286","861292.586858","862059.560262","862826.593027","863593.52562","864359.98704","865119.007059"
"Blocked","Female","done","19","F_cad.wav","None","734.111162507","214","858243.488273","865109.677561","865876.05705","866642.870305","852826.693507","853593.303637","854359.348914","855126.479994","858993.275255","859759.922794","860526.42286","861292.586858","862059.560262","862826.593027","863593.52562","864359.98704","865885.417775"
"Blocked","Female","done","19","F_greet.wav","None","731.768894577","214","858243.488273","865109.677561","865876.05705","866642.870305","867409.902142","853593.303637","854359.348914","855126.479994","858993.275255","859759.922794","860526.42286","861292.586858","862059.560262","862826.593027","863593.52562","864359.98704","866652.46507"
"Blocked","Female","done","19","F_priest.wav","None","730.061042421","214","858243.488273","865109.677561","865876.05705","866642.870305","867409.902142","868176.216706","854359.348914","855126.479994","858993.275255","859759.922794","860526.42286","861292.586858","862059.560262","862826.593027","863593.52562","864359.98704","867419.316352"
"Blocked","Female","done","19","F_done.wav","None","729.002446147","214","858243.488273","865109.677561","865876.05705","866642.870305","867409.902142","868176.216706","868942.845386","855126.479994","858993.275255","859759.922794","860526.42286","861292.586858","862059.560262","862826.593027","863593.52562","864359.98704","868185.533528"
"Blocked","Female","done","19","F_cave.wav","space","473.716575689","214","858243.488273","865109.677561","865876.05705","866642.870305","867409.902142","868176.216706","868942.845386","869709.724184","858993.275255","859759.922794","860526.42286","861292.586858","862059.560262","862826.593027","863593.52562","864359.98704","868952.023081"
"Blocked","Female","tile","16","F_bluff.wav","None","723.214484468","214","872826.465649","865109.677561","865876.05705","866642.870305","867409.902142","868176.216706","868942.845386","869709.724184","858993.275255","859759.922794","860526.42286","861292.586858","862059.560262","862826.593027","863593.52562","864359.98704","869719.730454"
"Blocked","Female","tile","16","F_cave.wav","None","719.6290461","214","872826.465649","865109.677561","865876.05705","866642.870305","867409.902142","868176.216706","868942.845386","869709.724184","873576.094645","859759.922794","860526.42286","861292.586858","862059.560262","862826.593027","863593.52562","864359.98704","872836.227366"
"Blocked","Female","tile","16","F_done.wav","None","735.916403049","214","872826.465649","865109.677561","865876.05705","866642.870305","867409.902142","868176.216706","868942.845386","869709.724184","873576.094645","874342.497323","860526.42286","861292.586858","862059.560262","862826.593027","863593.52562","864359.98704","873585.207416"
"Blocked","Female","tile","16","F_ball.wav","None","734.231120259","214","872826.465649","865109.677561","865876.05705","866642.870305","867409.902142","868176.216706","868942.845386","869709.724184","873576.094645","874342.497323","875108.697803","861292.586858","862059.560262","862826.593027","863593.52562","864359.98704","874352.100745"
"Blocked","Female","tile","16","F_done.wav","None","734.027068407","214","872826.465649","865109.677561","865876.05705","866642.870305","867409.902142","868176.216706","868942.845386","869709.724184","873576.094645","874342.497323","875108.697803","875875.501782","862059.560262","862826.593027","863593.52562","864359.98704","875117.672374"
"Blocked","Female","tile","16","F_greet.wav","None","732.515229691","214","872826.465649","865109.677561","865876.05705","866642.870305","867409.902142","868176.216706","868942.845386","869709.724184","873576.094645","874342.497323","875108.697803","875875.501782","876642.619568","862826.593027","863593.52562","864359.98704","875884.348048"
"Blocked","Female","tile","16","F_knife.wav","None","730.013430322","214","872826.465649","865109.677561","865876.05705","866642.870305","867409.902142","868176.216706","868942.845386","869709.724184","873576.094645","874342.497323","875108.697803","875875.501782","876642.619568","877409.536085","863593.52562","864359.98704","876652.109525"
"Blocked","Female","tile","16","F_tile.wav","None","728.727285321","214","872826.465649","865109.677561","865876.05705","866642.870305","867409.902142","868176.216706","868942.845386","869709.724184","873576.094645","874342.497323","875108.697803","875875.501782","876642.619568","877409.536085","878175.921758","864359.98704","877418.741606"
"Blocked","Female","tile","16","F_cad.wav","space","455.985706474","214","872826.465649","865109.677561","865876.05705","866642.870305","867409.902142","868176.216706","868942.845386","869709.724184","873576.094645","874342.497323","875108.697803","875875.501782","876642.619568","877409.536085","878175.921758","878942.657411","878185.500756"
"Blocked","Female","tile","16","F_tile.wav","None","724.565245888","214","872826.465649","879708.886953","865876.05705","866642.870305","867409.902142","868176.216706","868942.845386","869709.724184","873576.094645","874342.497323","875108.697803","875875.501782","876642.619568","877409.536085","878175.921758","878942.657411","878952.01226"
"Blocked","Female","tile","16","F_cling.wav","None","723.974732195","214","872826.465649","879708.886953","880475.802542","866642.870305","867409.902142","868176.216706","868942.845386","869709.724184","873576.094645","874342.497323","875108.697803","875875.501782","876642.619568","877409.536085","878175.921758","878942.657411","879717.905735"
"Blocked","Female","tile","16","F_tile.wav","space","0.0278252554126","214","872826.465649","879708.886953","880475.802542","881225.930538","867409.902142","868176.216706","868942.845386","869709.724184","873576.094645","874342.497323","875108.697803","875875.501782","876642.619568","877409.536085","878175.921758","878942.657411","880484.853478"
"Blocked","Female","tile","16","F_priest.wav","space","574.55652731","214","872826.465649","879708.886953","880475.802542","881225.930538","881992.450391","868176.216706","868942.845386","869709.724184","873576.094645","874342.497323","875108.697803","875875.501782","876642.619568","877409.536085","878175.921758","878942.657411","881234.826271"
"Blocked","Female","tile","16","F_tile.wav","None","732.252744805","214","872826.465649","879708.886953","880475.802542","881225.930538","881992.450391","882759.27663","868942.845386","869709.724184","873576.094645","874342.497323","875108.697803","875875.501782","876642.619568","877409.536085","878175.921758","878942.657411","882001.878514"
"Blocked","Female","tile","16","F_bluff.wav","space","536.778800371","214","872826.465649","879708.886953","880475.802542","881225.930538","881992.450391","882759.27663","883525.814105","869709.724184","873576.094645","874342.497323","875108.697803","875875.501782","876642.619568","877409.536085","878175.921758","878942.657411","882768.57923"
"Blocked","Female","tile","16","F_reek.wav","None","727.745981414","214","872826.465649","879708.886953","880475.802542","881225.930538","881992.450391","882759.27663","883525.814105","884292.330866","873576.094645","874342.497323","875108.697803","875875.501782","876642.619568","877409.536085","878175.921758","878942.657411","883535.367442"
"Blocked","Female","ball","5","F_jolt.wav","None","727.017268975","214","887426.055937","879708.886953","880475.802542","881225.930538","881992.450391","882759.27663","883525.814105","884292.330866","873576.094645","874342.497323","875108.697803","875875.501782","876642.619568","877409.536085","878175.921758","878942.657411","884301.366962"
"Blocked","Female","ball","5","F_done.wav","None","720.587471464","214","887426.055937","879708.886953","880475.802542","881225.930538","881992.450391","882759.27663","883525.814105","884292.330866","888191.703623","874342.497323","875108.697803","875875.501782","876642.619568","877409.536085","878175.921758","878942.657411","887435.779626"
"Blocked","Female","ball","5","F_jolt.wav","None","724.087579052","214","887426.055937","879708.886953","880475.802542","881225.930538","881992.450391","882759.27663","883525.814105","884292.330866","888191.703623","888959.165514","875108.697803","875875.501782","876642.619568","877409.536085","878175.921758","878942.657411","888200.490837"
"Blocked","Female","ball","5","F_done.wav","None","720.443398495","214","887426.055937","879708.886953","880475.802542","881225.930538","881992.450391","882759.27663","883525.814105","884292.330866","888191.703623","888959.165514","889725.385163","875875.501782","876642.619568","877409.536085","878175.921758","878942.657411","888969.447564"
"Blocked","Female","ball","5","F_lash.wav","None","721.216013","214","887426.055937","879708.886953","880475.802542","881225.930538","881992.450391","882759.27663","883525.814105","884292.330866","888191.703623","888959.165514","889725.385163","890475.604364","876642.619568","877409.536085","878175.921758","878942.657411","889734.281206"
