"Condition","Talker","Target","Trial","current_stimulus","response_response","response_time_response","subject_nr","time_Audio1","time_Audio10","time_Audio11","time_Audio12","time_Audio13","time_Audio14","time_Audio15","time_Audio16","time_Audio2","time_Audio3","time_Audio4","time_Audio5","time_Audio6","time_Audio7","time_Audio8","time_Audio9","time_response"
"Mixed","Female","done","44","M_bluff.wav","NA","NA","215","1349189.68877","NA","NA","NA","NA","NA","NA","NA","NA","NA","NA","NA","NA","NA","NA","NA","NA"
"Mixed","Female","done","44","F_cad.wav","None","716.121209276","215","1349189.68877","NA","NA","NA","NA","NA","NA","NA","1349939.43834","NA","NA","NA","NA","NA","NA","NA","1349203.73341"
"Mixed","Female","done","44","F_done.wav","None","734.943137548","215","1349189.68877","NA","NA","NA","NA","NA","NA","NA","1349939.43834","1350705.61285","NA","NA","NA","NA","NA","NA","1349948.92428"
"Mixed","Female","done","44","M_ball.wav","None","733.172214816","215","1349189.68877","NA","NA","NA","NA","NA","NA","NA","1349939.43834","1350705.61285","1351472.40539","NA","NA","NA","NA","NA","1350714.78776"
"Mixed","Female","done","44","F_done.wav","space","219.217541533","215","1349189.68877","NA","NA","NA","NA","NA","NA","NA","1349939.43834","1350705.61285","1351472.40539","1352239.34138","NA","NA","NA","NA","1351482.01252"
"Mixed","Female","done","44","M_park.wav","space","660.095063424","215","1349189.68877","NA","NA","NA","NA","NA","NA","NA","1349939.43834","1350705.61285","1351472.40539","1352239.34138","1353005.72242","NA","NA","NA","1352249.08362"
"Mixed","Female","done","44","F_depth.wav","None","724.461983285","215","1349189.68877","NA","NA","NA","NA","NA","NA","NA","1349939.43834","1350705.61285","1351472.40539","1352239.34138","1353005.72242","1353772.39593","NA","NA","1353015.27823"
"Mixed","Female","done","44","M_jolt.wav","None","722.122497893","215","1349189.68877","NA","NA","NA","NA","NA","NA","NA","1349939.43834","1350705.61285","1351472.40539","1352239.34138","1353005.72242","1353772.39593","1354522.04688","NA","1353781.69111"
"Mixed","Female","done","44","F_done.wav","None","736.136840875","215","1349189.68877","NA","NA","NA","NA","NA","NA","NA","1349939.43834","1350705.61285","1351472.40539","1352239.34138","1353005.72242","1353772.39593","1354522.04688","1355289.30904","1354531.80705"
"Mixed","Female","done","44","M_depth.wav","space","474.391492644","215","1349189.68877","1356055.98688","NA","NA","NA","NA","NA","NA","1349939.43834","1350705.61285","1351472.40539","1352239.34138","1353005.72242","1353772.39593","1354522.04688","1355289.30904","1355298.7248"
"Mixed","Female","done","44","F_depth.wav","None","730.881887372","215","1349189.68877","1356055.98688","1356822.4718","NA","NA","NA","NA","NA","1349939.43834","1350705.61285","1351472.40539","1352239.34138","1353005.72242","1353772.39593","1354522.04688","1355289.30904","1356065.61442"
"Mixed","Female","done","44","F_done.wav","None","729.233395745","215","1349189.68877","1356055.98688","1356822.4718","1357589.56516","NA","NA","NA","NA","1349939.43834","1350705.61285","1351472.40539","1352239.34138","1353005.72242","1353772.39593","1354522.04688","1355289.30904","1356831.39505"
"Mixed","Female","done","44","M_depth.wav","space","646.115656593","215","1349189.68877","1356055.98688","1356822.4718","1357589.56516","1358356.56732","NA","NA","NA","1349939.43834","1350705.61285","1351472.40539","1352239.34138","1353005.72242","1353772.39593","1354522.04688","1355289.30904","1357598.91413"
"Mixed","Female","done","44","F_knife.wav","None","722.342008216","215","1349189.68877","1356055.98688","1356822.4718","1357589.56516","1358356.56732","1359123.3917","NA","NA","1349939.43834","1350705.61285","1351472.40539","1352239.34138","1353005.72242","1353772.39593","1354522.04688","1355289.30904","1358366.33182"
"Mixed","Female","done","44","M_depth.wav","None","719.507233327","215","1349189.68877","1356055.98688","1356822.4718","1357589.56516","1358356.56732","1359123.3917","1359872.61167","NA","1349939.43834","1350705.61285","1351472.40539","1352239.34138","1353005.72242","1353772.39593","1354522.04688","1355289.30904","1359133.24833"
"Mixed","Female","done","44","M_gnash.wav","None","734.492368458","215","1349189.68877","1356055.98688","1356822.4718","1357589.56516","1358356.56732","1359123.3917","1359872.61167","1360639.46635","1349939.43834","1350705.61285","1351472.40539","1352239.34138","1353005.72242","1353772.39593","1354522.04688","1355289.30904","1359882.37833"
"Mixed","Male","cave","13","F_jaw.wav","None","732.34178561","215","1363789.68314","1356055.98688","1356822.4718","1357589.56516","1358356.56732","1359123.3917","1359872.61167","1360639.46635","1349939.43834","1350705.61285","1351472.40539","1352239.34138","1353005.72242","1353772.39593","1354522.04688","1355289.30904","1360648.75936"
"Mixed","Male","cave","13","F_knife.wav","None","720.9779525","215","1363789.68314","1356055.98688","1356822.4718","1357589.56516","1358356.56732","1359123.3917","1359872.61167","1360639.46635","1364539.6649","1350705.61285","1351472.40539","1352239.34138","1353005.72242","1353772.39593","1354522.04688","1355289.30904","1363799.41889"
"Mixed","Male","cave","13","M_lash.wav","None","736.38386729","215","1363789.68314","1356055.98688","1356822.4718","1357589.56516","1358356.56732","1359123.3917","1359872.61167","1360639.46635","1364539.6649","1365305.97266","1351472.40539","1352239.34138","1353005.72242","1353772.39593","1354522.04688","1355289.30904","1364548.42923"
"Mixed","Male","cave","13","M_romp.wav","None","733.373484138","215","1363789.68314","1356055.98688","1356822.4718","1357589.56516","1358356.56732","1359123.3917","1359872.61167","1360639.46635","1364539.6649","1365305.97266","1366072.91391","1352239.34138","1353005.72242","1353772.39593","1354522.04688","1355289.30904","1365315.61318"
"Mixed","Male","cave","13","F_priest.wav","None","731.070480746","215","1363789.68314","1356055.98688","1356822.4718","1357589.56516","1358356.56732","1359123.3917","1359872.61167","1360639.46635","1364539.6649","1365305.97266","1366072.91391","1366838.88437","1353005.72242","1353772.39593","1354522.04688","1355289.30904","1366082.1958"
"Mixed","Male","cave","13","F_romp.wav","None","729.707661711","215","1363789.68314","1356055.98688","1356822.4718","1357589.56516","1358356.56732","1359123.3917","1359872.61167","1360639.46635","1364539.6649","1365305.97266","1366072.91391","1366838.88437","1367605.95269","1353772.39593","1354522.04688","1355289.30904","1366847.71147"
"Mixed","Male","cave","13","M_cave.wav","None","726.090378892","215","1363789.68314","1356055.98688","1356822.4718","1357589.56516","1358356.56732","1359123.3917","1359872.61167","1360639.46635","1364539.6649","1365305.97266","1366072.91391","1366838.88437","1367605.95269","1368372.91187","1354522.04688","1355289.30904","1367615.55395"
"Mixed","Male","cave","13","M_knife.wav","space","629.823662093","215","1363789.68314","1356055.98688","1356822.4718","1357589.56516","1358356.56732","1359123.3917","1359872.61167","1360639.46635","1364539.6649","1365305.97266","1366072.91391","1366838.88437","1367605.95269","1368372.91187","1369139.18748","1355289.30904","1368382.92432"
"Mixed","Male","cave","13","M_cave.wav","None","721.845791217","215","1363789.68314","1356055.98688","1356822.4718","1357589.56516","1358356.56732","1359123.3917","1359872.61167","1360639.46635","1364539.6649","1365305.97266","1366072.91391","1366838.88437","1367605.95269","1368372.91187","1369139.18748","1369889.1309","1369148.08507"
"Mixed","Male","cave","13","F_ball.wav","space","594.151997611","215","1363789.68314","1370655.61891","1356822.4718","1357589.56516","1358356.56732","1359123.3917","1359872.61167","1360639.46635","1364539.6649","1365305.97266","1366072.91391","1366838.88437","1367605.95269","1368372.91187","1369139.18748","1369889.1309","1369898.51698"
"Mixed","Male","cave","13","M_cave.wav","None","733.178089038","215","1363789.68314","1370655.61891","1371422.44144","1357589.56516","1358356.56732","1359123.3917","1359872.61167","1360639.46635","1364539.6649","1365305.97266","1366072.91391","1366838.88437","1367605.95269","1368372.91187","1369139.18748","1369889.1309","1370665.2854"
"Mixed","Male","cave","13","F_jolt.wav","space","588.499452155","215","1363789.68314","1370655.61891","1371422.44144","1372189.20924","1358356.56732","1359123.3917","1359872.61167","1360639.46635","1364539.6649","1365305.97266","1366072.91391","1366838.88437","1367605.95269","1368372.91187","1369139.18748","1369889.1309","1371432.12184"
"Mixed","Male","cave","13","F_greet.wav","None","727.820182088","215","1363789.68314","1370655.61891","1371422.44144","1372189.20924","1372955.73559","1359123.3917","1359872.61167","1360639.46635","1364539.6649","1365305.97266","1366072.91391","1366838.88437","1367605.95269","1368372.91187","1369139.18748","1369889.1309","1372198.77526"
"Mixed","Male","cave","13","F_cad.wav","None","725.755857529","215","1363789.68314","1370655.61891","1371422.44144","1372189.20924","1372955.73559","1373722.05479","1359872.61167","1360639.46635","1364539.6649","1365305.97266","1366072.91391","1366838.88437","1367605.95269","1368372.91187","1369139.18748","1369889.1309","1372965.23884"
"Mixed","Male","cave","13","M_cave.wav","None","723.792631376","215","1363789.68314","1370655.61891","1371422.44144","1372189.20924","1372955.73559","1373722.05479","1374489.29872","1360639.46635","1364539.6649","1365305.97266","1366072.91391","1366838.88437","1367605.95269","1368372.91187","1369139.18748","1369889.1309","1373731.31318"
"Mixed","Male","cave","13","M_done.wav","space","649.321434838","215","1363789.68314","1370655.61891","1371422.44144","1372189.20924","1372955.73559","1373722.05479","1374489.29872","1375238.70047","1364539.6649","1365305.97266","1366072.91391","1366838.88437","1367605.95269","1368372.91187","1369139.18748","1369889.1309","1374499.20451"
"Mixed","Female","done","47","M_depth.wav","None","735.004043934","215","1378372.55292","1370655.61891","1371422.44144","1372189.20924","1372955.73559","1373722.05479","1374489.29872","1375238.70047","1364539.6649","1365305.97266","1366072.91391","1366838.88437","1367605.95269","1368372.91187","1369139.18748","1369889.1309","1375248.35769"
"Mixed","Female","done","47","F_done.wav","None","720.344464258","215","1378372.55292","1370655.61891","1371422.44144","1372189.20924","1372955.73559","1373722.05479","1374489.29872","1375238.70047","1379122.17141","1365305.97266","1366072.91391","1366838.88437","1367605.95269","1368372.91187","1369139.18748","1369889.1309","1378382.62721"
"Mixed","Female","done","47","M_dime.wav","space","480.739669409","215","1378372.55292","1370655.61891","1371422.44144","1372189.20924","1372955.73559","1373722.05479","1374489.29872","1375238.70047","1379122.17141","1379888.91541","1366072.91391","1366838.88437","1367605.95269","1368372.91187","1369139.18748","1369889.1309","1379131.66198"
"Mixed","Female","done","47","F_dime.wav","None","733.0275235","215","1378372.55292","1370655.61891","1371422.44144","1372189.20924","1372955.73559","1373722.05479","1374489.29872","1375238.70047","1379122.17141","1379888.91541","1380655.43155","1366838.88437","1367605.95269","1368372.91187","1369139.18748","1369889.1309","1379898.23872"
"Mixed","Female","done","47","M_cave.wav","None","731.052858085","215","1378372.55292","1370655.61891","1371422.44144","1372189.20924","1372955.73559","1373722.05479","1374489.29872","1375238.70047","1379122.17141","1379888.91541","1380655.43155","1381421.76343","1367605.95269","1368372.91187","1369139.18748","1369889.1309","1380664.63738"
"Mixed","Female","done","47","M_romp.wav","None","729.568844618","215","1378372.55292","1370655.61891","1371422.44144","1372189.20924","1372955.73559","1373722.05479","1374489.29872","1375238.70047","1379122.17141","1379888.91541","1380655.43155","1381421.76343","1382188.53309","1368372.91187","1369139.18748","1369889.1309","1381430.74449"
"Mixed","Female","done","47","M_ball.wav","None","727.037055818","215","1378372.55292","1370655.61891","1371422.44144","1372189.20924","1372955.73559","1373722.05479","1374489.29872","1375238.70047","1379122.17141","1379888.91541","1380655.43155","1381421.76343","1382188.53309","1382955.81535","1369139.18748","1369889.1309","1382197.50055"
"Mixed","Female","done","47","M_jaw.wav","None","723.565391818","215","1378372.55292","1370655.61891","1371422.44144","1372189.20924","1372955.73559","1373722.05479","1374489.29872","1375238.70047","1379122.17141","1379888.91541","1380655.43155","1381421.76343","1382188.53309","1382955.81535","1383722.26719","1369889.1309","1382965.37766"
"Mixed","Female","done","47","F_done.wav","None","720.72752523","215","1378372.55292","1370655.61891","1371422.44144","1372189.20924","1372955.73559","1373722.05479","1374489.29872","1375238.70047","1379122.17141","1379888.91541","1380655.43155","1381421.76343","1382188.53309","1382955.81535","1383722.26719","1384489.21493","1383732.43268"
"Mixed","Female","done","47","F_bluff.wav","space","449.358658851","215","1378372.55292","1385238.75056","1371422.44144","1372189.20924","1372955.73559","1373722.05479","1374489.29872","1375238.70047","1379122.17141","1379888.91541","1380655.43155","1381421.76343","1382188.53309","1382955.81535","1383722.26719","1384489.21493","1384498.86504"
"Mixed","Female","done","47","F_done.wav","None","733.294955098","215","1378372.55292","1385238.75056","1386005.02586","1372189.20924","1372955.73559","1373722.05479","1374489.29872","1375238.70047","1379122.17141","1379888.91541","1380655.43155","1381421.76343","1382188.53309","1382955.81535","1383722.26719","1384489.21493","1385248.07233"
"Mixed","Female","done","47","M_tile.wav","space","510.17940486","215","1378372.55292","1385238.75056","1386005.02586","1386771.90744","1372955.73559","1373722.05479","1374489.29872","1375238.70047","1379122.17141","1379888.91541","1380655.43155","1381421.76343","1382188.53309","1382955.81535","1383722.26719","1384489.21493","1386013.99487"
"Mixed","Female","done","47","F_done.wav","None","727.968892606","215","1378372.55292","1385238.75056","1386005.02586","1386771.90744","1387538.69905","1373722.05479","1374489.29872","1375238.70047","1379122.17141","1379888.91541","1380655.43155","1381421.76343","1382188.53309","1382955.81535","1383722.26719","1384489.21493","1386781.37421"
"Mixed","Female","done","47","M_reek.wav","space","520.112401653","215","1378372.55292","1385238.75056","1386005.02586","1386771.90744","1387538.69905","1388305.70399","1374489.29872","1375238.70047","1379122.17141","1379888.91541","1380655.43155","1381421.76343","1382188.53309","1382955.81535","1383722.26719","1384489.21493","1387548.01433"
"Mixed","Female","done","47","F_jaw.wav","None","721.757059575","215","1378372.55292","1385238.75056","1386005.02586","1386771.90744","1387538.69905","1388305.70399","1389072.28475","1375238.70047","1379122.17141","1379888.91541","1380655.43155","1381421.76343","1382188.53309","1382955.81535","1383722.26719","1384489.21493","1388316.02871"
"Mixed","Female","done","47","F_tile.wav","None","720.294997147","215","1378372.55292","1385238.75056","1386005.02586","1386771.90744","1387538.69905","1388305.70399","1389072.28475","1389821.94095","1379122.17141","1379888.91541","1380655.43155","1381421.76343","1382188.53309","1382955.81535","1383722.26719","1384489.21493","1389082.3006"
"Mixed","Male","cave","16","F_knife.wav","None","735.661647399","215","1392955.60141","1385238.75056","1386005.02586","1386771.90744","1387538.69905","1388305.70399","1389072.28475","1389821.94095","1379122.17141","1379888.91541","1380655.43155","1381421.76343","1382188.53309","1382955.81535","1383722.26719","1384489.21493","1389831.2281"
"Mixed","Male","cave","16","M_cave.wav","None","720.706501707","215","1392955.60141","1385238.75056","1386005.02586","1386771.90744","1387538.69905","1388305.70399","1389072.28475","1389821.94095","1393721.56754","1379888.91541","1380655.43155","1381421.76343","1382188.53309","1382955.81535","1383722.26719","1384489.21493","1392964.85145"
"Mixed","Male","cave","16","M_park.wav","space","553.084707491","215","1392955.60141","1385238.75056","1386005.02586","1386771.90744","1387538.69905","1388305.70399","1389072.28475","1389821.94095","1393721.56754","1394471.8056","1380655.43155","1381421.76343","1382188.53309","1382955.81535","1383722.26719","1384489.21493","1393730.86612"
"Mixed","Male","cave","16","F_jaw.wav","None","733.927515837","215","1392955.60141","1385238.75056","1386005.02586","1386771.90744","1387538.69905","1388305.70399","1389072.28475","1389821.94095","1393721.56754","1394471.8056","1395238.0707","1381421.76343","1382188.53309","1382955.81535","1383722.26719","1384489.21493","1394481.03493"
"Mixed","Male","cave","16","M_park.wav","None","732.12784034","215","1392955.60141","1385238.75056","1386005.02586","1386771.90744","1387538.69905","1388305.70399","1389072.28475","1389821.94095","1393721.56754","1394471.8056","1395238.0707","1396004.84376","1382188.53309","1382955.81535","1383722.26719","1384489.21493","1395247.0632"
"Mixed","Male","cave","16","F_reek.wav","None","729.488460558","215","1392955.60141","1385238.75056","1386005.02586","1386771.90744","1387538.69905","1388305.70399","1389072.28475","1389821.94095","1393721.56754","1394471.8056","1395238.0707","1396004.84376","1396771.65887","1382955.81535","1383722.26719","1384489.21493","1396013.98003"
"Mixed","Male","cave","16","M_cave.wav","None","727.089614629","215","1392955.60141","1385238.75056","1386005.02586","1386771.90744","1387538.69905","1388305.70399","1389072.28475","1389821.94095","1393721.56754","1394471.8056","1395238.0707","1396004.84376","1396771.65887","1397537.96106","1383722.26719","1384489.21493","1396781.01217"
"Mixed","Male","cave","16","F_gnash.wav","space","657.085298619","215","1392955.60141","1385238.75056","1386005.02586","1386771.90744","1387538.69905","1388305.70399","1389072.28475","1389821.94095","1393721.56754","1394471.8056","1395238.0707","1396004.84376","1396771.65887","1397537.96106","1398305.44862","1384489.21493","1397546.77765"
"Mixed","Male","cave","16","M_cave.wav","None","721.178294327","215","1392955.60141","1385238.75056","1386005.02586","1386771.90744","1387538.69905","1388305.70399","1389072.28475","1389821.94095","1393721.56754","1394471.8056","1395238.0707","1396004.84376","1396771.65887","1397537.96106","1398305.44862","1399071.43732","1398315.35162"
"Mixed","Male","cave","16","F_depth.wav","None","720.423302475","215","1392955.60141","1399821.43021","1386005.02586","1386771.90744","1387538.69905","1388305.70399","1389072.28475","1389821.94095","1393721.56754","1394471.8056","1395238.0707","1396004.84376","1396771.65887","1397537.96106","1398305.44862","1399071.43732","1399080.46847"
"Mixed","Male","cave","16","F_cad.wav","space","36.8471268232","215","1392955.60141","1399821.43021","1400588.26448","1386771.90744","1387538.69905","1388305.70399","1389072.28475","1389821.94095","1393721.56754","1394471.8056","1395238.0707","1396004.84376","1396771.65887","1397537.96106","1398305.44862","1399071.43732","1399830.92851"
"Mixed","Male","cave","16","M_jaw.wav","None","731.889161507","215","1392955.60141","1399821.43021","1400588.26448","1401354.94108","1387538.69905","1388305.70399","1389072.28475","1389821.94095","1393721.56754","1394471.8056","1395238.0707","1396004.84376","1396771.65887","1397537.96106","1398305.44862","1399071.43732","1400597.33706"
"Mixed","Male","cave","16","M_cling.wav","None","729.066444234","215","1392955.60141","1399821.43021","1400588.26448","1401354.94108","1402121.25565","1388305.70399","1389072.28475","1389821.94095","1393721.56754","1394471.8056","1395238.0707","1396004.84376","1396771.65887","1397537.96106","1398305.44862","1399071.43732","1401364.57202"
"Mixed","Male","cave","16","F_ball.wav","None","727.949724096","215","1392955.60141","1399821.43021","1400588.26448","1401354.94108","1402121.25565","1402888.15176","1389072.28475","1389821.94095","1393721.56754","1394471.8056","1395238.0707","1396004.84376","1396771.65887","1397537.96106","1398305.44862","1399071.43732","1402130.03977"
"Mixed","Male","cave","16","M_cave.wav","None","724.862976087","215","1392955.60141","1399821.43021","1400588.26448","1401354.94108","1402121.25565","1402888.15176","1403655.0658","1389821.94095","1393721.56754","1394471.8056","1395238.0707","1396004.84376","1396771.65887","1397537.96106","1398305.44862","1399071.43732","1402897.5567"
"Mixed","Male","cave","16","F_greet.wav","space","715.883767116","215","1392955.60141","1399821.43021","1400588.26448","1401354.94108","1402121.25565","1402888.15176","1403655.0658","1404421.22764","1393721.56754","1394471.8056","1395238.0707","1396004.84376","1396771.65887","1397537.96106","1398305.44862","1399071.43732","1403663.75254"
"Mixed","Male","done","38","F_gnash.wav","None","720.659507955","215","1407538.367","1399821.43021","1400588.26448","1401354.94108","1402121.25565","1402888.15176","1403655.0658","1404421.22764","1393721.56754","1394471.8056","1395238.0707","1396004.84376","1396771.65887","1397537.96106","1398305.44862","1399071.43732","1404430.26095"
"Mixed","Male","done","38","M_done.wav","None","726.384089889","215","1407538.367","1399821.43021","1400588.26448","1401354.94108","1402121.25565","1402888.15176","1403655.0658","1404421.22764","1408305.20901","1394471.8056","1395238.0707","1396004.84376","1396771.65887","1397537.96106","1398305.44862","1399071.43732","1407542.67899"
"Mixed","Male","done","38","F_park.wav","space","536.012060082","215","1407538.367","1399821.43021","1400588.26448","1401354.94108","1402121.25565","1402888.15176","1403655.0658","1404421.22764","1408305.20901","1409054.45649","1395238.0707","1396004.84376","1396771.65887","1397537.96106","1398305.44862","1399071.43732","1408315.50899"
"Mixed","Male","done","38","F_park.wav","None","733.998624812","215","1407538.367","1399821.43021","1400588.26448","1401354.94108","1402121.25565","1402888.15176","1403655.0658","1404421.22764","1408305.20901","1409054.45649","1409821.26233","1396004.84376","1396771.65887","1397537.96106","1398305.44862","1399071.43732","1409063.56772"
"Mixed","Male","done","38","M_cave.wav","None","731.541964189","215","1407538.367","1399821.43021","1400588.26448","1401354.94108","1402121.25565","1402888.15176","1403655.0658","1404421.22764","1408305.20901","1409054.45649","1409821.26233","1410587.95841","1396771.65887","1397537.96106","1398305.44862","1399071.43732","1409830.55596"
"Mixed","Male","done","38","M_park.wav","None","729.549985284","215","1407538.367","1399821.43021","1400588.26448","1401354.94108","1402121.25565","1402888.15176","1403655.0658","1404421.22764","1408305.20901","1409054.45649","1409821.26233","1410587.95841","1411354.62573","1397537.96106","1398305.44862","1399071.43732","1410596.96884"
"Mixed","Male","done","38","F_reek.wav","None","726.891127822","215","1407538.367","1399821.43021","1400588.26448","1401354.94108","1402121.25565","1402888.15176","1403655.0658","1404421.22764","1408305.20901","1409054.45649","1409821.26233","1410587.95841","1411354.62573","1412121.21267","1398305.44862","1399071.43732","1411364.32623"
"Mixed","Male","done","38","M_done.wav","None","725.162252136","215","1407538.367","1399821.43021","1400588.26448","1401354.94108","1402121.25565","1402888.15176","1403655.0658","1404421.22764","1408305.20901","1409054.45649","1409821.26233","1410587.95841","1411354.62573","1412121.21267","1412888.59016","1399071.43732","1412130.49549"
"Mixed","Male","done","38","F_cad.wav","space","601.415934347","215","1407538.367","1399821.43021","1400588.26448","1401354.94108","1402121.25565","1402888.15176","1403655.0658","1404421.22764","1408305.20901","1409054.45649","1409821.26233","1410587.95841","1411354.62573","1412121.21267","1412888.59016","1413654.90596","1412897.93697"
"Mixed","Male","done","38","M_done.wav","None","719.392531457","215","1407538.367","1414404.45798","1400588.26448","1401354.94108","1402121.25565","1402888.15176","1403655.0658","1404421.22764","1408305.20901","1409054.45649","1409821.26233","1410587.95841","1411354.62573","1412121.21267","1412888.59016","1413654.90596","1413664.50444"
"Mixed","Male","done","38","M_romp.wav","space","636.827896487","215","1407538.367","1414404.45798","1415171.12747","1401354.94108","1402121.25565","1402888.15176","1403655.0658","1404421.22764","1408305.20901","1409054.45649","1409821.26233","1410587.95841","1411354.62573","1412121.21267","1412888.59016","1413654.90596","1414414.49207"
"Mixed","Male","done","38","M_reek.wav","None","732.152883065","215","1407538.367","1414404.45798","1415171.12747","1415937.48779","1402121.25565","1402888.15176","1403655.0658","1404421.22764","1408305.20901","1409054.45649","1409821.26233","1410587.95841","1411354.62573","1412121.21267","1412888.59016","1413654.90596","1415180.41492"
"Mixed","Male","done","38","M_done.wav","None","730.644136041","215","1407538.367","1414404.45798","1415171.12747","1415937.48779","1416704.4683","1402888.15176","1403655.0658","1404421.22764","1408305.20901","1409054.45649","1409821.26233","1410587.95841","1411354.62573","1412121.21267","1412888.59016","1413654.90596","1415946.37177"
"Mixed","Male","done","38","F_lash.wav","space","673.43943617","215","1407538.367","1414404.45798","1415171.12747","1415937.48779","1416704.4683","1417471.03669","1403655.0658","1404421.22764","1408305.20901","1409054.45649","1409821.26233","1410587.95841","1411354.62573","1412121.21267","1412888.59016","1413654.90596","1416713.80182"
"Mixed","Male","done","38","F_ball.wav","None","725.331058668","215","1407538.367","1414404.45798","1415171.12747","1415937.48779","1416704.4683","1417471.03669","1418238.09141","1404421.22764","1408305.20901","1409054.45649","1409821.26233","1410587.95841","1411354.62573","1412121.21267","1412888.59016","1413654.90596","1417480.63424"
"Mixed","Male","done","38","F_jolt.wav","None","722.367669281","215","1407538.367","1414404.45798","1415171.12747","1415937.48779","1416704.4683","1417471.03669","1418238.09141","1419004.64342","1408305.20901","1409054.45649","1409821.26233","1410587.95841","1411354.62573","1412121.21267","1412888.59016","1413654.90596","1418248.2467"
"Mixed","Female","ball","11","F_greet.wav","None","721.091108528","215","1422121.23864","1414404.45798","1415171.12747","1415937.48779","1416704.4683","1417471.03669","1418238.09141","1419004.64342","1408305.20901","1409054.45649","1409821.26233","1410587.95841","1411354.62573","1412121.21267","1412888.59016","1413654.90596","1419014.18562"
"Mixed","Female","ball","11","M_romp.wav","None","721.153251601","215","1422121.23864","1414404.45798","1415171.12747","1415937.48779","1416704.4683","1417471.03669","1418238.09141","1419004.64342","1422888.06674","1409054.45649","1409821.26233","1410587.95841","1411354.62573","1412121.21267","1412888.59016","1413654.90596","1422130.6544"
"Mixed","Female","ball","11","F_ball.wav","None","718.226035038","215","1422121.23864","1414404.45798","1415171.12747","1415937.48779","1416704.4683","1417471.03669","1418238.09141","1419004.64342","1422888.06674","1423637.63266","1409821.26233","1410587.95841","1411354.62573","1412121.21267","1412888.59016","1413654.90596","1422898.312"
"Mixed","Female","ball","11","M_greet.wav","space","484.239776997","215","1422121.23864","1414404.45798","1415171.12747","1415937.48779","1416704.4683","1417471.03669","1418238.09141","1419004.64342","1422888.06674","1423637.63266","1424404.20013","1410587.95841","1411354.62573","1412121.21267","1412888.59016","1413654.90596","1423646.83478"
"Mixed","Female","ball","11","M_lash.wav","None","731.256291598","215","1422121.23864","1414404.45798","1415171.12747","1415937.48779","1416704.4683","1417471.03669","1418238.09141","1419004.64342","1422888.06674","1423637.63266","1424404.20013","1425170.8724","1411354.62573","1412121.21267","1412888.59016","1413654.90596","1424413.91114"
"Mixed","Female","ball","11","F_ball.wav","None","729.646446161","215","1422121.23864","1414404.45798","1415171.12747","1415937.48779","1416704.4683","1417471.03669","1418238.09141","1419004.64342","1422888.06674","1423637.63266","1424404.20013","1425170.8724","1425937.52087","1412121.21267","1412888.59016","1413654.90596","1425180.17995"
"Mixed","Female","ball","11","F_bluff.wav","space","432.002503032","215","1422121.23864","1414404.45798","1415171.12747","1415937.48779","1416704.4683","1417471.03669","1418238.09141","1419004.64342","1422888.06674","1423637.63266","1424404.20013","1425170.8724","1425937.52087","1426704.06824","1412888.59016","1413654.90596","1425947.02165"
"Mixed","Female","ball","11","M_cad.wav","None","725.447306395","215","1422121.23864","1414404.45798","1415171.12747","1415937.48779","1416704.4683","1417471.03669","1418238.09141","1419004.64342","1422888.06674","1423637.63266","1424404.20013","1425170.8724","1425937.52087","1426704.06824","1427471.12203","1413654.90596","1426713.42278"
"Mixed","Female","ball","11","F_greet.wav","None","722.842862764","215","1422121.23864","1414404.45798","1415171.12747","1415937.48779","1416704.4683","1417471.03669","1418238.09141","1419004.64342","1422888.06674","1423637.63266","1424404.20013","1425170.8724","1425937.52087","1426704.06824","1427471.12203","1428237.27675","1427481.09954"
"Mixed","Female","ball","11","F_ball.wav","None","722.418991412","215","1422121.23864","1429003.90326","1415171.12747","1415937.48779","1416704.4683","1417471.03669","1418238.09141","1419004.64342","1422888.06674","1423637.63266","1424404.20013","1425170.8724","1425937.52087","1426704.06824","1427471.12203","1428237.27675","1428246.16259"
"Mixed","Female","ball","11","M_cling.wav","space","606.061514831","215","1422121.23864","1429003.90326","1429754.13576","1415937.48779","1416704.4683","1417471.03669","1418238.09141","1419004.64342","1422888.06674","1423637.63266","1424404.20013","1425170.8724","1425937.52087","1426704.06824","1427471.12203","1428237.27675","1429012.83981"
"Mixed","Female","ball","11","M_jaw.wav","None","735.815304637","215","1422121.23864","1429003.90326","1429754.13576","1430520.24009","1416704.4683","1417471.03669","1418238.09141","1419004.64342","1422888.06674","1423637.63266","1424404.20013","1425170.8724","1425937.52087","1426704.06824","1427471.12203","1428237.27675","1429763.4025"
"Mixed","Female","ball","11","F_ball.wav","None","734.764128429","215","1422121.23864","1429003.90326","1429754.13576","1430520.24009","1431287.34427","1417471.03669","1418238.09141","1419004.64342","1422888.06674","1423637.63266","1424404.20013","1425170.8724","1425937.52087","1426704.06824","1427471.12203","1428237.27675","1430529.01339"
"Mixed","Female","ball","11","M_knife.wav","space","705.937166873","215","1422121.23864","1429003.90326","1429754.13576","1430520.24009","1431287.34427","1432053.90401","1418238.09141","1419004.64342","1422888.06674","1423637.63266","1424404.20013","1425170.8724","1425937.52087","1426704.06824","1427471.12203","1428237.27675","1431296.88431"
"Mixed","Female","ball","11","M_jaw.wav","None","729.117148025","215","1422121.23864","1429003.90326","1429754.13576","1430520.24009","1431287.34427","1432053.90401","1432820.59297","1419004.64342","1422888.06674","1423637.63266","1424404.20013","1425170.8724","1425937.52087","1426704.06824","1427471.12203","1428237.27675","1432063.28823"
"Mixed","Female","ball","11","F_greet.wav","None","727.058079341","215","1422121.23864","1429003.90326","1429754.13576","1430520.24009","1431287.34427","1432053.90401","1432820.59297","1433587.25566","1422888.06674","1423637.63266","1424404.20013","1425170.8724","1425937.52087","1426704.06824","1427471.12203","1428237.27675","1432829.94999"
"Mixed","Male","tile","26","F_cad.wav","None","725.374960734","215","1436721.02866","1429003.90326","1429754.13576","1430520.24009","1431287.34427","1432053.90401","1432820.59297","1433587.25566","1422888.06674","1423637.63266","1424404.20013","1425170.8724","1425937.52087","1426704.06824","1427471.12203","1428237.27675","1433596.37122"
"Mixed","Male","tile","26","M_tile.wav","None","720.292523787","215","1436721.02866","1429003.90326","1429754.13576","1430520.24009","1431287.34427","1432053.90401","1432820.59297","1433587.25566","1437487.48451","1423637.63266","1424404.20013","1425170.8724","1425937.52087","1426704.06824","1427471.12203","1428237.27675","1436730.8723"
"Mixed","Male","tile","26","F_bluff.wav","space","705.460427547","215","1436721.02866","1429003.90326","1429754.13576","1430520.24009","1431287.34427","1432053.90401","1432820.59297","1433587.25566","1437487.48451","1438237.12989","1424404.20013","1425170.8724","1425937.52087","1426704.06824","1427471.12203","1428237.27675","1437497.16615"
"Mixed","Male","tile","26","M_cave.wav","None","733.46376163","215","1436721.02866","1429003.90326","1429754.13576","1430520.24009","1431287.34427","1432053.90401","1432820.59297","1433587.25566","1437487.48451","1438237.12989","1439003.78918","1425170.8724","1425937.52087","1426704.06824","1427471.12203","1428237.27675","1438246.37282"
"Mixed","Male","tile","26","M_dime.wav","None","731.468381855","215","1436721.02866","1429003.90326","1429754.13576","1430520.24009","1431287.34427","1432053.90401","1432820.59297","1433587.25566","1437487.48451","1438237.12989","1439003.78918","1439770.35077","1425937.52087","1426704.06824","1427471.12203","1428237.27675","1439013.19226"
"Mixed","Male","tile","26","F_ball.wav","None","729.783717405","215","1436721.02866","1429003.90326","1429754.13576","1430520.24009","1431287.34427","1432053.90401","1432820.59297","1433587.25566","1437487.48451","1438237.12989","1439003.78918","1439770.35077","1440536.99089","1426704.06824","1427471.12203","1428237.27675","1439779.63513"
"Mixed","Male","tile","26","M_tile.wav","None","728.242816753","215","1436721.02866","1429003.90326","1429754.13576","1430520.24009","1431287.34427","1432053.90401","1432820.59297","1433587.25566","1437487.48451","1438237.12989","1439003.78918","1439770.35077","1440536.99089","1441303.72098","1427471.12203","1428237.27675","1440546.0072"
"Mixed","Male","tile","26","M_jolt.wav","space","601.294430744","215","1436721.02866","1429003.90326","1429754.13576","1430520.24009","1431287.34427","1432053.90401","1432820.59297","1433587.25566","1437487.48451","1438237.12989","1439003.78918","1439770.35077","1440536.99089","1441303.72098","1442070.70551","1428237.27675","1441313.24031"
"Mixed","Male","tile","26","F_dime.wav","None","722.609439807","215","1436721.02866","1429003.90326","1429754.13576","1430520.24009","1431287.34427","1432053.90401","1432820.59297","1433587.25566","1437487.48451","1438237.12989","1439003.78918","1439770.35077","1440536.99089","1441303.72098","1442070.70551","1442837.41303","1442080.59306"
"Mixed","Male","tile","26","F_priest.wav","None","720.784721583","215","1436721.02866","1443603.89176","1429754.13576","1430520.24009","1431287.34427","1432053.90401","1432820.59297","1433587.25566","1437487.48451","1438237.12989","1439003.78918","1439770.35077","1440536.99089","1441303.72098","1442070.70551","1442837.41303","1442847.35747"
"Mixed","Male","tile","26","M_tile.wav","None","719.483118104","215","1436721.02866","1443603.89176","1444353.55044","1430520.24009","1431287.34427","1432053.90401","1432820.59297","1433587.25566","1437487.48451","1438237.12989","1439003.78918","1439770.35077","1440536.99089","1441303.72098","1442070.70551","1442837.41303","1443613.68687"
"Mixed","Male","tile","26","F_greet.wav","space","695.439626623","215","1436721.02866","1443603.89176","1444353.55044","1445120.0032","1431287.34427","1432053.90401","1432820.59297","1433587.25566","1437487.48451","1438237.12989","1439003.78918","1439770.35077","1440536.99089","1441303.72098","1442070.70551","1442837.41303","1444362.9798"
"Mixed","Male","tile","26","M_tile.wav","None","733.71233388","215","1436721.02866","1443603.89176","1444353.55044","1445120.0032","1445886.53728","1432053.90401","1432820.59297","1433587.25566","1437487.48451","1438237.12989","1439003.78918","1439770.35077","1440536.99089","1441303.72098","1442070.70551","1442837.41303","1445128.86338"
"Mixed","Male","tile","26","F_gnash.wav","space","642.611838964","215","1436721.02866","1443603.89176","1444353.55044","1445120.0032","1445886.53728","1446653.52336","1432820.59297","1433587.25566","1437487.48451","1438237.12989","1439003.78918","1439770.35077","1440536.99089","1441303.72098","1442070.70551","1442837.41303","1445895.77681"
"Mixed","Male","tile","26","M_cave.wav","None","728.641954549","215","1436721.02866","1443603.89176","1444353.55044","1445120.0032","1445886.53728","1446653.52336","1447420.17492","1433587.25566","1437487.48451","1438237.12989","1439003.78918","1439770.35077","1440536.99089","1441303.72098","1442070.70551","1442837.41303","1446662.9048"
"Mixed","Male","tile","26","F_priest.wav","None","726.583195028","215","1436721.02866","1443603.89176","1444353.55044","1445120.0032","1445886.53728","1446653.52336","1447420.17492","1448186.824","1437487.48451","1438237.12989","1439003.78918","1439770.35077","1440536.99089","1441303.72098","1442070.70551","1442837.41303","1447429.6828"
"Mixed","Female","tile","31","F_ball.wav","None","724.965311187","215","1451320.37934","1443603.89176","1444353.55044","1445120.0032","1445886.53728","1446653.52336","1447420.17492","1448186.824","1437487.48451","1438237.12989","1439003.78918","1439770.35077","1440536.99089","1441303.72098","1442070.70551","1442837.41303","1448196.17236"
"Mixed","Female","tile","31","F_tile.wav","None","720.931886259","215","1451320.37934","1443603.89176","1444353.55044","1445120.0032","1445886.53728","1446653.52336","1447420.17492","1448186.824","1452087.08067","1438237.12989","1439003.78918","1439770.35077","1440536.99089","1441303.72098","1442070.70551","1442837.41303","1451330.08046"
"Mixed","Female","tile","31","F_jolt.wav","space","656.800862707","215","1451320.37934","1443603.89176","1444353.55044","1445120.0032","1445886.53728","1446653.52336","1447420.17492","1448186.824","1452087.08067","1452836.56962","1439003.78918","1439770.35077","1440536.99089","1441303.72098","1442070.70551","1442837.41303","1452097.43074"
"Mixed","Female","tile","31","F_jolt.wav","None","734.149190343","215","1451320.37934","1443603.89176","1444353.55044","1445120.0032","1445886.53728","1446653.52336","1447420.17492","1448186.824","1452087.08067","1452836.56962","1453603.33588","1439770.35077","1440536.99089","1441303.72098","1442070.70551","1442837.41303","1452845.78441"
"Mixed","Female","tile","31","M_done.wav","None","732.085793294","215","1451320.37934","1443603.89176","1444353.55044","1445120.0032","1445886.53728","1446653.52336","1447420.17492","1448186.824","1452087.08067","1452836.56962","1453603.33588","1454370.02113","1440536.99089","1441303.72098","1442070.70551","1442837.41303","1453612.68207"
"Mixed","Female","tile","31","M_ball.wav","None","729.719410148","215","1451320.37934","1443603.89176","1444353.55044","1445120.0032","1445886.53728","1446653.52336","1447420.17492","1448186.824","1452087.08067","1452836.56962","1453603.33588","1454370.02113","1455136.27077","1441303.72098","1442070.70551","1442837.41303","1454379.82119"
"Mixed","Female","tile","31","F_tile.wav","None","729.390453838","215","1451320.37934","1443603.89176","1444353.55044","1445120.0032","1445886.53728","1446653.52336","1447420.17492","1448186.824","1452087.08067","1452836.56962","1453603.33588","1454370.02113","1455136.27077","1455903.19718","1442070.70551","1442837.41303","1455145.46269"
"Mixed","Female","tile","31","M_lash.wav","space","497.491398906","215","1451320.37934","1443603.89176","1444353.55044","1445120.0032","1445886.53728","1446653.52336","1447420.17492","1448186.824","1452087.08067","1452836.56962","1453603.33588","1454370.02113","1455136.27077","1455903.19718","1456669.93067","1442837.41303","1455912.60768"
"Mixed","Female","tile","31","F_tile.wav","None","724.657378385","215","1451320.37934","1443603.89176","1444353.55044","1445120.0032","1445886.53728","1446653.52336","1447420.17492","1448186.824","1452087.08067","1452836.56962","1453603.33588","1454370.02113","1455136.27077","1455903.19718","1456669.93067","1457436.9081","1456679.54553"
"Mixed","Female","tile","31","M_cling.wav","space","587.736112721","215","1451320.37934","1458203.6589","1444353.55044","1445120.0032","1445886.53728","1446653.52336","1447420.17492","1448186.824","1452087.08067","1452836.56962","1453603.33588","1454370.02113","1455136.27077","1455903.19718","1456669.93067","1457436.9081","1457446.29541"
"Mixed","Female","tile","31","M_park.wav","None","719.589781584","215","1451320.37934","1458203.6589","1458952.96605","1445120.0032","1445886.53728","1446653.52336","1447420.17492","1448186.824","1452087.08067","1452836.56962","1453603.33588","1454370.02113","1455136.27077","1455903.19718","1456669.93067","1457436.9081","1458213.64383"
"Mixed","Female","tile","31","M_cad.wav","None","735.5957943","215","1451320.37934","1458203.6589","1458952.96605","1459719.7218","1445886.53728","1446653.52336","1447420.17492","1448186.824","1452087.08067","1452836.56962","1453603.33588","1454370.02113","1455136.27077","1455903.19718","1456669.93067","1457436.9081","1458962.56823"
"Mixed","Female","tile","31","F_park.wav","None","733.928443348","215","1451320.37934","1458203.6589","1458952.96605","1459719.7218","1460486.07315","1446653.52336","1447420.17492","1448186.824","1452087.08067","1452836.56962","1453603.33588","1454370.02113","1455136.27077","1455903.19718","1456669.93067","1457436.9081","1459729.12457"
"Mixed","Female","tile","31","F_tile.wav","None","735.528086196","215","1451320.37934","1458203.6589","1458952.96605","1459719.7218","1460486.07315","1461252.99554","1447420.17492","1448186.824","1452087.08067","1452836.56962","1453603.33588","1454370.02113","1455136.27077","1455903.19718","1456669.93067","1457436.9081","1460494.96394"
"Mixed","Female","tile","31","M_gnash.wav","space","675.433270102","215","1451320.37934","1458203.6589","1458952.96605","1459719.7218","1460486.07315","1461252.99554","1462019.73305","1448186.824","1452087.08067","1452836.56962","1453603.33588","1454370.02113","1455136.27077","1455903.19718","1456669.93067","1457436.9081","1461262.43665"
"Mixed","Female","tile","31","M_dime.wav","None","730.586630518","215","1451320.37934","1458203.6589","1458952.96605","1459719.7218","1460486.07315","1461252.99554","1462019.73305","1462786.35029","1452087.08067","1452836.56962","1453603.33588","1454370.02113","1455136.27077","1455903.19718","1456669.93067","1457436.9081","1462028.95867"
"Mixed","Male","cave","15","F_lash.wav","None","729.402820616","215","1465919.94149","1458203.6589","1458952.96605","1459719.7218","1460486.07315","1461252.99554","1462019.73305","1462786.35029","1452087.08067","1452836.56962","1453603.33588","1454370.02113","1455136.27077","1455903.19718","1456669.93067","1457436.9081","1462795.16131"
"Mixed","Male","cave","15","F_gnash.wav","None","718.949800765","215","1465919.94149","1458203.6589","1458952.96605","1459719.7218","1460486.07315","1461252.99554","1462019.73305","1462786.35029","1466669.27987","1452836.56962","1453603.33588","1454370.02113","1455136.27077","1455903.19718","1456669.93067","1457436.9081","1465930.12615"
"Mixed","Male","cave","15","F_knife.wav","None","735.714206217","215","1465919.94149","1458203.6589","1458952.96605","1459719.7218","1460486.07315","1461252.99554","1462019.73305","1462786.35029","1466669.27987","1467436.17598","1453603.33588","1454370.02113","1455136.27077","1455903.19718","1456669.93067","1457436.9081","1466678.26804"
"Mixed","Male","cave","15","F_park.wav","None","734.620673793","215","1465919.94149","1458203.6589","1458952.96605","1459719.7218","1460486.07315","1461252.99554","1462019.73305","1462786.35029","1466669.27987","1467436.17598","1468202.75241","1454370.02113","1455136.27077","1455903.19718","1456669.93067","1457436.9081","1467444.78542"
"Mixed","Male","cave","15","M_cave.wav","None","731.906165827","215","1465919.94149","1458203.6589","1458952.96605","1459719.7218","1460486.07315","1461252.99554","1462019.73305","1462786.35029","1466669.27987","1467436.17598","1468202.75241","1468969.37707","1455136.27077","1455903.19718","1456669.93067","1457436.9081","1468212.26618"
"Mixed","Male","cave","15","F_ball.wav","space","558.811144452","215","1465919.94149","1458203.6589","1458952.96605","1459719.7218","1460486.07315","1461252.99554","1462019.73305","1462786.35029","1466669.27987","1467436.17598","1468202.75241","1468969.37707","1469736.2064","1455903.19718","1456669.93067","1457436.9081","1468978.89826"
"Mixed","Male","cave","15","F_greet.wav","None","727.68847589","215","1465919.94149","1458203.6589","1458952.96605","1459719.7218","1460486.07315","1461252.99554","1462019.73305","1462786.35029","1466669.27987","1467436.17598","1468202.75241","1468969.37707","1469736.2064","1470502.7884","1456669.93067","1457436.9081","1469745.26476"
"Mixed","Male","cave","15","M_cave.wav","None","725.78770198","215","1465919.94149","1458203.6589","1458952.96605","1459719.7218","1460486.07315","1461252.99554","1462019.73305","1462786.35029","1466669.27987","1467436.17598","1468202.75241","1468969.37707","1469736.2064","1470502.7884","1471269.81282","1457436.9081","1470512.14572"
"Mixed","Male","cave","15","M_park.wav","space","537.766287663","215","1465919.94149","1458203.6589","1458952.96605","1459719.7218","1460486.07315","1461252.99554","1462019.73305","1462786.35029","1466669.27987","1467436.17598","1468202.75241","1468969.37707","1469736.2064","1470502.7884","1471269.81282","1472035.86551","1471279.84258"
"Mixed","Male","cave","15","F_park.wav","None","722.221122953","215","1465919.94149","1472803.26774","1458952.96605","1459719.7218","1460486.07315","1461252.99554","1462019.73305","1462786.35029","1466669.27987","1467436.17598","1468202.75241","1468969.37707","1469736.2064","1470502.7884","1471269.81282","1472035.86551","1472044.72291"
"Mixed","Male","cave","15","M_knife.wav","None","719.220633226","215","1465919.94149","1472803.26774","1473552.32755","1459719.7218","1460486.07315","1461252.99554","1462019.73305","1462786.35029","1466669.27987","1467436.17598","1468202.75241","1468969.37707","1469736.2064","1470502.7884","1471269.81282","1472035.86551","1472812.61918"
"Mixed","Male","cave","15","M_greet.wav","None","735.16326621","215","1465919.94149","1472803.26774","1473552.32755","1474319.31549","1460486.07315","1461252.99554","1462019.73305","1462786.35029","1466669.27987","1467436.17598","1468202.75241","1468969.37707","1469736.2064","1470502.7884","1471269.81282","1472035.86551","1473561.4666"
"Mixed","Male","cave","15","M_cave.wav","None","732.688055418","215","1465919.94149","1472803.26774","1473552.32755","1474319.31549","1475086.00971","1461252.99554","1462019.73305","1462786.35029","1466669.27987","1467436.17598","1468202.75241","1468969.37707","1469736.2064","1470502.7884","1471269.81282","1472035.86551","1474328.74454"
"Mixed","Male","cave","15","M_ball.wav","space","569.803974184","215","1465919.94149","1472803.26774","1473552.32755","1474319.31549","1475086.00971","1475852.63406","1462019.73305","1462786.35029","1466669.27987","1467436.17598","1468202.75241","1468969.37707","1469736.2064","1470502.7884","1471269.81282","1472035.86551","1475095.65054"
"Mixed","Male","cave","15","M_cave.wav","None","728.525088482","215","1465919.94149","1472803.26774","1473552.32755","1474319.31549","1475086.00971","1475852.63406","1476619.28717","1462786.35029","1466669.27987","1467436.17598","1468202.75241","1468969.37707","1469736.2064","1470502.7884","1471269.81282","1472035.86551","1475861.97747"
"Mixed","Male","cave","15","F_greet.wav","None","726.499719269","215","1465919.94149","1472803.26774","1473552.32755","1474319.31549","1475086.00971","1475852.63406","1476619.28717","1477385.97984","1466669.27987","1467436.17598","1468202.75241","1468969.37707","1469736.2064","1470502.7884","1471269.81282","1472035.86551","1476628.8504"
"Mixed","Female","cave","21","F_lash.wav","space","38.1298709619","215","1480519.59331","1472803.26774","1473552.32755","1474319.31549","1475086.00971","1475852.63406","1476619.28717","1477385.97984","1466669.27987","1467436.17598","1468202.75241","1468969.37707","1469736.2064","1470502.7884","1471269.81282","1472035.86551","1477395.30996"
"Mixed","Female","cave","21","F_cave.wav","None","720.359613559","215","1480519.59331","1472803.26774","1473552.32755","1474319.31549","1475086.00971","1475852.63406","1476619.28717","1477385.97984","1481286.29959","1467436.17598","1468202.75241","1468969.37707","1469736.2064","1470502.7884","1471269.81282","1472035.86551","1480529.57082"
"Mixed","Female","cave","21","M_cling.wav","space","673.245277751","215","1480519.59331","1472803.26774","1473552.32755","1474319.31549","1475086.00971","1475852.63406","1476619.28717","1477385.97984","1481286.29959","1482035.76751","1468202.75241","1468969.37707","1469736.2064","1470502.7884","1471269.81282","1472035.86551","1481296.06965"
"Mixed","Female","cave","21","F_cave.wav","None","734.017174982","215","1480519.59331","1472803.26774","1473552.32755","1474319.31549","1475086.00971","1475852.63406","1476619.28717","1477385.97984","1481286.29959","1482035.76751","1482802.42185","1468969.37707","1469736.2064","1470502.7884","1471269.81282","1472035.86551","1482044.91181"
"Mixed","Female","cave","21","F_jolt.wav","space","565.422424436","215","1480519.59331","1472803.26774","1473552.32755","1474319.31549","1475086.00971","1475852.63406","1476619.28717","1477385.97984","1481286.29959","1482035.76751","1482802.42185","1483569.02765","1469736.2064","1470502.7884","1471269.81282","1472035.86551","1482811.82369"
"Mixed","Female","cave","21","F_cave.wav","None","729.033672265","215","1480519.59331","1472803.26774","1473552.32755","1474319.31549","1475086.00971","1475852.63406","1476619.28717","1477385.97984","1481286.29959","1482035.76751","1482802.42185","1483569.02765","1484335.84709","1470502.7884","1471269.81282","1472035.86551","1483578.79895"
"Mixed","Female","cave","21","M_cling.wav","space","567.839511365","215","1480519.59331","1472803.26774","1473552.32755","1474319.31549","1475086.00971","1475852.63406","1476619.28717","1477385.97984","1481286.29959","1482035.76751","1482802.42185","1483569.02765","1484335.84709","1485102.42074","1471269.81282","1472035.86551","1484345.38806"
"Mixed","Female","cave","21","F_tile.wav","None","724.467239168","215","1480519.59331","1472803.26774","1473552.32755","1474319.31549","1475086.00971","1475852.63406","1476619.28717","1477385.97984","1481286.29959","1482035.76751","1482802.42185","1483569.02765","1484335.84709","1485102.42074","1485869.38146","1472035.86551","1485112.06064"
"Mixed","Female","cave","21","M_jaw.wav","None","722.21370288","215","1480519.59331","1472803.26774","1473552.32755","1474319.31549","1475086.00971","1475852.63406","1476619.28717","1477385.97984","1481286.29959","1482035.76751","1482802.42185","1483569.02765","1484335.84709","1485102.42074","1485869.38146","1486635.61162","1485879.37475"
"Mixed","Female","cave","21","M_depth.wav","None","721.670492123","215","1480519.59331","1487402.1389","1473552.32755","1474319.31549","1475086.00971","1475852.63406","1476619.28717","1477385.97984","1481286.29959","1482035.76751","1482802.42185","1483569.02765","1484335.84709","1485102.42074","1485869.38146","1486635.61162","1486645.07221"
"Mixed","Female","cave","21","F_cave.wav","None","720.608185817","215","1480519.59331","1487402.1389","1488152.07335","1474319.31549","1475086.00971","1475852.63406","1476619.28717","1477385.97984","1481286.29959","1482035.76751","1482802.42185","1483569.02765","1484335.84709","1485102.42074","1485869.38146","1486635.61162","1487411.09894"
"Mixed","Female","cave","21","M_knife.wav","space","495.816937044","215","1480519.59331","1487402.1389","1488152.07335","1488918.83003","1475086.00971","1475852.63406","1476619.28717","1477385.97984","1481286.29959","1482035.76751","1482802.42185","1483569.02765","1484335.84709","1485102.42074","1485869.38146","1486635.61162","1488161.29588"
"Mixed","Female","cave","21","M_greet.wav","None","732.691456287","215","1480519.59331","1487402.1389","1488152.07335","1488918.83003","1489685.74624","1475852.63406","1476619.28717","1477385.97984","1481286.29959","1482035.76751","1482802.42185","1483569.02765","1484335.84709","1485102.42074","1485869.38146","1486635.61162","1488928.3206"
"Mixed","Female","cave","21","M_gnash.wav","None","730.415968974","215","1480519.59331","1487402.1389","1488152.07335","1488918.83003","1489685.74624","1490452.17828","1476619.28717","1477385.97984","1481286.29959","1482035.76751","1482802.42185","1483569.02765","1484335.84709","1485102.42074","1485869.38146","1486635.61162","1489695.58555"
"Mixed","Female","cave","21","F_tile.wav","None","730.050530656","215","1480519.59331","1487402.1389","1488152.07335","1488918.83003","1489685.74624","1490452.17828","1491218.62641","1477385.97984","1481286.29959","1482035.76751","1482802.42185","1483569.02765","1484335.84709","1485102.42074","1485869.38146","1486635.61162","1490461.59157"
"Mixed","Female","cave","21","M_lash.wav","None","729.157340058","215","1480519.59331","1487402.1389","1488152.07335","1488918.83003","1489685.74624","1490452.17828","1491218.62641","1491985.16296","1481286.29959","1482035.76751","1482802.42185","1483569.02765","1484335.84709","1485102.42074","1485869.38146","1486635.61162","1491227.83224"
"Mixed","Female","ball","8","M_cad.wav","None","727.464018862","215","1495119.10816","1487402.1389","1488152.07335","1488918.83003","1489685.74624","1490452.17828","1491218.62641","1491985.16296","1481286.29959","1482035.76751","1482802.42185","1483569.02765","1484335.84709","1485102.42074","1485869.38146","1486635.61162","1491994.09641"
"Mixed","Female","ball","8","F_greet.wav","None","720.448654371","215","1495119.10816","1487402.1389","1488152.07335","1488918.83003","1489685.74624","1490452.17828","1491218.62641","1491985.16296","1495885.1556","1482035.76751","1482802.42185","1483569.02765","1484335.84709","1485102.42074","1485869.38146","1486635.61162","1495129.12308"
"Mixed","Female","ball","8","F_cling.wav","None","720.606330804","215","1495119.10816","1487402.1389","1488152.07335","1488918.83003","1489685.74624","1490452.17828","1491218.62641","1491985.16296","1495885.1556","1496634.98494","1482802.42185","1483569.02765","1484335.84709","1485102.42074","1485869.38146","1486635.61162","1495894.10111"
"Mixed","Female","ball","8","M_knife.wav","None","735.879302716","215","1495119.10816","1487402.1389","1488152.07335","1488918.83003","1489685.74624","1490452.17828","1491218.62641","1491985.16296","1495885.1556","1496634.98494","1497401.99946","1483569.02765","1484335.84709","1485102.42074","1485869.38146","1486635.61162","1496643.98424"
"Mixed","Female","ball","8","F_ball.wav","None","733.47643757","215","1495119.10816","1487402.1389","1488152.07335","1488918.83003","1489685.74624","1490452.17828","1491218.62641","1491985.16296","1495885.1556","1496634.98494","1497401.99946","1498168.20643","1484335.84709","1485102.42074","1485869.38146","1486635.61162","1497411.30052"
"Mixed","Female","ball","8","F_greet.wav","space","399.378012858","215","1495119.10816","1487402.1389","1488152.07335","1488918.83003","1489685.74624","1490452.17828","1491218.62641","1491985.16296","1495885.1556","1496634.98494","1497401.99946","1498168.20643","1498935.36256","1485102.42074","1485869.38146","1486635.61162","1498177.44256"
"Mixed","Female","ball","8","M_greet.wav","None","729.367884465","215","1495119.10816","1487402.1389","1488152.07335","1488918.83003","1489685.74624","1490452.17828","1491218.62641","1491985.16296","1495885.1556","1496634.98494","1497401.99946","1498168.20643","1498935.36256","1499701.53212","1485869.38146","1486635.61162","1498944.59436"
"Mixed","Female","ball","8","M_tile.wav","None","728.172326119","215","1495119.10816","1487402.1389","1488152.07335","1488918.83003","1489685.74624","1490452.17828","1491218.62641","1491985.16296","1495885.1556","1496634.98494","1497401.99946","1498168.20643","1498935.36256","1499701.53212","1500468.5485","1486635.61162","1499710.83565"
"Mixed","Female","ball","8","F_ball.wav","None","726.253002038","215","1495119.10816","1487402.1389","1488152.07335","1488918.83003","1489685.74624","1490452.17828","1491218.62641","1491985.16296","1495885.1556","1496634.98494","1497401.99946","1498168.20643","1498935.36256","1499701.53212","1500468.5485","1501235.26931","1500477.9726"
"Mixed","Female","ball","8","M_greet.wav","space","475.950634289","215","1495119.10816","1502002.15862","1488152.07335","1488918.83003","1489685.74624","1490452.17828","1491218.62641","1491985.16296","1495885.1556","1496634.98494","1497401.99946","1498168.20643","1498935.36256","1499701.53212","1500468.5485","1501235.26931","1501244.76143"
"Mixed","Female","ball","8","F_ball.wav","None","722.113841141","215","1495119.10816","1502002.15862","1502768.80616","1488918.83003","1489685.74624","1490452.17828","1491218.62641","1491985.16296","1495885.1556","1496634.98494","1497401.99946","1498168.20643","1498935.36256","1499701.53212","1500468.5485","1501235.26931","1502011.49028"
"Mixed","Female","ball","8","M_gnash.wav","space","638.000885461","215","1495119.10816","1502002.15862","1502768.80616","1503518.2648","1489685.74624","1490452.17828","1491218.62641","1491985.16296","1495885.1556","1496634.98494","1497401.99946","1498168.20643","1498935.36256","1499701.53212","1500468.5485","1501235.26931","1502778.65043"
"Mixed","Female","ball","8","F_jaw.wav","None","735.513246058","215","1495119.10816","1502002.15862","1502768.80616","1503518.2648","1504284.98191","1490452.17828","1491218.62641","1491985.16296","1495885.1556","1496634.98494","1497401.99946","1498168.20643","1498935.36256","1499701.53212","1500468.5485","1501235.26931","1503527.74116"
"Mixed","Female","ball","8","F_ball.wav","None","733.989040564","215","1495119.10816","1502002.15862","1502768.80616","1503518.2648","1504284.98191","1505052.07651","1491218.62641","1491985.16296","1495885.1556","1496634.98494","1497401.99946","1498168.20643","1498935.36256","1499701.53212","1500468.5485","1501235.26931","1504294.45764"
"Mixed","Female","ball","8","M_priest.wav","space","674.856359859","215","1495119.10816","1502002.15862","1502768.80616","1503518.2648","1504284.98191","1505052.07651","1505818.29894","1491985.16296","1495885.1556","1496634.98494","1497401.99946","1498168.20643","1498935.36256","1499701.53212","1500468.5485","1501235.26931","1505061.75969"
"Mixed","Female","ball","8","M_priest.wav","None","729.889453359","215","1495119.10816","1502002.15862","1502768.80616","1503518.2648","1504284.98191","1505052.07651","1505818.29894","1506585.0012","1495885.1556","1496634.98494","1497401.99946","1498168.20643","1498935.36256","1499701.53212","1500468.5485","1501235.26931","1505827.80806"
"Mixed","Female","ball","9","M_park.wav","None","728.799940145","215","1509718.6193","1502002.15862","1502768.80616","1503518.2648","1504284.98191","1505052.07651","1505818.29894","1506585.0012","1495885.1556","1496634.98494","1497401.99946","1498168.20643","1498935.36256","1499701.53212","1500468.5485","1501235.26931","1506593.99401"
"Mixed","Female","ball","9","M_park.wav","None","720.361777756","215","1509718.6193","1502002.15862","1502768.80616","1503518.2648","1504284.98191","1505052.07651","1505818.29894","1506585.0012","1510485.32991","1496634.98494","1497401.99946","1498168.20643","1498935.36256","1499701.53212","1500468.5485","1501235.26931","1509728.68524"
"Mixed","Female","ball","9","F_ball.wav","None","718.799235241","215","1509718.6193","1502002.15862","1502768.80616","1503518.2648","1504284.98191","1505052.07651","1505818.29894","1506585.0012","1510485.32991","1511234.45527","1497401.99946","1498168.20643","1498935.36256","1499701.53212","1500468.5485","1501235.26931","1510495.28826"
"Mixed","Female","ball","9","F_dime.wav","space","612.411237445","215","1509718.6193","1502002.15862","1502768.80616","1503518.2648","1504284.98191","1505052.07651","1505818.29894","1506585.0012","1510485.32991","1511234.45527","1512001.62778","1498168.20643","1498935.36256","1499701.53212","1500468.5485","1501235.26931","1511244.01201"
"Mixed","Female","ball","9","F_lash.wav","None","732.166177353","215","1509718.6193","1502002.15862","1502768.80616","1503518.2648","1504284.98191","1505052.07651","1505818.29894","1506585.0012","1510485.32991","1511234.45527","1512001.62778","1512767.82795","1498935.36256","1499701.53212","1500468.5485","1501235.26931","1512011.08496"
"Mixed","Female","ball","9","M_bluff.wav","None","731.263711663","215","1509718.6193","1502002.15862","1502768.80616","1503518.2648","1504284.98191","1505052.07651","1505818.29894","1506585.0012","1510485.32991","1511234.45527","1512001.62778","1512767.82795","1513534.50177","1499701.53212","1500468.5485","1501235.26931","1512777.01276"
"Mixed","Female","ball","9","F_ball.wav","None","729.951905596","215","1509718.6193","1502002.15862","1502768.80616","1503518.2648","1504284.98191","1505052.07651","1505818.29894","1506585.0012","1510485.32991","1511234.45527","1512001.62778","1512767.82795","1513534.50177","1514301.52526","1500468.5485","1501235.26931","1513543.46304"
"Mixed","Female","ball","9","M_romp.wav","space","449.32094017","215","1509718.6193","1502002.15862","1502768.80616","1503518.2648","1504284.98191","1505052.07651","1505818.29894","1506585.0012","1510485.32991","1511234.45527","1512001.62778","1512767.82795","1513534.50177","1514301.52526","1515069.00477","1501235.26931","1514311.00656"
"Mixed","Female","ball","9","F_ball.wav","None","724.109220915","215","1509718.6193","1502002.15862","1502768.80616","1503518.2648","1504284.98191","1505052.07651","1505818.29894","1506585.0012","1510485.32991","1511234.45527","1512001.62778","1512767.82795","1513534.50177","1514301.52526","1515069.00477","1515835.17835","1515078.25481"
"Mixed","Female","ball","9","M_romp.wav","space","579.328248939","215","1509718.6193","1516601.76932","1502768.80616","1503518.2648","1504284.98191","1505052.07651","1505818.29894","1506585.0012","1510485.32991","1511234.45527","1512001.62778","1512767.82795","1513534.50177","1514301.52526","1515069.00477","1515835.17835","1515844.97099"
"Mixed","Female","ball","9","M_priest.wav","None","720.266862721","215","1509718.6193","1516601.76932","1517367.80037","1503518.2648","1504284.98191","1505052.07651","1505818.29894","1506585.0012","1510485.32991","1511234.45527","1512001.62778","1512767.82795","1513534.50177","1514301.52526","1515069.00477","1515835.17835","1516611.67758"
"Mixed","Female","ball","9","F_ball.wav","None","720.255732623","215","1509718.6193","1516601.76932","1517367.80037","1518117.75492","1504284.98191","1505052.07651","1505818.29894","1506585.0012","1510485.32991","1511234.45527","1512001.62778","1512767.82795","1513534.50177","1514301.52526","1515069.00477","1515835.17835","1517376.91561"
"Mixed","Female","ball","9","F_knife.wav","space","489.243066564","215","1509718.6193","1516601.76932","1517367.80037","1518117.75492","1518884.30569","1505052.07651","1505818.29894","1506585.0012","1510485.32991","1511234.45527","1512001.62778","1512767.82795","1513534.50177","1514301.52526","1515069.00477","1515835.17835","1518126.9926"
"Mixed","Female","ball","9","M_dime.wav","None","733.065551343","215","1509718.6193","1516601.76932","1517367.80037","1518117.75492","1518884.30569","1519651.26642","1505818.29894","1506585.0012","1510485.32991","1511234.45527","1512001.62778","1512767.82795","1513534.50177","1514301.52526","1515069.00477","1515835.17835","1518893.26821"
"Mixed","Female","ball","9","M_gnash.wav","None","731.040182138","215","1509718.6193","1516601.76932","1517367.80037","1518117.75492","1518884.30569","1519651.26642","1520417.75103","1506585.0012","1510485.32991","1511234.45527","1512001.62778","1512767.82795","1513534.50177","1514301.52526","1515069.00477","1515835.17835","1519660.58046"
"Mixed","Female","ball","9","F_jolt.wav","None","729.748781254","215","1509718.6193","1516601.76932","1517367.80037","1518117.75492","1518884.30569","1519651.26642","1520417.75103","1521184.18122","1510485.32991","1511234.45527","1512001.62778","1512767.82795","1513534.50177","1514301.52526","1515069.00477","1515835.17835","1520427.08145"
"Mixed","Female","cave","24","M_cad.wav","None","729.336349177","215","1524317.62217","1516601.76932","1517367.80037","1518117.75492","1518884.30569","1519651.26642","1520417.75103","1521184.18122","1510485.32991","1511234.45527","1512001.62778","1512767.82795","1513534.50177","1514301.52526","1515069.00477","1515835.17835","1521193.15765"
"Mixed","Female","cave","24","F_greet.wav","None","722.017071101","215","1524317.62217","1516601.76932","1517367.80037","1518117.75492","1518884.30569","1519651.26642","1520417.75103","1521184.18122","1525084.35009","1511234.45527","1512001.62778","1512767.82795","1513534.50177","1514301.52526","1515069.00477","1515835.17835","1524326.62518"
"Mixed","Female","cave","24","F_cave.wav","None","720.486063874","215","1524317.62217","1516601.76932","1517367.80037","1518117.75492","1518884.30569","1519651.26642","1520417.75103","1521184.18122","1525084.35009","1525834.39275","1512001.62778","1512767.82795","1513534.50177","1514301.52526","1515069.00477","1515835.17835","1525093.23871"
"Mixed","Female","cave","24","M_ball.wav","space","604.533599297","215","1524317.62217","1516601.76932","1517367.80037","1518117.75492","1518884.30569","1519651.26642","1520417.75103","1521184.18122","1525084.35009","1525834.39275","1526601.18344","1512767.82795","1513534.50177","1514301.52526","1515069.00477","1515835.17835","1525843.38711"
"Mixed","Female","cave","24","M_romp.wav","None","732.331273859","215","1524317.62217","1516601.76932","1517367.80037","1518117.75492","1518884.30569","1519651.26642","1520417.75103","1521184.18122","1525084.35009","1525834.39275","1526601.18344","1527367.39907","1513534.50177","1514301.52526","1515069.00477","1515835.17835","1526610.60631"
"Mixed","Female","cave","24","F_gnash.wav","None","731.71169823","215","1524317.62217","1516601.76932","1517367.80037","1518117.75492","1518884.30569","1519651.26642","1520417.75103","1521184.18122","1525084.35009","1525834.39275","1526601.18344","1527367.39907","1528134.41019","1514301.52526","1515069.00477","1515835.17835","1527376.36436"
"Mixed","Female","cave","24","M_cling.wav","None","730.219955527","215","1524317.62217","1516601.76932","1517367.80037","1518117.75492","1518884.30569","1519651.26642","1520417.75103","1521184.18122","1525084.35009","1525834.39275","1526601.18344","1527367.39907","1528134.41019","1528901.12235","1515069.00477","1515835.17835","1528143.49112"
"Mixed","Female","cave","24","F_cave.wav","None","728.599907496","215","1524317.62217","1516601.76932","1517367.80037","1518117.75492","1518884.30569","1519651.26642","1520417.75103","1521184.18122","1525084.35009","1525834.39275","1526601.18344","1527367.39907","1528134.41019","1528901.12235","1529667.80297","1515835.17835","1528910.43979"
"Mixed","Female","cave","24","M_reek.wav","space","586.500671518","215","1524317.62217","1516601.76932","1517367.80037","1518117.75492","1518884.30569","1519651.26642","1520417.75103","1521184.18122","1525084.35009","1525834.39275","1526601.18344","1527367.39907","1528134.41019","1528901.12235","1529667.80297","1530434.81193","1529677.36929"
"Mixed","Female","cave","24","F_cave.wav","None","724.092834935","215","1524317.62217","1531201.45823","1517367.80037","1518117.75492","1518884.30569","1519651.26642","1520417.75103","1521184.18122","1525084.35009","1525834.39275","1526601.18344","1527367.39907","1528134.41019","1528901.12235","1529667.80297","1530434.81193","1530443.91047"
"Mixed","Female","cave","24","F_tile.wav","None","722.484226178","215","1524317.62217","1531201.45823","1531967.40117","1518117.75492","1518884.30569","1519651.26642","1520417.75103","1521184.18122","1525084.35009","1525834.39275","1526601.18344","1527367.39907","1528134.41019","1528901.12235","1529667.80297","1530434.81193","1531211.04743"
"Mixed","Female","cave","24","M_park.wav","space","127.544773924","215","1524317.62217","1531201.45823","1531967.40117","1532717.56936","1518884.30569","1519651.26642","1520417.75103","1521184.18122","1525084.35009","1525834.39275","1526601.18344","1527367.39907","1528134.41019","1528901.12235","1529667.80297","1530434.81193","1531976.28546"
"Mixed","Female","cave","24","M_done.wav","None","735.38370405","215","1524317.62217","1531201.45823","1531967.40117","1532717.56936","1533484.18536","1519651.26642","1520417.75103","1521184.18122","1525084.35009","1525834.39275","1526601.18344","1527367.39907","1528134.41019","1528901.12235","1529667.80297","1530434.81193","1532727.00243"
"Mixed","Female","cave","24","F_knife.wav","None","734.432080411","215","1524317.62217","1531201.45823","1531967.40117","1532717.56936","1533484.18536","1534250.9374","1520417.75103","1521184.18122","1525084.35009","1525834.39275","1526601.18344","1527367.39907","1528134.41019","1528901.12235","1529667.80297","1530434.81193","1533493.16117"
"Mixed","Female","cave","24","F_cave.wav","None","732.318597904","215","1524317.62217","1531201.45823","1531967.40117","1532717.56936","1533484.18536","1534250.9374","1535017.43994","1521184.18122","1525084.35009","1525834.39275","1526601.18344","1527367.39907","1528134.41019","1528901.12235","1529667.80297","1530434.81193","1534260.47683"
"Mixed","Female","cave","24","M_reek.wav","space","604.775060659","215","1524317.62217","1531201.45823","1531967.40117","1532717.56936","1533484.18536","1534250.9374","1535017.43994","1535784.19353","1525084.35009","1525834.39275","1526601.18344","1527367.39907","1528134.41019","1528901.12235","1529667.80297","1530434.81193","1535026.92773"
"Mixed","Male","tile","25","M_jaw.wav","None","728.538382769","215","1538917.67157","1531201.45823","1531967.40117","1532717.56936","1533484.18536","1534250.9374","1535017.43994","1535784.19353","1525084.35009","1525834.39275","1526601.18344","1527367.39907","1528134.41019","1528901.12235","1529667.80297","1530434.81193","1535793.56785"
"Mixed","Male","tile","25","F_reek.wav","None","720.979498357","215","1538917.67157","1531201.45823","1531967.40117","1532717.56936","1533484.18536","1534250.9374","1535017.43994","1535784.19353","1539684.77173","1525834.39275","1526601.18344","1527367.39907","1528134.41019","1528901.12235","1529667.80297","1530434.81193","1538927.28025"
"Mixed","Male","tile","25","F_jolt.wav","None","719.491774857","215","1538917.67157","1531201.45823","1531967.40117","1532717.56936","1533484.18536","1534250.9374","1535017.43994","1535784.19353","1539684.77173","1540434.08414","1526601.18344","1527367.39907","1528134.41019","1528901.12235","1529667.80297","1530434.81193","1539694.13524"
"Mixed","Male","tile","25","F_gnash.wav","None","736.378611407","215","1538917.67157","1531201.45823","1531967.40117","1532717.56936","1533484.18536","1534250.9374","1535017.43994","1535784.19353","1539684.77173","1540434.08414","1541200.22743","1527367.39907","1528134.41019","1528901.12235","1529667.80297","1530434.81193","1540442.75418"
"Mixed","Male","tile","25","M_tile.wav","None","735.121528334","215","1538917.67157","1531201.45823","1531967.40117","1532717.56936","1533484.18536","1534250.9374","1535017.43994","1535784.19353","1539684.77173","1540434.08414","1541200.22743","1541967.11179","1528134.41019","1528901.12235","1529667.80297","1530434.81193","1541209.51117"
"Mixed","Male","tile","25","M_gnash.wav","None","733.636587364","215","1538917.67157","1531201.45823","1531967.40117","1532717.56936","1533484.18536","1534250.9374","1535017.43994","1535784.19353","1539684.77173","1540434.08414","1541200.22743","1541967.11179","1542733.99924","1528901.12235","1529667.80297","1530434.81193","1541976.20817"
"Mixed","Male","tile","25","F_lash.wav","space","256.556247819","215","1538917.67157","1531201.45823","1531967.40117","1532717.56936","1533484.18536","1534250.9374","1535017.43994","1535784.19353","1539684.77173","1540434.08414","1541200.22743","1541967.11179","1542733.99924","1543500.65977","1529667.80297","1530434.81193","1542742.94012"
"Mixed","Male","tile","25","F_greet.wav","None","729.739197006","215","1538917.67157","1531201.45823","1531967.40117","1532717.56936","1533484.18536","1534250.9374","1535017.43994","1535784.19353","1539684.77173","1540434.08414","1541200.22743","1541967.11179","1542733.99924","1543500.65977","1544267.19168","1530434.81193","1543509.96144"
"Mixed","Male","tile","25","M_depth.wav","None","728.164287706","215","1538917.67157","1531201.45823","1531967.40117","1532717.56936","1533484.18536","1534250.9374","1535017.43994","1535784.19353","1539684.77173","1540434.08414","1541200.22743","1541967.11179","1542733.99924","1543500.65977","1544267.19168","1545033.96659","1544276.97936"
"Mixed","Male","tile","25","M_tile.wav","None","727.469583908","215","1538917.67157","1545800.31362","1531967.40117","1532717.56936","1533484.18536","1534250.9374","1535017.43994","1535784.19353","1539684.77173","1540434.08414","1541200.22743","1541967.11179","1542733.99924","1543500.65977","1544267.19168","1545033.96659","1545042.99744"
"Mixed","Male","tile","25","F_cave.wav","space","526.100395982","215","1538917.67157","1545800.31362","1546567.61536","1532717.56936","1533484.18536","1534250.9374","1535017.43994","1535784.19353","1539684.77173","1540434.08414","1541200.22743","1541967.11179","1542733.99924","1543500.65977","1544267.19168","1545033.96659","1545809.3188"
"Mixed","Male","tile","25","F_jaw.wav","None","722.432904047","215","1538917.67157","1545800.31362","1546567.61536","1547334.28516","1533484.18536","1534250.9374","1535017.43994","1535784.19353","1539684.77173","1540434.08414","1541200.22743","1541967.11179","1542733.99924","1543500.65977","1544267.19168","1545033.96659","1546577.47107"
"Mixed","Male","tile","25","M_tile.wav","None","721.388838734","215","1538917.67157","1545800.31362","1546567.61536","1547334.28516","1548101.09007","1534250.9374","1535017.43994","1535784.19353","1539684.77173","1540434.08414","1541200.22743","1541967.11179","1542733.99924","1543500.65977","1544267.19168","1545033.96659","1547343.96866"
"Mixed","Male","tile","25","M_jolt.wav","space","543.959261355","215","1538917.67157","1545800.31362","1546567.61536","1547334.28516","1548101.09007","1548850.23491","1535017.43994","1535784.19353","1539684.77173","1540434.08414","1541200.22743","1541967.11179","1542733.99924","1543500.65977","1544267.19168","1545033.96659","1548111.35419"
"Mixed","Male","tile","25","M_tile.wav","None","735.591156765","215","1538917.67157","1545800.31362","1546567.61536","1547334.28516","1548101.09007","1548850.23491","1549616.98354","1535784.19353","1539684.77173","1540434.08414","1541200.22743","1541967.11179","1542733.99924","1543500.65977","1544267.19168","1545033.96659","1548859.7428"
"Mixed","Male","tile","25","F_depth.wav","space","700.806499488","215","1538917.67157","1545800.31362","1546567.61536","1547334.28516","1548101.09007","1548850.23491","1549616.98354","1550383.87255","1539684.77173","1540434.08414","1541200.22743","1541967.11179","1542733.99924","1543500.65977","1544267.19168","1545033.96659","1549626.47288"
"Mixed","Male","tile","27","M_reek.wav","None","731.151792315","215","1553517.35894","1545800.31362","1546567.61536","1547334.28516","1548101.09007","1548850.23491","1549616.98354","1550383.87255","1539684.77173","1540434.08414","1541200.22743","1541967.11179","1542733.99924","1543500.65977","1544267.19168","1545033.96659","1550393.7267"
"Mixed","Male","tile","27","M_tile.wav","None","720.514507462","215","1553517.35894","1545800.31362","1546567.61536","1547334.28516","1548101.09007","1548850.23491","1549616.98354","1550383.87255","1554284.08779","1540434.08414","1541200.22743","1541967.11179","1542733.99924","1543500.65977","1544267.19168","1545033.96659","1553527.37788"
"Mixed","Male","tile","27","F_bluff.wav","space","537.238844546","215","1553517.35894","1545800.31362","1546567.61536","1547334.28516","1548101.09007","1548850.23491","1549616.98354","1550383.87255","1554284.08779","1555033.53963","1541200.22743","1541967.11179","1542733.99924","1543500.65977","1544267.19168","1545033.96659","1554293.89959"
"Mixed","Male","tile","27","M_jolt.wav","None","735.255089545","215","1553517.35894","1545800.31362","1546567.61536","1547334.28516","1548101.09007","1548850.23491","1549616.98354","1550383.87255","1554284.08779","1555033.53963","1555799.73733","1541967.11179","1542733.99924","1543500.65977","1544267.19168","1545033.96659","1555042.51018"
"Mixed","Male","tile","27","F_cad.wav","None","735.14935359","215","1553517.35894","1545800.31362","1546567.61536","1547334.28516","1548101.09007","1548850.23491","1549616.98354","1550383.87255","1554284.08779","1555033.53963","1555799.73733","1556566.47978","1542733.99924","1543500.65977","1544267.19168","1545033.96659","1555808.52918"
"Mixed","Male","tile","27","F_jaw.wav","None","734.028305087","215","1553517.35894","1545800.31362","1546567.61536","1547334.28516","1548101.09007","1548850.23491","1549616.98354","1550383.87255","1554284.08779","1555033.53963","1555799.73733","1556566.47978","1557333.60406","1543500.65977","1544267.19168","1545033.96659","1556575.16281"
"Mixed","Male","tile","27","F_gnash.wav","None","731.766730394","215","1553517.35894","1545800.31362","1546567.61536","1547334.28516","1548101.09007","1548850.23491","1549616.98354","1550383.87255","1554284.08779","1555033.53963","1555799.73733","1556566.47978","1557333.60406","1558099.78043","1544267.19168","1545033.96659","1557342.94376"
"Mixed","Male","tile","27","M_gnash.wav","None","731.869993004","215","1553517.35894","1545800.31362","1546567.61536","1547334.28516","1548101.09007","1548850.23491","1549616.98354","1550383.87255","1554284.08779","1555033.53963","1555799.73733","1556566.47978","1557333.60406","1558099.78043","1558866.4122","1545033.96659","1558108.54847"
"Mixed","Male","tile","27","M_tile.wav","None","731.248871533","215","1553517.35894","1545800.31362","1546567.61536","1547334.28516","1548101.09007","1548850.23491","1549616.98354","1550383.87255","1554284.08779","1555033.53963","1555799.73733","1556566.47978","1557333.60406","1558099.78043","1558866.4122","1559633.04583","1558875.06585"
"Mixed","Male","tile","27","F_cave.wav","space","517.213628686","215","1553517.35894","1560400.14754","1546567.61536","1547334.28516","1548101.09007","1548850.23491","1549616.98354","1550383.87255","1554284.08779","1555033.53963","1555799.73733","1556566.47978","1557333.60406","1558099.78043","1558866.4122","1559633.04583","1559641.77306"
"Mixed","Male","tile","27","F_ball.wav","None","726.541147982","215","1553517.35894","1560400.14754","1561166.74932","1547334.28516","1548101.09007","1548850.23491","1549616.98354","1550383.87255","1554284.08779","1555033.53963","1555799.73733","1556566.47978","1557333.60406","1558099.78043","1558866.4122","1559633.04583","1560409.58741"
"Mixed","Male","tile","27","M_tile.wav","None","725.862520987","215","1553517.35894","1560400.14754","1561166.74932","1561933.41479","1548101.09007","1548850.23491","1549616.98354","1550383.87255","1554284.08779","1555033.53963","1555799.73733","1556566.47978","1557333.60406","1558099.78043","1558866.4122","1559633.04583","1561175.93103"
"Mixed","Male","tile","27","M_romp.wav","space","519.99182556","215","1553517.35894","1560400.14754","1561166.74932","1561933.41479","1562700.67665","1548850.23491","1549616.98354","1550383.87255","1554284.08779","1555033.53963","1555799.73733","1556566.47978","1557333.60406","1558099.78043","1558866.4122","1559633.04583","1561942.9066"
"Mixed","Male","tile","27","M_tile.wav","None","720.650851203","215","1553517.35894","1560400.14754","1561166.74932","1561933.41479","1562700.67665","1563466.9807","1549616.98354","1550383.87255","1554284.08779","1555033.53963","1555799.73733","1556566.47978","1557333.60406","1558099.78043","1558866.4122","1559633.04583","1562710.80813"
"Mixed","Male","tile","27","F_park.wav","None","720.891385056","215","1553517.35894","1560400.14754","1561166.74932","1561933.41479","1562700.67665","1563466.9807","1564233.57197","1550383.87255","1554284.08779","1555033.53963","1555799.73733","1556566.47978","1557333.60406","1558099.78043","1558866.4122","1559633.04583","1563476.40017"
"Mixed","Male","tile","27","F_reek.wav","space","123.425090707","215","1553517.35894","1560400.14754","1561166.74932","1561933.41479","1562700.67665","1563466.9807","1564233.57197","1564983.11193","1554284.08779","1555033.53963","1555799.73733","1556566.47978","1557333.60406","1558099.78043","1558866.4122","1559633.04583","1564243.41902"
"Mixed","Male","done","39","M_cad.wav","None","734.475673307","215","1568116.73466","1560400.14754","1561166.74932","1561933.41479","1562700.67665","1563466.9807","1564233.57197","1564983.11193","1554284.08779","1555033.53963","1555799.73733","1556566.47978","1557333.60406","1558099.78043","1558866.4122","1559633.04583","1564992.48285"
"Mixed","Male","done","39","M_done.wav","None","720.31602067","215","1568116.73466","1560400.14754","1561166.74932","1561933.41479","1562700.67665","1563466.9807","1564233.57197","1564983.11193","1568883.52195","1555033.53963","1555799.73733","1556566.47978","1557333.60406","1558099.78043","1558866.4122","1559633.04583","1568126.92272"
"Mixed","Male","done","39","F_priest.wav","space","505.134068248","215","1568116.73466","1560400.14754","1561166.74932","1561933.41479","1562700.67665","1563466.9807","1564233.57197","1564983.11193","1568883.52195","1569633.10828","1555799.73733","1556566.47978","1557333.60406","1558099.78043","1558866.4122","1559633.04583","1568893.55852"
"Mixed","Male","done","39","M_done.wav","None","734.537816374","215","1568116.73466","1560400.14754","1561166.74932","1561933.41479","1562700.67665","1563466.9807","1564233.57197","1564983.11193","1568883.52195","1569633.10828","1570399.45469","1556566.47978","1557333.60406","1558099.78043","1558866.4122","1559633.04583","1569642.24022"
"Mixed","Male","done","39","F_tile.wav","space","589.893806471","215","1568116.73466","1560400.14754","1561166.74932","1561933.41479","1562700.67665","1563466.9807","1564233.57197","1564983.11193","1568883.52195","1569633.10828","1570399.45469","1571166.50229","1557333.60406","1558099.78043","1558866.4122","1559633.04583","1570408.75512"
"Mixed","Male","done","39","F_jolt.wav","None","730.354753417","215","1568116.73466","1560400.14754","1561166.74932","1561933.41479","1562700.67665","1563466.9807","1564233.57197","1564983.11193","1568883.52195","1569633.10828","1570399.45469","1571166.50229","1571933.13654","1558099.78043","1558866.4122","1559633.04583","1571175.96968"
"Mixed","Male","done","39","M_lash.wav","None","729.742288699","215","1568116.73466","1560400.14754","1561166.74932","1561933.41479","1562700.67665","1563466.9807","1564233.57197","1564983.11193","1568883.52195","1569633.10828","1570399.45469","1571166.50229","1571933.13654","1572699.79335","1558866.4122","1559633.04583","1571942.11822"
"Mixed","Male","done","39","M_gnash.wav","None","728.310834042","215","1568116.73466","1560400.14754","1561166.74932","1561933.41479","1562700.67665","1563466.9807","1564233.57197","1564983.11193","1568883.52195","1569633.10828","1570399.45469","1571166.50229","1571933.13654","1572699.79335","1573466.38833","1559633.04583","1572709.11636"
"Mixed","Male","done","39","M_dime.wav","None","726.763131664","215","1568116.73466","1560400.14754","1561166.74932","1561933.41479","1562700.67665","1563466.9807","1564233.57197","1564983.11193","1568883.52195","1569633.10828","1570399.45469","1571166.50229","1571933.13654","1572699.79335","1573466.38833","1574232.65992","1573475.99237"
"Mixed","Male","done","39","F_romp.wav","None","726.510231041","215","1568116.73466","1574999.28644","1561166.74932","1561933.41479","1562700.67665","1563466.9807","1564233.57197","1564983.11193","1568883.52195","1569633.10828","1570399.45469","1571166.50229","1571933.13654","1572699.79335","1573466.38833","1574232.65992","1574241.71271"
"Mixed","Male","done","39","M_done.wav","None","725.53511052","215","1568116.73466","1574999.28644","1575766.68371","1561933.41479","1562700.67665","1563466.9807","1564233.57197","1564983.11193","1568883.52195","1569633.10828","1570399.45469","1571166.50229","1571933.13654","1572699.79335","1573466.38833","1574232.65992","1575008.227"
"Mixed","Male","done","39","F_depth.wav","space","510.290396698","215","1568116.73466","1574999.28644","1575766.68371","1576533.3733","1562700.67665","1563466.9807","1564233.57197","1564983.11193","1568883.52195","1569633.10828","1570399.45469","1571166.50229","1571933.13654","1572699.79335","1573466.38833","1574232.65992","1575776.18047"
"Mixed","Male","done","39","M_done.wav","None","720.277683657","215","1568116.73466","1574999.28644","1575766.68371","1576533.3733","1577300.22489","1563466.9807","1564233.57197","1564983.11193","1568883.52195","1569633.10828","1570399.45469","1571166.50229","1571933.13654","1572699.79335","1573466.38833","1574232.65992","1576542.95044"
"Mixed","Male","done","39","F_cad.wav","None","718.574778199","215","1568116.73466","1574999.28644","1575766.68371","1576533.3733","1577300.22489","1578049.33232","1564233.57197","1564983.11193","1568883.52195","1569633.10828","1570399.45469","1571166.50229","1571933.13654","1572699.79335","1573466.38833","1574232.65992","1577310.07039"
"Mixed","Male","done","39","F_ball.wav","space","19.4841692864","215","1568116.73466","1574999.28644","1575766.68371","1576533.3733","1577300.22489","1578049.33232","1578816.18205","1564983.11193","1568883.52195","1569633.10828","1570399.45469","1571166.50229","1571933.13654","1572699.79335","1573466.38833","1574232.65992","1578058.95584"
"Mixed","Male","done","39","F_bluff.wav","None","732.14329881","215","1568116.73466","1574999.28644","1575766.68371","1576533.3733","1577300.22489","1578049.33232","1578816.18205","1579582.82248","1568883.52195","1569633.10828","1570399.45469","1571166.50229","1571933.13654","1572699.79335","1573466.38833","1574232.65992","1578825.69396"
"Mixed","Female","done","48","M_jaw.wav","None","731.213007879","215","1582716.43502","1574999.28644","1575766.68371","1576533.3733","1577300.22489","1578049.33232","1578816.18205","1579582.82248","1568883.52195","1569633.10828","1570399.45469","1571166.50229","1571933.13654","1572699.79335","1573466.38833","1574232.65992","1579591.9368"
"Mixed","Female","done","48","F_knife.wav","None","678.430358959","215","1582716.43502","1574999.28644","1575766.68371","1576533.3733","1577300.22489","1578049.33232","1578816.18205","1579582.82248","1583482.50812","1569633.10828","1570399.45469","1571166.50229","1571933.13654","1572699.79335","1573466.38833","1574232.65992","1582768.48803"
"Mixed","Female","done","48","F_done.wav","None","721.09760109","215","1582716.43502","1574999.28644","1575766.68371","1576533.3733","1577300.22489","1578049.33232","1578816.18205","1579582.82248","1583482.50812","1584249.71989","1570399.45469","1571166.50229","1571933.13654","1572699.79335","1573466.38833","1574232.65992","1583491.44343"
"Mixed","Female","done","48","M_cad.wav","space","490.571876959","215","1582716.43502","1574999.28644","1575766.68371","1576533.3733","1577300.22489","1578049.33232","1578816.18205","1579582.82248","1583482.50812","1584249.71989","1584999.31241","1571166.50229","1571933.13654","1572699.79335","1573466.38833","1574232.65992","1584259.65567"
"Mixed","Female","done","48","F_done.wav","None","732.739377556","215","1582716.43502","1574999.28644","1575766.68371","1576533.3733","1577300.22489","1578049.33232","1578816.18205","1579582.82248","1583482.50812","1584249.71989","1584999.31241","1585766.04713","1571933.13654","1572699.79335","1573466.38833","1574232.65992","1585009.33877"
"Mixed","Female","done","48","M_ball.wav","space","477.856354912","215","1582716.43502","1574999.28644","1575766.68371","1576533.3733","1577300.22489","1578049.33232","1578816.18205","1579582.82248","1583482.50812","1584249.71989","1584999.31241","1585766.04713","1586532.66097","1572699.79335","1573466.38833","1574232.65992","1585775.41033"
"Mixed","Female","done","48","F_done.wav","None","730.04156474","215","1582716.43502","1574999.28644","1575766.68371","1576533.3733","1577300.22489","1578049.33232","1578816.18205","1579582.82248","1583482.50812","1584249.71989","1584999.31241","1585766.04713","1586532.66097","1587298.58815","1573466.38833","1574232.65992","1586541.69923"
"Mixed","Female","done","48","M_jolt.wav","space","650.525340767","215","1582716.43502","1574999.28644","1575766.68371","1576533.3733","1577300.22489","1578049.33232","1578816.18205","1579582.82248","1583482.50812","1584249.71989","1584999.31241","1585766.04713","1586532.66097","1587298.58815","1588065.93472","1574232.65992","1587307.56921"
"Mixed","Female","done","48","F_done.wav","None","728.381633846","215","1582716.43502","1574999.28644","1575766.68371","1576533.3733","1577300.22489","1578049.33232","1578816.18205","1579582.82248","1583482.50812","1584249.71989","1584999.31241","1585766.04713","1586532.66097","1587298.58815","1588065.93472","1588832.64007","1588075.6009"
"Mixed","Female","done","48","M_jaw.wav","space","620.234770933","215","1582716.43502","1589599.29874","1575766.68371","1576533.3733","1577300.22489","1578049.33232","1578816.18205","1579582.82248","1583482.50812","1584249.71989","1584999.31241","1585766.04713","1586532.66097","1587298.58815","1588065.93472","1588832.64007","1588841.84776"
"Mixed","Female","done","48","M_reek.wav","None","724.806398081","215","1582716.43502","1589599.29874","1590366.22948","1576533.3733","1577300.22489","1578049.33232","1578816.18205","1579582.82248","1583482.50812","1584249.71989","1584999.31241","1585766.04713","1586532.66097","1587298.58815","1588065.93472","1588832.64007","1589608.63102"
"Mixed","Female","done","48","F_jolt.wav","None","717.936652414","215","1582716.43502","1589599.29874","1590366.22948","1591132.8798","1577300.22489","1578049.33232","1578816.18205","1579582.82248","1583482.50812","1584249.71989","1584999.31241","1585766.04713","1586532.66097","1587298.58815","1588065.93472","1588832.64007","1590380.91967"
"Mixed","Female","done","48","M_lash.wav","None","722.376326026","215","1582716.43502","1589599.29874","1590366.22948","1591132.8798","1591899.09512","1578049.33232","1578816.18205","1579582.82248","1583482.50812","1584249.71989","1584999.31241","1585766.04713","1586532.66097","1587298.58815","1588065.93472","1588832.64007","1591142.26124"
"Mixed","Female","done","48","F_romp.wav","None","722.244619828","215","1582716.43502","1589599.29874","1590366.22948","1591132.8798","1591899.09512","1592666.14365","1578816.18205","1579582.82248","1583482.50812","1584249.71989","1584999.31241","1585766.04713","1586532.66097","1587298.58815","1588065.93472","1588832.64007","1591908.00662"
"Mixed","Female","done","48","F_priest.wav","None","720.130828151","215","1582716.43502","1589599.29874","1590366.22948","1591132.8798","1591899.09512","1592666.14365","1593432.6901","1579582.82248","1583482.50812","1584249.71989","1584999.31241","1585766.04713","1586532.66097","1587298.58815","1588065.93472","1588832.64007","1592676.03089"
"Mixed","Female","done","48","M_priest.wav","None","719.674803186","215","1582716.43502","1589599.29874","1590366.22948","1591132.8798","1591899.09512","1592666.14365","1593432.6901","1594182.11411","1583482.50812","1584249.71989","1584999.31241","1585766.04713","1586532.66097","1587298.58815","1588065.93472","1588832.64007","1593442.07463"
"Mixed","Female","cave","22","F_park.wav","None","735.795826957","215","1597315.99655","1589599.29874","1590366.22948","1591132.8798","1591899.09512","1592666.14365","1593432.6901","1594182.11411","1583482.50812","1584249.71989","1584999.31241","1585766.04713","1586532.66097","1587298.58815","1588065.93472","1588832.64007","1594191.58923"
"Mixed","Female","cave","22","F_cave.wav","None","720.801416741","215","1597315.99655","1589599.29874","1590366.22948","1591132.8798","1591899.09512","1592666.14365","1593432.6901","1594182.11411","1598082.79899","1584249.71989","1584999.31241","1585766.04713","1586532.66097","1587298.58815","1588065.93472","1588832.64007","1597325.70973"
"Mixed","Female","cave","22","M_knife.wav","space","625.506728764","215","1597315.99655","1589599.29874","1590366.22948","1591132.8798","1591899.09512","1592666.14365","1593432.6901","1594182.11411","1598082.79899","1598831.8452","1584999.31241","1585766.04713","1586532.66097","1587298.58815","1588065.93472","1588832.64007","1598092.30285"
"Mixed","Female","cave","22","F_tile.wav","None","735.504898483","215","1597315.99655","1589599.29874","1590366.22948","1591132.8798","1591899.09512","1592666.14365","1593432.6901","1594182.11411","1598082.79899","1598831.8452","1599598.88909","1585766.04713","1586532.66097","1587298.58815","1588065.93472","1588832.64007","1598840.63396"
"Mixed","Female","cave","22","M_jolt.wav","None","732.939101035","215","1597315.99655","1589599.29874","1590366.22948","1591132.8798","1591899.09512","1592666.14365","1593432.6901","1594182.11411","1598082.79899","1598831.8452","1599598.88909","1600365.47573","1586532.66097","1587298.58815","1588065.93472","1588832.64007","1599608.82209"
"Mixed","Female","cave","22","M_done.wav","None","732.358171597","215","1597315.99655","1589599.29874","1590366.22948","1591132.8798","1591899.09512","1592666.14365","1593432.6901","1594182.11411","1598082.79899","1598831.8452","1599598.88909","1600365.47573","1601131.858","1587298.58815","1588065.93472","1588832.64007","1600374.97156"
"Mixed","Female","cave","22","M_done.wav","None","732.199567661","215","1597315.99655","1589599.29874","1590366.22948","1591132.8798","1591899.09512","1592666.14365","1593432.6901","1594182.11411","1598082.79899","1598831.8452","1599598.88909","1600365.47573","1601131.858","1601898.65363","1588065.93472","1588832.64007","1601140.80814"
"Mixed","Female","cave","22","M_ball.wav","None","730.764093802","215","1597315.99655","1589599.29874","1590366.22948","1591132.8798","1591899.09512","1592666.14365","1593432.6901","1594182.11411","1598082.79899","1598831.8452","1599598.88909","1600365.47573","1601131.858","1601898.65363","1602665.48945","1588832.64007","1601907.84957"
"Mixed","Female","cave","22","F_cave.wav","None","729.055314128","215","1597315.99655","1589599.29874","1590366.22948","1591132.8798","1591899.09512","1592666.14365","1593432.6901","1594182.11411","1598082.79899","1598831.8452","1599598.88909","1600365.47573","1601131.858","1601898.65363","1602665.48945","1603432.17471","1602675.35072"
"Mixed","Female","cave","22","F_ball.wav","space","588.42370563","215","1597315.99655","1604198.85904","1590366.22948","1591132.8798","1591899.09512","1592666.14365","1593432.6901","1594182.11411","1598082.79899","1598831.8452","1599598.88909","1600365.47573","1601131.858","1601898.65363","1602665.48945","1603432.17471","1603441.24296"
"Mixed","Female","cave","22","F_reek.wav","None","716.283523245","215","1597315.99655","1604198.85904","1604964.90432","1591132.8798","1591899.09512","1592666.14365","1593432.6901","1594182.11411","1598082.79899","1598831.8452","1599598.88909","1600365.47573","1601131.858","1601898.65363","1602665.48945","1603432.17471","1604217.83524"
"Mixed","Female","cave","22","F_cave.wav","None","726.350081248","215","1597315.99655","1604198.85904","1604964.90432","1605732.46978","1591899.09512","1592666.14365","1593432.6901","1594182.11411","1598082.79899","1598831.8452","1599598.88909","1600365.47573","1601131.858","1601898.65363","1602665.48945","1603432.17471","1604973.57992"
"Mixed","Female","cave","22","M_dime.wav","space","550.5618846","215","1597315.99655","1604198.85904","1604964.90432","1605732.46978","1606499.13216","1592666.14365","1593432.6901","1594182.11411","1598082.79899","1598831.8452","1599598.88909","1600365.47573","1601131.858","1601898.65363","1602665.48945","1603432.17471","1605743.04771"
"Mixed","Female","cave","22","M_jaw.wav","None","720.474315443","215","1597315.99655","1604198.85904","1604964.90432","1605732.46978","1606499.13216","1607265.61677","1593432.6901","1594182.11411","1598082.79899","1598831.8452","1599598.88909","1600365.47573","1601131.858","1601898.65363","1602665.48945","1603432.17471","1606509.02095"
"Mixed","Female","cave","22","F_cave.wav","None","720.09991121","215","1597315.99655","1604198.85904","1604964.90432","1605732.46978","1606499.13216","1607265.61677","1608032.42786","1594182.11411","1598082.79899","1598831.8452","1599598.88909","1600365.47573","1601131.858","1601898.65363","1602665.48945","1603432.17471","1607275.19577"
"Mixed","Female","cave","22","M_priest.wav","space","537.450316464","215","1597315.99655","1604198.85904","1604964.90432","1605732.46978","1606499.13216","1607265.61677","1608032.42786","1608781.61258","1598082.79899","1598831.8452","1599598.88909","1600365.47573","1601131.858","1601898.65363","1602665.48945","1603432.17471","1608044.04366"
"Mixed","Male","ball","2","F_reek.wav","None","734.086428944","215","1611915.53119","1604198.85904","1604964.90432","1605732.46978","1606499.13216","1607265.61677","1608032.42786","1608781.61258","1598082.79899","1598831.8452","1599598.88909","1600365.47573","1601131.858","1601898.65363","1602665.48945","1603432.17471","1608791.03019"
"Mixed","Male","ball","2","M_ball.wav","None","718.673712436","215","1611915.53119","1604198.85904","1604964.90432","1605732.46978","1606499.13216","1607265.61677","1608032.42786","1608781.61258","1612682.10948","1598831.8452","1599598.88909","1600365.47573","1601131.858","1601898.65363","1602665.48945","1603432.17471","1611927.37578"
"Mixed","Male","ball","2","F_cad.wav","space","641.131535529","215","1611915.53119","1604198.85904","1604964.90432","1605732.46978","1606499.13216","1607265.61677","1608032.42786","1608781.61258","1612682.10948","1613431.54648","1599598.88909","1600365.47573","1601131.858","1601898.65363","1602665.48945","1603432.17471","1612692.25518"
"Mixed","Male","ball","2","M_tile.wav","None","735.413075148","215","1611915.53119","1604198.85904","1604964.90432","1605732.46978","1606499.13216","1607265.61677","1608032.42786","1608781.61258","1612682.10948","1613431.54648","1614198.46145","1600365.47573","1601131.858","1601898.65363","1602665.48945","1603432.17471","1613440.58165"
"Mixed","Male","ball","2","M_ball.wav","None","733.301138483","215","1611915.53119","1604198.85904","1604964.90432","1605732.46978","1606499.13216","1607265.61677","1608032.42786","1608781.61258","1612682.10948","1613431.54648","1614198.46145","1614964.98192","1601131.858","1601898.65363","1602665.48945","1603432.17471","1614208.46617"
"Mixed","Male","ball","2","F_jaw.wav","space","518.764113585","215","1611915.53119","1604198.85904","1604964.90432","1605732.46978","1606499.13216","1607265.61677","1608032.42786","1608781.61258","1612682.10948","1613431.54648","1614198.46145","1614964.98192","1615731.43159","1601898.65363","1602665.48945","1603432.17471","1614974.59276"
"Mixed","Male","ball","2","M_cad.wav","None","730.993806719","215","1611915.53119","1604198.85904","1604964.90432","1605732.46978","1606499.13216","1607265.61677","1608032.42786","1608781.61258","1612682.10948","1613431.54648","1614198.46145","1614964.98192","1615731.43159","1616498.47487","1602665.48945","1603432.17471","1615740.52983"
