"Condition","Talker","Target","Trial","current_stimulus","response_response","response_time_response","subject_nr","time_Audio1","time_Audio10","time_Audio11","time_Audio12","time_Audio13","time_Audio14","time_Audio15","time_Audio16","time_Audio2","time_Audio3","time_Audio4","time_Audio5","time_Audio6","time_Audio7","time_Audio8","time_Audio9","time_response","title"
"Blocked","Male","ball","6","M_gnash.wav","NA","NA","417","202631.373632","NA","NA","NA","NA","NA","NA","NA","NA","NA","NA","NA","NA","NA","NA","NA","NA","Mapping"
"Blocked","Male","ball","6","M_romp.wav","None","721.924290125","417","202631.373632","NA","NA","NA","NA","NA","NA","NA","203398.031505","NA","NA","NA","NA","NA","NA","NA","202642.263244","Mapping"
"Blocked","Male","ball","6","M_ball.wav","None","728.846504009","417","202631.373632","NA","NA","NA","NA","NA","NA","NA","203398.031505","204165.835368","NA","NA","NA","NA","NA","NA","203402.264217","Mapping"
"Blocked","Male","ball","6","M_jaw.wav","space","432.094518057","417","202631.373632","NA","NA","NA","NA","NA","NA","NA","203398.031505","204165.835368","204932.592997","NA","NA","NA","NA","NA","204169.777827","Mapping"
"Blocked","Male","ball","6","M_ball.wav","None","728.89938662","417","202631.373632","NA","NA","NA","NA","NA","NA","NA","203398.031505","204165.835368","204932.592997","205699.775189","NA","NA","NA","NA","204935.892151","Mapping"
"Blocked","Male","ball","6","M_park.wav","space","446.662776589","417","202631.373632","NA","NA","NA","NA","NA","NA","NA","203398.031505","204165.835368","204932.592997","205699.775189","206466.838094","NA","NA","NA","205703.223676","Mapping"
"Blocked","Male","ball","6","M_ball.wav","None","728.042748382","417","202631.373632","NA","NA","NA","NA","NA","NA","NA","203398.031505","204165.835368","204932.592997","205699.775189","206466.838094","207234.147385","NA","NA","206470.391145","Mapping"
"Blocked","Male","ball","6","M_reek.wav","space","366.099720984","417","202631.373632","NA","NA","NA","NA","NA","NA","NA","203398.031505","204165.835368","204932.592997","205699.775189","206466.838094","207234.147385","208001.447361","NA","207237.737093","Mapping"
"Blocked","Male","ball","6","M_greet.wav","None","727.7068236","417","202631.373632","NA","NA","NA","NA","NA","NA","NA","203398.031505","204165.835368","204932.592997","205699.775189","206466.838094","207234.147385","208001.447361","208769.16499","208004.363116","Mapping"
"Blocked","Male","ball","6","M_lash.wav","None","725.713209174","417","202631.373632","209535.96228","NA","NA","NA","NA","NA","NA","203398.031505","204165.835368","204932.592997","205699.775189","206466.838094","207234.147385","208001.447361","208769.16499","208772.93588","Mapping"
"Blocked","Male","ball","6","M_ball.wav","None","726.426223046","417","202631.373632","209535.96228","210303.212078","NA","NA","NA","NA","NA","203398.031505","204165.835368","204932.592997","205699.775189","206466.838094","207234.147385","208001.447361","208769.16499","209538.99642","Mapping"
"Blocked","Male","ball","6","M_jaw.wav","space","391.484276737","417","202631.373632","209535.96228","210303.212078","211071.06011","NA","NA","NA","NA","203398.031505","204165.835368","204932.592997","205699.775189","206466.838094","207234.147385","208001.447361","208769.16499","210306.370312","Mapping"
"Blocked","Male","ball","6","M_reek.wav","None","724.151669738","417","202631.373632","209535.96228","210303.212078","211071.06011","211820.968317","NA","NA","NA","203398.031505","204165.835368","204932.592997","205699.775189","206466.838094","207234.147385","208001.447361","208769.16499","211074.808165","Mapping"
"Blocked","Male","ball","6","M_park.wav","None","741.318688055","417","202631.373632","209535.96228","210303.212078","211071.06011","211820.968317","212605.262842","NA","NA","203398.031505","204165.835368","204932.592997","205699.775189","206466.838094","207234.147385","208001.447361","208769.16499","211824.826344","Mapping"
"Blocked","Male","ball","6","M_lash.wav","None","724.605378522","417","202631.373632","209535.96228","210303.212078","211071.06011","211820.968317","212605.262842","213355.473921","NA","203398.031505","204165.835368","204932.592997","205699.775189","206466.838094","207234.147385","208001.447361","208769.16499","212608.944193","Mapping"
"Blocked","Male","ball","6","M_jaw.wav","None","741.900096329","417","202631.373632","209535.96228","210303.212078","211071.06011","211820.968317","212605.262842","213355.473921","214122.738142","203398.031505","204165.835368","204932.592997","205699.775189","206466.838094","207234.147385","208001.447361","208769.16499","213358.557038","Mapping"
"Blocked","Male","cave","7","M_knife.wav","None","741.28713877","417","218276.069175","209535.96228","210303.212078","211071.06011","211820.968317","212605.262842","213355.473921","214122.738142","203398.031505","204165.835368","204932.592997","205699.775189","206466.838094","207234.147385","208001.447361","208769.16499","214125.961277","Mapping"
"Blocked","Male","cave","7","M_priest.wav","None","728.255480713","417","218276.069175","209535.96228","210303.212078","211071.06011","211820.968317","212605.262842","213355.473921","214122.738142","219042.839123","204165.835368","204932.592997","205699.775189","206466.838094","207234.147385","208001.447361","208769.16499","218280.00262","Mapping"
"Blocked","Male","cave","7","M_cave.wav","None","729.554710369","417","218276.069175","209535.96228","210303.212078","211071.06011","211820.968317","212605.262842","213355.473921","214122.738142","219042.839123","219810.122573","204932.592997","205699.775189","206466.838094","207234.147385","208001.447361","208769.16499","219045.700493","Mapping"
"Blocked","Male","cave","7","M_romp.wav","space","452.557385146","417","218276.069175","209535.96228","210303.212078","211071.06011","211820.968317","212605.262842","213355.473921","214122.738142","219042.839123","219810.122573","220577.949873","205699.775189","206466.838094","207234.147385","208001.447361","208769.16499","219813.267286","Mapping"
"Blocked","Male","cave","7","M_greet.wav","None","727.46404433","417","218276.069175","209535.96228","210303.212078","211071.06011","211820.968317","212605.262842","213355.473921","214122.738142","219042.839123","219810.122573","220577.949873","221345.080986","206466.838094","207234.147385","208001.447361","208769.16499","220581.437722","Mapping"
"Blocked","Male","cave","7","M_jaw.wav","None","726.745922479","417","218276.069175","209535.96228","210303.212078","211071.06011","211820.968317","212605.262842","213355.473921","214122.738142","219042.839123","219810.122573","220577.949873","221345.080986","222112.390577","207234.147385","208001.447361","208769.16499","221349.172778","Mapping"
"Blocked","Male","cave","7","M_cave.wav","None","727.068326139","417","218276.069175","209535.96228","210303.212078","211071.06011","211820.968317","212605.262842","213355.473921","214122.738142","219042.839123","219810.122573","220577.949873","221345.080986","222112.390577","222879.493445","208001.447361","208769.16499","222115.887139","Mapping"
"Blocked","Male","cave","7","M_depth.wav","space","469.882149895","417","218276.069175","209535.96228","210303.212078","211071.06011","211820.968317","212605.262842","213355.473921","214122.738142","219042.839123","219810.122573","220577.949873","221345.080986","222112.390577","222879.493445","223646.745045","208769.16499","222882.968073","Mapping"
"Blocked","Male","cave","7","M_park.wav","None","715.83137177","417","218276.069175","209535.96228","210303.212078","211071.06011","211820.968317","212605.262842","213355.473921","214122.738142","219042.839123","219810.122573","220577.949873","221345.080986","222112.390577","222879.493445","223646.745045","224413.767688","223661.098468","Mapping"
"Blocked","Male","cave","7","M_cave.wav","None","726.948739321","417","218276.069175","225180.482049","210303.212078","211071.06011","211820.968317","212605.262842","213355.473921","214122.738142","219042.839123","219810.122573","220577.949873","221345.080986","222112.390577","222879.493445","223646.745045","224413.767688","224417.293396","Mapping"
"Blocked","Male","cave","7","M_lash.wav","space","566.898008068","417","218276.069175","225180.482049","225948.221612","211071.06011","211820.968317","212605.262842","213355.473921","214122.738142","219042.839123","219810.122573","220577.949873","221345.080986","222112.390577","222879.493445","223646.745045","224413.767688","225183.872245","Mapping"
"Blocked","Male","cave","7","M_dime.wav","None","726.093302957","417","218276.069175","225180.482049","225948.221612","226715.782696","211820.968317","212605.262842","213355.473921","214122.738142","219042.839123","219810.122573","220577.949873","221345.080986","222112.390577","222879.493445","223646.745045","224413.767688","225952.252108","Mapping"
"Blocked","Male","cave","7","M_dime.wav","None","725.931049486","417","218276.069175","225180.482049","225948.221612","226715.782696","227482.762672","212605.262842","213355.473921","214122.738142","219042.839123","219810.122573","220577.949873","221345.080986","222112.390577","222879.493445","223646.745045","224413.767688","226719.644028","Mapping"
"Blocked","Male","cave","7","M_cave.wav","None","726.504645558","417","218276.069175","225180.482049","225948.221612","226715.782696","227482.762672","228249.950873","213355.473921","214122.738142","219042.839123","219810.122573","220577.949873","221345.080986","222112.390577","222879.493445","223646.745045","224413.767688","227486.432605","Mapping"
"Blocked","Male","cave","7","M_romp.wav","space","533.962656462","417","218276.069175","225180.482049","225948.221612","226715.782696","227482.762672","228249.950873","229016.59192","214122.738142","219042.839123","219810.122573","220577.949873","221345.080986","222112.390577","222879.493445","223646.745045","224413.767688","228253.908656","Mapping"
"Blocked","Male","cave","7","M_cling.wav","None","727.441509125","417","218276.069175","225180.482049","225948.221612","226715.782696","227482.762672","228249.950873","229016.59192","229783.900009","219042.839123","219810.122573","220577.949873","221345.080986","222112.390577","222879.493445","223646.745045","224413.767688","229019.483637","Mapping"
"Blocked","Male","ball","4","M_priest.wav","None","727.11249514","417","232903.454977","225180.482049","225948.221612","226715.782696","227482.762672","228249.950873","229016.59192","229783.900009","219042.839123","219810.122573","220577.949873","221345.080986","222112.390577","222879.493445","223646.745045","224413.767688","229786.748759","Mapping"
"Blocked","Male","ball","4","M_priest.wav","None","728.485339798","417","232903.454977","225180.482049","225948.221612","226715.782696","227482.762672","228249.950873","229016.59192","229783.900009","233669.968325","219810.122573","220577.949873","221345.080986","222112.390577","222879.493445","223646.745045","224413.767688","232906.737305","Mapping"
"Blocked","Male","ball","4","M_park.wav","None","729.323649404","417","232903.454977","225180.482049","225948.221612","226715.782696","227482.762672","228249.950873","229016.59192","229783.900009","233669.968325","234437.358441","220577.949873","221345.080986","222112.390577","222879.493445","223646.745045","224413.767688","233672.966709","Mapping"
"Blocked","Male","ball","4","M_ball.wav","None","728.808043927","417","232903.454977","225180.482049","225948.221612","226715.782696","227482.762672","228249.950873","229016.59192","229783.900009","233669.968325","234437.358441","235204.354042","221345.080986","222112.390577","222879.493445","223646.745045","224413.767688","234440.358328","Mapping"
"Blocked","Male","ball","4","M_dime.wav","space","428.503307867","417","232903.454977","225180.482049","225948.221612","226715.782696","227482.762672","228249.950873","229016.59192","229783.900009","233669.968325","234437.358441","235204.354042","235971.700891","222112.390577","222879.493445","223646.745045","224413.767688","235207.369553","Mapping"
"Blocked","Male","ball","4","M_gnash.wav","None","728.150616895","417","232903.454977","225180.482049","225948.221612","226715.782696","227482.762672","228249.950873","229016.59192","229783.900009","233669.968325","234437.358441","235204.354042","235971.700891","236738.915233","222879.493445","223646.745045","224413.767688","235974.927031","Mapping"
"Blocked","Male","ball","4","M_park.wav","None","728.277414977","417","232903.454977","225180.482049","225948.221612","226715.782696","227482.762672","228249.950873","229016.59192","229783.900009","233669.968325","234437.358441","235204.354042","235971.700891","236738.915233","237505.918045","223646.745045","224413.767688","236741.934049","Mapping"
"Blocked","Male","ball","4","M_reek.wav","None","728.034936177","417","232903.454977","225180.482049","225948.221612","226715.782696","227482.762672","228249.950873","229016.59192","229783.900009","233669.968325","234437.358441","235204.354042","235971.700891","236738.915233","237505.918045","238273.378472","224413.767688","237509.203077","Mapping"
"Blocked","Male","ball","4","M_depth.wav","None","728.117865729","417","232903.454977","225180.482049","225948.221612","226715.782696","227482.762672","228249.950873","229016.59192","229783.900009","233669.968325","234437.358441","235204.354042","235971.700891","236738.915233","237505.918045","238273.378472","239040.697077","238276.447466","Mapping"
"Blocked","Male","ball","4","M_ball.wav","None","727.619086538","417","232903.454977","239807.761485","225948.221612","226715.782696","227482.762672","228249.950873","229016.59192","229783.900009","233669.968325","234437.358441","235204.354042","235971.700891","236738.915233","237505.918045","238273.378472","239040.697077","239043.905489","Mapping"
"Blocked","Male","ball","4","M_reek.wav","space","424.81775029","417","232903.454977","239807.761485","240575.031715","226715.782696","227482.762672","228249.950873","229016.59192","229783.900009","233669.968325","234437.358441","235204.354042","235971.700891","236738.915233","237505.918045","238273.378472","239040.697077","239811.007155","Mapping"
"Blocked","Male","ball","4","M_ball.wav","None","727.382917594","417","232903.454977","239807.761485","240575.031715","241342.224723","227482.762672","228249.950873","229016.59192","229783.900009","233669.968325","234437.358441","235204.354042","235971.700891","236738.915233","237505.918045","238273.378472","239040.697077","240577.885272","Mapping"
"Blocked","Male","ball","4","M_priest.wav","space","602.699236748","417","232903.454977","239807.761485","240575.031715","241342.224723","242109.273507","228249.950873","229016.59192","229783.900009","233669.968325","234437.358441","235204.354042","235971.700891","236738.915233","237505.918045","238273.378472","239040.697077","241345.135971","Mapping"
"Blocked","Male","ball","4","M_jolt.wav","None","726.720082113","417","232903.454977","239807.761485","240575.031715","241342.224723","242109.273507","242876.703887","229016.59192","229783.900009","233669.968325","234437.358441","235204.354042","235971.700891","236738.915233","237505.918045","238273.378472","239040.697077","242112.203985","Mapping"
"Blocked","Male","ball","4","M_ball.wav","None","725.82017628","417","232903.454977","239807.761485","240575.031715","241342.224723","242109.273507","242876.703887","243644.569346","229783.900009","233669.968325","234437.358441","235204.354042","235971.700891","236738.915233","237505.918045","238273.378472","239040.697077","242880.274064","Mapping"
"Blocked","Male","ball","4","M_gnash.wav","space","404.507521651","417","232903.454977","239807.761485","240575.031715","241342.224723","242109.273507","242876.703887","243644.569346","244411.800214","233669.968325","234437.358441","235204.354042","235971.700891","236738.915233","237505.918045","238273.378472","239040.697077","243648.33543","Mapping"
"Blocked","Male","cave","11","M_reek.wav","None","724.152270677","417","247530.877136","239807.761485","240575.031715","241342.224723","242109.273507","242876.703887","243644.569346","244411.800214","233669.968325","234437.358441","235204.354042","235971.700891","236738.915233","237505.918045","238273.378472","239040.697077","244415.67687","Mapping"
"Blocked","Male","cave","11","M_cave.wav","None","728.737133149","417","247530.877136","239807.761485","240575.031715","241342.224723","242109.273507","242876.703887","243644.569346","244411.800214","248297.050352","234437.358441","235204.354042","235971.700891","236738.915233","237505.918045","238273.378472","239040.697077","247534.745079","Mapping"
"Blocked","Male","cave","11","M_dime.wav","space","581.273665721","417","247530.877136","239807.761485","240575.031715","241342.224723","242109.273507","242876.703887","243644.569346","244411.800214","248297.050352","249064.438666","235204.354042","235971.700891","236738.915233","237505.918045","238273.378472","239040.697077","248300.594389","Mapping"
"Blocked","Male","cave","11","M_cave.wav","None","729.54870098","417","247530.877136","239807.761485","240575.031715","241342.224723","242109.273507","242876.703887","243644.569346","244411.800214","248297.050352","249064.438666","249831.716407","235971.700891","236738.915233","237505.918045","238273.378472","239040.697077","249068.100186","Mapping"
"Blocked","Male","cave","11","M_reek.wav","None","730.441996488","417","247530.877136","239807.761485","240575.031715","241342.224723","242109.273507","242876.703887","243644.569346","244411.800214","248297.050352","249064.438666","249831.716407","250598.819876","236738.915233","237505.918045","238273.378472","239040.697077","249834.4642","Mapping"
"Blocked","Male","cave","11","M_cad.wav","space","220.223332892","417","247530.877136","239807.761485","240575.031715","241342.224723","242109.273507","242876.703887","243644.569346","244411.800214","248297.050352","249064.438666","249831.716407","250598.819876","251366.150801","237505.918045","238273.378472","239040.697077","250601.623256","Mapping"
"Blocked","Male","cave","11","M_greet.wav","None","729.762334719","417","247530.877136","239807.761485","240575.031715","241342.224723","242109.273507","242876.703887","243644.569346","244411.800214","248297.050352","249064.438666","249831.716407","250598.819876","251366.150801","252133.427941","238273.378472","239040.697077","251369.281992","Mapping"
"Blocked","Male","cave","11","M_park.wav","None","729.582954493","417","247530.877136","239807.761485","240575.031715","241342.224723","242109.273507","242876.703887","243644.569346","244411.800214","248297.050352","249064.438666","249831.716407","250598.819876","251366.150801","252133.427941","252900.527204","239040.697077","252136.563039","Mapping"
"Blocked","Male","cave","11","M_cave.wav","None","730.050184398","417","247530.877136","239807.761485","240575.031715","241342.224723","242109.273507","242876.703887","243644.569346","244411.800214","248297.050352","249064.438666","249831.716407","250598.819876","251366.150801","252133.427941","252900.527204","253667.81456","252903.412611","Mapping"
"Blocked","Male","cave","11","M_gnash.wav","space","367.689204075","417","247530.877136","254435.183944","240575.031715","241342.224723","242109.273507","242876.703887","243644.569346","244411.800214","248297.050352","249064.438666","249831.716407","250598.819876","251366.150801","252133.427941","252900.527204","253667.81456","253671.138653","Mapping"
"Blocked","Male","cave","11","M_knife.wav","None","728.813752845","417","247530.877136","254435.183944","255202.261273","241342.224723","242109.273507","242876.703887","243644.569346","244411.800214","248297.050352","249064.438666","249831.716407","250598.819876","251366.150801","252133.427941","252900.527204","253667.81456","254438.088282","Mapping"
"Blocked","Male","cave","11","M_dime.wav","None","729.176719873","417","247530.877136","254435.183944","255202.261273","255969.416723","242109.273507","242876.703887","243644.569346","244411.800214","248297.050352","249064.438666","249831.716407","250598.819876","251366.150801","252133.427941","252900.527204","253667.81456","255205.118436","Mapping"
"Blocked","Male","cave","11","M_cling.wav","None","729.120832564","417","247530.877136","254435.183944","255202.261273","255969.416723","256736.877149","242876.703887","243644.569346","244411.800214","248297.050352","249064.438666","249831.716407","250598.819876","251366.150801","252133.427941","252900.527204","253667.81456","255972.248947","Mapping"
"Blocked","Male","cave","11","M_cave.wav","None","728.917715254","417","247530.877136","254435.183944","255202.261273","255969.416723","256736.877149","257503.897689","243644.569346","244411.800214","248297.050352","249064.438666","249831.716407","250598.819876","251366.150801","252133.427941","252900.527204","253667.81456","256739.932322","Mapping"
"Blocked","Male","cave","11","M_lash.wav","space","399.845438544","417","247530.877136","254435.183944","255202.261273","255969.416723","256736.877149","257503.897689","258271.093703","244411.800214","248297.050352","249064.438666","249831.716407","250598.819876","251366.150801","252133.427941","252900.527204","253667.81456","257507.017763","Mapping"
"Blocked","Male","cave","11","M_bluff.wav","None","728.637978249","417","247530.877136","254435.183944","255202.261273","255969.416723","256736.877149","257503.897689","258271.093703","259038.210392","248297.050352","249064.438666","249831.716407","250598.819876","251366.150801","252133.427941","252900.527204","253667.81456","258274.107411","Mapping"
"Blocked","Male","tile","17","M_reek.wav","None","728.877452357","417","262174.64483","254435.183944","255202.261273","255969.416723","256736.877149","257503.897689","258271.093703","259038.210392","248297.050352","249064.438666","249831.716407","250598.819876","251366.150801","252133.427941","252900.527204","253667.81456","259041.043819","Mapping"
"Blocked","Male","tile","17","M_bluff.wav","None","728.653302187","417","262174.64483","254435.183944","255202.261273","255969.416723","256736.877149","257503.897689","258271.093703","259038.210392","262941.671379","249064.438666","249831.716407","250598.819876","251366.150801","252133.427941","252900.527204","253667.81456","262178.124566","Mapping"
"Blocked","Male","tile","17","M_tile.wav","None","728.485339798","417","262174.64483","254435.183944","255202.261273","255969.416723","256736.877149","257503.897689","258271.093703","259038.210392","262941.671379","263708.273064","249831.716407","250598.819876","251366.150801","252133.427941","252900.527204","253667.81456","262945.613537","Mapping"
"Blocked","Male","tile","17","M_cling.wav","space","472.639557516","417","262174.64483","254435.183944","255202.261273","255969.416723","256736.877149","257503.897689","258271.093703","259038.210392","262941.671379","263708.273064","264475.711857","250598.819876","251366.150801","252133.427941","252900.527204","253667.81456","263711.206547","Mapping"
"Blocked","Male","tile","17","M_tile.wav","None","729.690823004","417","262174.64483","254435.183944","255202.261273","255969.416723","256736.877149","257503.897689","258271.093703","259038.210392","262941.671379","263708.273064","264475.711857","265242.949335","251366.150801","252133.427941","252900.527204","253667.81456","264478.814204","Mapping"
"Blocked","Male","tile","17","M_gnash.wav","space","411.447763696","417","262174.64483","254435.183944","255202.261273","255969.416723","256736.877149","257503.897689","258271.093703","259038.210392","262941.671379","263708.273064","264475.711857","265242.949335","266010.876391","252133.427941","252900.527204","253667.81456","265246.387006","Mapping"
"Blocked","Male","tile","17","M_tile.wav","None","728.312269426","417","262174.64483","254435.183944","255202.261273","255969.416723","256736.877149","257503.897689","258271.093703","259038.210392","262941.671379","263708.273064","264475.711857","265242.949335","266010.876391","266777.364799","252900.527204","253667.81456","266014.788503","Mapping"
"Blocked","Male","tile","17","M_lash.wav","space","471.212027429","417","262174.64483","254435.183944","255202.261273","255969.416723","256736.877149","257503.897689","258271.093703","259038.210392","262941.671379","263708.273064","264475.711857","265242.949335","266010.876391","266777.364799","267545.02594","253667.81456","266780.611672","Mapping"
"Blocked","Male","tile","17","M_park.wav","None","727.960119299","417","262174.64483","254435.183944","255202.261273","255969.416723","256736.877149","257503.897689","258271.093703","259038.210392","262941.671379","263708.273064","264475.711857","265242.949335","266010.876391","266777.364799","267545.02594","268311.806103","267548.920023","Mapping"
"Blocked","Male","tile","17","M_dime.wav","None","729.276475709","417","262174.64483","269078.887939","255202.261273","255969.416723","256736.877149","257503.897689","258271.093703","259038.210392","262941.671379","263708.273064","264475.711857","265242.949335","266010.876391","266777.364799","267545.02594","268311.806103","268315.043661","Mapping"
"Blocked","Male","tile","17","M_depth.wav","None","729.399968632","417","262174.64483","269078.887939","269846.215558","255969.416723","256736.877149","257503.897689","258271.093703","259038.210392","262941.671379","263708.273064","264475.711857","265242.949335","266010.876391","266777.364799","267545.02594","268311.806103","269082.201215","Mapping"
"Blocked","Male","tile","17","M_tile.wav","None","729.72748027","417","262174.64483","269078.887939","269846.215558","270613.491496","256736.877149","257503.897689","258271.093703","259038.210392","262941.671379","263708.273064","264475.711857","265242.949335","266010.876391","266777.364799","267545.02594","268311.806103","269849.093454","Mapping"
"Blocked","Male","tile","17","M_depth.wav","space","383.097274562","417","262174.64483","269078.887939","269846.215558","270613.491496","271380.673989","257503.897689","258271.093703","259038.210392","262941.671379","263708.273064","264475.711857","265242.949335","266010.876391","266777.364799","267545.02594","268311.806103","270616.735364","Mapping"
"Blocked","Male","tile","17","M_bluff.wav","None","728.923424174","417","262174.64483","269078.887939","269846.215558","270613.491496","271380.673989","272147.667486","258271.093703","259038.210392","262941.671379","263708.273064","264475.711857","265242.949335","266010.876391","266777.364799","267545.02594","268311.806103","271384.095734","Mapping"
"Blocked","Male","tile","17","M_park.wav","None","729.682109391","417","262174.64483","269078.887939","269846.215558","270613.491496","271380.673989","272147.667486","272915.104176","259038.210392","262941.671379","263708.273064","264475.711857","265242.949335","266010.876391","266777.364799","267545.02594","268311.806103","272150.706133","Mapping"
"Blocked","Male","tile","17","M_jaw.wav","None","729.464870021","417","262174.64483","269078.887939","269846.215558","270613.491496","271380.673989","272147.667486","272915.104176","273682.317617","262941.671379","263708.273064","264475.711857","265242.949335","266010.876391","266777.364799","267545.02594","268311.806103","272917.909658","Mapping"
"Blocked","Male","cave","12","M_depth.wav","None","728.968494583","417","276818.556749","269078.887939","269846.215558","270613.491496","271380.673989","272147.667486","272915.104176","273682.317617","262941.671379","263708.273064","264475.711857","265242.949335","266010.876391","266777.364799","267545.02594","268311.806103","273685.373691","Mapping"
"Blocked","Male","cave","12","M_knife.wav","None","728.229640345","417","276818.556749","269078.887939","269846.215558","270613.491496","271380.673989","272147.667486","272915.104176","273682.317617","277585.782209","263708.273064","264475.711857","265242.949335","266010.876391","266777.364799","267545.02594","268311.806103","276822.168391","Mapping"
"Blocked","Male","cave","12","M_reek.wav","None","728.469715388","417","276818.556749","269078.887939","269846.215558","270613.491496","271380.673989","272147.667486","272915.104176","273682.317617","277585.782209","278352.413941","264475.711857","265242.949335","266010.876391","266777.364799","267545.02594","268311.806103","277589.358997","Mapping"
"Blocked","Male","cave","12","M_cave.wav","None","729.724175106","417","276818.556749","269078.887939","269846.215558","270613.491496","271380.673989","272147.667486","272915.104176","273682.317617","277585.782209","278352.413941","279119.595532","265242.949335","266010.876391","266777.364799","267545.02594","268311.806103","278355.501264","Mapping"
"Blocked","Male","cave","12","M_gnash.wav","space","370.265428654","417","276818.556749","269078.887939","269846.215558","270613.491496","271380.673989","272147.667486","272915.104176","273682.317617","277585.782209","278352.413941","279119.595532","279886.746175","266010.876391","266777.364799","267545.02594","268311.806103","279122.574686","Mapping"
"Blocked","Male","cave","12","M_lash.wav","None","729.913470825","417","276818.556749","269078.887939","269846.215558","270613.491496","271380.673989","272147.667486","272915.104176","273682.317617","277585.782209","278352.413941","279119.595532","279886.746175","280654.053362","266777.364799","267545.02594","268311.806103","279889.862343","Mapping"
"Blocked","Male","cave","12","M_dime.wav","None","729.734391065","417","276818.556749","269078.887939","269846.215558","270613.491496","271380.673989","272147.667486","272915.104176","273682.317617","277585.782209","278352.413941","279119.595532","279886.746175","280654.053362","281421.041751","267545.02594","268311.806103","280657.430037","Mapping"
"Blocked","Male","cave","12","M_jolt.wav","None","730.884287434","417","276818.556749","269078.887939","269846.215558","270613.491496","271380.673989","272147.667486","272915.104176","273682.317617","277585.782209","278352.413941","279119.595532","279886.746175","280654.053362","281421.041751","282188.224845","268311.806103","281424.045243","Mapping"
"Blocked","Male","cave","12","M_cave.wav","None","731.373451606","417","276818.556749","269078.887939","269846.215558","270613.491496","271380.673989","272147.667486","272915.104176","273682.317617","277585.782209","278352.413941","279119.595532","279886.746175","280654.053362","281421.041751","282188.224845","282955.516107","282190.828112","Mapping"
"Blocked","Male","cave","12","M_park.wav","space","414.611105469","417","276818.556749","283722.883689","269846.215558","270613.491496","271380.673989","272147.667486","272915.104176","273682.317617","277585.782209","278352.413941","279119.595532","279886.746175","280654.053362","281421.041751","282188.224845","282955.516107","282958.221834","Mapping"
"Blocked","Male","cave","12","M_cave.wav","None","730.522522284","417","276818.556749","283722.883689","284490.153318","270613.491496","271380.673989","272147.667486","272915.104176","273682.317617","277585.782209","278352.413941","279119.595532","279886.746175","280654.053362","281421.041751","282188.224845","282955.516107","283725.984533","Mapping"
"Blocked","Male","cave","12","M_park.wav","space","447.739057956","417","276818.556749","283722.883689","284490.153318","285257.913913","271380.673989","272147.667486","272915.104176","273682.317617","277585.782209","278352.413941","279119.595532","279886.746175","280654.053362","281421.041751","282188.224845","282955.516107","284493.095213","Mapping"
"Blocked","Male","cave","12","M_reek.wav","None","728.41472949","417","276818.556749","283722.883689","284490.153318","285257.913913","286025.069063","272147.667486","272915.104176","273682.317617","277585.782209","278352.413941","279119.595532","279886.746175","280654.053362","281421.041751","282188.224845","282955.516107","285261.760823","Mapping"
"Blocked","Male","cave","12","M_bluff.wav","None","728.738935966","417","276818.556749","283722.883689","284490.153318","285257.913913","286025.069063","286791.796945","272915.104176","273682.317617","277585.782209","278352.413941","279119.595532","279886.746175","280654.053362","281421.041751","282188.224845","282955.516107","286028.829137","Mapping"
"Blocked","Male","cave","12","M_cave.wav","None","730.128306441","417","276818.556749","283722.883689","284490.153318","285257.913913","286025.069063","286791.796945","287558.898311","273682.317617","277585.782209","278352.413941","279119.595532","279886.746175","280654.053362","281421.041751","282188.224845","282955.516107","286794.854221","Mapping"
"Blocked","Male","cave","12","M_lash.wav","space","606.849920945","417","276818.556749","283722.883689","284490.153318","285257.913913","286025.069063","286791.796945","287558.898311","288326.248465","277585.782209","278352.413941","279119.595532","279886.746175","280654.053362","281421.041751","282188.224845","282955.516107","287561.968507","Mapping"
"Blocked","Male","cave","8","M_park.wav","None","730.10847546","417","291462.699429","283722.883689","284490.153318","285257.913913","286025.069063","286791.796945","287558.898311","288326.248465","277585.782209","278352.413941","279119.595532","279886.746175","280654.053362","281421.041751","282188.224845","282955.516107","288329.348108","Mapping"
"Blocked","Male","cave","8","M_cad.wav","None","729.096494544","417","291462.699429","283722.883689","284490.153318","285257.913913","286025.069063","286791.796945","287558.898311","288326.248465","292228.855819","278352.413941","279119.595532","279886.746175","280654.053362","281421.041751","282188.224845","282955.516107","291466.189081","Mapping"
"Blocked","Male","cave","8","M_cling.wav","None","731.200681706","417","291462.699429","283722.883689","284490.153318","285257.913913","286025.069063","286791.796945","287558.898311","288326.248465","292228.855819","292996.068358","279119.595532","279886.746175","280654.053362","281421.041751","282188.224845","282955.516107","292231.606916","Mapping"
"Blocked","Male","cave","8","M_cave.wav","None","731.125263887","417","291462.699429","283722.883689","284490.153318","285257.913913","286025.069063","286791.796945","287558.898311","288326.248465","292228.855819","292996.068358","293763.238531","279886.746175","280654.053362","281421.041751","282188.224845","282955.516107","292998.997033","Mapping"
"Blocked","Male","cave","8","M_priest.wav","space","340.439334328","417","291462.699429","283722.883689","284490.153318","285257.913913","286025.069063","286791.796945","287558.898311","288326.248465","292228.855819","292996.068358","293763.238531","294530.576366","280654.053362","281421.041751","282188.224845","282955.516107","293766.358605","Mapping"
"Blocked","Male","cave","8","M_knife.wav","None","730.602747613","417","291462.699429","283722.883689","284490.153318","285257.913913","286025.069063","286791.796945","287558.898311","288326.248465","292228.855819","292996.068358","293763.238531","294530.576366","295298.731178","281421.041751","282188.224845","282955.516107","294533.658281","Mapping"
"Blocked","Male","cave","8","M_cave.wav","None","729.342578976","417","291462.699429","283722.883689","284490.153318","285257.913913","286025.069063","286791.796945","287558.898311","288326.248465","292228.855819","292996.068358","293763.238531","294530.576366","295298.731178","296066.079229","282188.224845","282955.516107","295302.206106","Mapping"
"Blocked","Male","cave","8","M_bluff.wav","space","476.301077544","417","291462.699429","283722.883689","284490.153318","285257.913913","286025.069063","286791.796945","287558.898311","288326.248465","292228.855819","292996.068358","293763.238531","294530.576366","295298.731178","296066.079229","296832.642454","282955.516107","296069.512092","Mapping"
"Blocked","Male","cave","8","M_cave.wav","None","730.018935581","417","291462.699429","283722.883689","284490.153318","285257.913913","286025.069063","286791.796945","287558.898311","288326.248465","292228.855819","292996.068358","293763.238531","294530.576366","295298.731178","296066.079229","296832.642454","297599.473998","296835.765833","Mapping"
"Blocked","Male","cave","8","M_bluff.wav","space","411.530693249","417","291462.699429","298367.412171","284490.153318","285257.913913","286025.069063","286791.796945","287558.898311","288326.248465","292228.855819","292996.068358","293763.238531","294530.576366","295298.731178","296066.079229","296832.642454","297599.473998","297602.316138","Mapping"
"Blocked","Male","cave","8","M_cad.wav","None","728.938147175","417","291462.699429","298367.412171","299134.584748","285257.913913","286025.069063","286791.796945","287558.898311","288326.248465","292228.855819","292996.068358","293763.238531","294530.576366","295298.731178","296066.079229","296832.642454","297599.473998","298371.288827","Mapping"
"Blocked","Male","cave","8","M_reek.wav","None","729.8263347","417","291462.699429","298367.412171","299134.584748","299901.189438","286025.069063","286791.796945","287558.898311","288326.248465","292228.855819","292996.068358","293763.238531","294530.576366","295298.731178","296066.079229","296832.642454","297599.473998","299138.027527","Mapping"
"Blocked","Male","cave","8","M_reek.wav","None","731.57446563","417","291462.699429","298367.412171","299134.584748","299901.189438","300668.6084","286791.796945","287558.898311","288326.248465","292228.855819","292996.068358","293763.238531","294530.576366","295298.731178","296066.079229","296832.642454","297599.473998","299904.019259","Mapping"
"Blocked","Male","cave","8","M_cave.wav","None","731.07418409","417","291462.699429","298367.412171","299134.584748","299901.189438","300668.6084","301435.816733","287558.898311","288326.248465","292228.855819","292996.068358","293763.238531","294530.576366","295298.731178","296066.079229","296832.642454","297599.473998","300671.707742","Mapping"
"Blocked","Male","cave","8","M_greet.wav","space","515.004840563","417","291462.699429","298367.412171","299134.584748","299901.189438","300668.6084","301435.816733","302202.808728","288326.248465","292228.855819","292996.068358","293763.238531","294530.576366","295298.731178","296066.079229","296832.642454","297599.473998","301438.827136","Mapping"
"Blocked","Male","cave","8","M_bluff.wav","None","731.375855361","417","291462.699429","298367.412171","299134.584748","299901.189438","300668.6084","301435.816733","302202.808728","302970.038094","292228.855819","292996.068358","293763.238531","294530.576366","295298.731178","296066.079229","296832.642454","297599.473998","302205.653272","Mapping"
"Blocked","Male","tile","13","M_knife.wav","None","731.413714506","417","306106.56117","298367.412171","299134.584748","299901.189438","300668.6084","301435.816733","302202.808728","302970.038094","292228.855819","292996.068358","293763.238531","294530.576366","295298.731178","296066.079229","296832.642454","297599.473998","302972.810525","Mapping"
"Blocked","Male","tile","13","M_jolt.wav","None","729.259649424","417","306106.56117","298367.412171","299134.584748","299901.189438","300668.6084","301435.816733","302202.808728","302970.038094","306872.822123","292996.068358","293763.238531","294530.576366","295298.731178","296066.079229","296832.642454","297599.473998","306109.989225","Mapping"
"Blocked","Male","tile","13","M_tile.wav","None","731.02971462","417","306106.56117","298367.412171","299134.584748","299901.189438","300668.6084","301435.816733","302202.808728","302970.038094","306872.822123","307640.035564","293763.238531","294530.576366","295298.731178","296066.079229","296832.642454","297599.473998","306875.72015","Mapping"
"Blocked","Male","tile","13","M_romp.wav","space","428.019251674","417","306106.56117","298367.412171","299134.584748","299901.189438","300668.6084","301435.816733","302202.808728","302970.038094","306872.822123","307640.035564","308407.230375","294530.576366","295298.731178","296066.079229","296832.642454","297599.473998","307642.83053","Mapping"
"Blocked","Male","tile","13","M_tile.wav","None","731.361132363","417","306106.56117","298367.412171","299134.584748","299901.189438","300668.6084","301435.816733","302202.808728","302970.038094","306872.822123","307640.035564","308407.230375","309174.40175","295298.731178","296066.079229","296832.642454","297599.473998","308409.862788","Mapping"
"Blocked","Male","tile","13","M_park.wav","space","470.522149702","417","306106.56117","298367.412171","299134.584748","299901.189438","300668.6084","301435.816733","302202.808728","302970.038094","306872.822123","307640.035564","308407.230375","309174.40175","309941.86428","296066.079229","296832.642454","297599.473998","309177.296172","Mapping"
"Blocked","Male","tile","13","M_priest.wav","None","730.042071726","417","306106.56117","298367.412171","299134.584748","299901.189438","300668.6084","301435.816733","302202.808728","302970.038094","306872.822123","307640.035564","308407.230375","309174.40175","309941.86428","310709.177477","296832.642454","297599.473998","309945.009294","Mapping"
"Blocked","Male","tile","13","M_tile.wav","None","730.196813463","417","306106.56117","298367.412171","299134.584748","299901.189438","300668.6084","301435.816733","302202.808728","302970.038094","306872.822123","307640.035564","308407.230375","309174.40175","309941.86428","310709.177477","311476.474749","297599.473998","310712.116969","Mapping"
"Blocked","Male","tile","13","M_dime.wav","space","485.250257952","417","306106.56117","298367.412171","299134.584748","299901.189438","300668.6084","301435.816733","302202.808728","302970.038094","306872.822123","307640.035564","308407.230375","309174.40175","309941.86428","310709.177477","311476.474749","312243.745579","311479.564476","Mapping"
"Blocked","Male","tile","13","M_cad.wav","None","730.012625723","417","306106.56117","313010.608973","299134.584748","299901.189438","300668.6084","301435.816733","302202.808728","302970.038094","306872.822123","307640.035564","308407.230375","309174.40175","309941.86428","310709.177477","311476.474749","312243.745579","312247.020996","Mapping"
"Blocked","Male","tile","13","M_cad.wav","None","731.268888258","417","306106.56117","313010.608973","313778.029438","299901.189438","300668.6084","301435.816733","302202.808728","302970.038094","306872.822123","307640.035564","308407.230375","309174.40175","309941.86428","310709.177477","311476.474749","312243.745579","313013.402738","Mapping"
"Blocked","Male","tile","13","M_gnash.wav","None","730.323912016","417","306106.56117","313010.608973","313778.029438","314545.33362","300668.6084","301435.816733","302202.808728","302970.038094","306872.822123","307640.035564","308407.230375","309174.40175","309941.86428","310709.177477","311476.474749","312243.745579","313781.99353","Mapping"
"Blocked","Male","tile","13","M_romp.wav","None","731.804625186","417","306106.56117","313010.608973","313778.029438","314545.33362","315312.252601","301435.816733","302202.808728","302970.038094","306872.822123","307640.035564","308407.230375","309174.40175","309941.86428","310709.177477","311476.474749","312243.745579","314548.338915","Mapping"
"Blocked","Male","tile","13","M_priest.wav","None","732.694915998","417","306106.56117","313010.608973","313778.029438","314545.33362","315312.252601","316079.484671","302202.808728","302970.038094","306872.822123","307640.035564","308407.230375","309174.40175","309941.86428","310709.177477","311476.474749","312243.745579","315315.003398","Mapping"
"Blocked","Male","tile","13","M_tile.wav","None","732.978559106","417","306106.56117","313010.608973","313778.029438","314545.33362","315312.252601","316079.484671","316846.677379","302970.038094","306872.822123","307640.035564","308407.230375","309174.40175","309941.86428","310709.177477","311476.474749","312243.745579","316082.002004","Mapping"
"Blocked","Male","tile","13","M_priest.wav","space","475.530674019","417","306106.56117","313010.608973","313778.029438","314545.33362","315312.252601","316079.484671","316846.677379","317613.861074","306872.822123","307640.035564","308407.230375","309174.40175","309941.86428","310709.177477","311476.474749","312243.745579","316849.298975","Mapping"
"Blocked","Male","done","23","M_bluff.wav","None","732.745695324","417","320750.441239","313010.608973","313778.029438","314545.33362","315312.252601","316079.484671","316846.677379","317613.861074","306872.822123","307640.035564","308407.230375","309174.40175","309941.86428","310709.177477","311476.474749","312243.745579","317616.554181","Mapping"
"Blocked","Male","done","23","M_bluff.wav","None","729.248231588","417","320750.441239","313010.608973","313778.029438","314545.33362","315312.252601","316079.484671","316846.677379","317613.861074","321516.691075","307640.035564","308407.230375","309174.40175","309941.86428","310709.177477","311476.474749","312243.745579","320754.044168","Mapping"
"Blocked","Male","done","23","M_knife.wav","None","731.593996141","417","320750.441239","313010.608973","313778.029438","314545.33362","315312.252601","316079.484671","316846.677379","317613.861074","321516.691075","322284.975689","308407.230375","309174.40175","309941.86428","310709.177477","311476.474749","312243.745579","321519.355938","Mapping"
"Blocked","Male","done","23","M_done.wav","None","729.564024919","417","320750.441239","313010.608973","313778.029438","314545.33362","315312.252601","316079.484671","316846.677379","317613.861074","321516.691075","322284.975689","323051.579477","309174.40175","309941.86428","310709.177477","311476.474749","312243.745579","322288.538956","Mapping"
"Blocked","Male","done","23","M_dime.wav","space","455.132107378","417","320750.441239","313010.608973","313778.029438","314545.33362","315312.252601","316079.484671","316846.677379","317613.861074","321516.691075","322284.975689","323051.579477","323818.336806","309941.86428","310709.177477","311476.474749","312243.745579","323054.683326","Mapping"
"Blocked","Male","done","23","M_knife.wav","None","731.473207445","417","320750.441239","313010.608973","313778.029438","314545.33362","315312.252601","316079.484671","316846.677379","317613.861074","321516.691075","322284.975689","323051.579477","323818.336806","324585.674641","310709.177477","311476.474749","312243.745579","323821.272091","Mapping"
"Blocked","Male","done","23","M_done.wav","None","732.061826986","417","320750.441239","313010.608973","313778.029438","314545.33362","315312.252601","316079.484671","316846.677379","317613.861074","321516.691075","322284.975689","323051.579477","323818.336806","324585.674641","325352.866147","311476.474749","312243.745579","324588.33079","Mapping"
"Blocked","Male","done","23","M_cling.wav","space","460.431786536","417","320750.441239","313010.608973","313778.029438","314545.33362","315312.252601","316079.484671","316846.677379","317613.861074","321516.691075","322284.975689","323051.579477","323818.336806","324585.674641","325352.866147","326120.13848","312243.745579","325355.403011","Mapping"
"Blocked","Male","done","23","M_lash.wav","None","731.956662697","417","320750.441239","313010.608973","313778.029438","314545.33362","315312.252601","316079.484671","316846.677379","317613.861074","321516.691075","322284.975689","323051.579477","323818.336806","324585.674641","325352.866147","326120.13848","326887.333593","326122.709296","Mapping"
"Blocked","Male","done","23","M_gnash.wav","None","732.273056969","417","320750.441239","327654.752554","313778.029438","314545.33362","315312.252601","316079.484671","316846.677379","317613.861074","321516.691075","322284.975689","323051.579477","323818.336806","324585.674641","325352.866147","326120.13848","326887.333593","326890.017385","Mapping"
"Blocked","Male","done","23","M_done.wav","None","732.133338703","417","320750.441239","327654.752554","328422.055836","314545.33362","315312.252601","316079.484671","316846.677379","317613.861074","321516.691075","322284.975689","323051.579477","323818.336806","324585.674641","325352.866147","326120.13848","326887.333593","327657.857605","Mapping"
"Blocked","Male","done","23","M_jolt.wav","space","558.887494042","417","320750.441239","327654.752554","328422.055836","329188.969708","315312.252601","316079.484671","316846.677379","317613.861074","321516.691075","322284.975689","323051.579477","323818.336806","324585.674641","325352.866147","326120.13848","326887.333593","328424.93283","Mapping"
"Blocked","Male","done","23","M_cling.wav","None","731.517977385","417","320750.441239","327654.752554","328422.055836","329188.969708","329956.246548","316079.484671","316846.677379","317613.861074","321516.691075","322284.975689","323051.579477","323818.336806","324585.674641","325352.866147","326120.13848","326887.333593","329192.246928","Mapping"
"Blocked","Male","done","23","M_done.wav","None","731.523085364","417","320750.441239","327654.752554","328422.055836","329188.969708","329956.246548","330723.357529","316846.677379","317613.861074","321516.691075","322284.975689","323051.579477","323818.336806","324585.674641","325352.866147","326120.13848","326887.333593","329959.463073","Mapping"
"Blocked","Male","done","23","M_reek.wav","space","515.721159596","417","320750.441239","327654.752554","328422.055836","329188.969708","329956.246548","330723.357529","331490.649092","317613.861074","321516.691075","322284.975689","323051.579477","323818.336806","324585.674641","325352.866147","326120.13848","326887.333593","330726.079481","Mapping"
"Blocked","Male","done","23","M_romp.wav","None","731.030616029","417","320750.441239","327654.752554","328422.055836","329188.969708","329956.246548","330723.357529","331490.649092","332257.882063","321516.691075","322284.975689","323051.579477","323818.336806","324585.674641","325352.866147","326120.13848","326887.333593","331493.93142","Mapping"
"Blocked","Male","ball","3","M_dime.wav","None","731.293827217","417","335394.386811","327654.752554","328422.055836","329188.969708","329956.246548","330723.357529","331490.649092","332257.882063","321516.691075","322284.975689","323051.579477","323818.336806","324585.674641","325352.866147","326120.13848","326887.333593","332261.058025","Mapping"
"Blocked","Male","ball","3","M_ball.wav","None","728.467311634","417","335394.386811","327654.752554","328422.055836","329188.969708","329956.246548","330723.357529","331490.649092","332257.882063","336160.885736","322284.975689","323051.579477","323818.336806","324585.674641","325352.866147","326120.13848","326887.333593","335398.116538","Mapping"
"Blocked","Male","ball","3","M_depth.wav","space","440.940637465","417","335394.386811","327654.752554","328422.055836","329188.969708","329956.246548","330723.357529","331490.649092","332257.882063","336160.885736","336928.809186","323051.579477","323818.336806","324585.674641","325352.866147","326120.13848","326887.333593","336163.802392","Mapping"
"Blocked","Male","ball","3","M_ball.wav","None","728.829076783","417","335394.386811","327654.752554","328422.055836","329188.969708","329956.246548","330723.357529","331490.649092","332257.882063","336160.885736","336928.809186","337695.973049","323818.336806","324585.674641","325352.866147","326120.13848","326887.333593","336932.70357","Mapping"
"Blocked","Male","ball","3","M_knife.wav","space","384.248072338","417","335394.386811","327654.752554","328422.055836","329188.969708","329956.246548","330723.357529","331490.649092","332257.882063","336160.885736","336928.809186","337695.973049","338462.59096","324585.674641","325352.866147","326120.13848","326887.333593","337699.545029","Mapping"
"Blocked","Male","ball","3","M_depth.wav","None","730.661339145","417","335394.386811","327654.752554","328422.055836","329188.969708","329956.246548","330723.357529","331490.649092","332257.882063","336160.885736","336928.809186","337695.973049","338462.59096","339229.581452","325352.866147","326120.13848","326887.333593","338465.416273","Mapping"
"Blocked","Male","ball","3","M_cad.wav","None","731.481019649","417","335394.386811","327654.752554","328422.055836","329188.969708","329956.246548","330723.357529","331490.649092","332257.882063","336160.885736","336928.809186","337695.973049","338462.59096","339229.581452","339996.711362","326120.13848","326887.333593","339232.229489","Mapping"
"Blocked","Male","ball","3","M_jolt.wav","None","731.927817636","417","335394.386811","327654.752554","328422.055836","329188.969708","329956.246548","330723.357529","331490.649092","332257.882063","336160.885736","336928.809186","337695.973049","338462.59096","339229.581452","339996.711362","340764.04409","326887.333593","339999.277972","Mapping"
"Blocked","Male","ball","3","M_knife.wav","None","731.865920943","417","335394.386811","327654.752554","328422.055836","329188.969708","329956.246548","330723.357529","331490.649092","332257.882063","336160.885736","336928.809186","337695.973049","338462.59096","339229.581452","339996.711362","340764.04409","341531.205249","340766.997403","Mapping"
"Blocked","Male","ball","3","M_romp.wav","None","732.598765791","417","335394.386811","342298.515441","328422.055836","329188.969708","329956.246548","330723.357529","331490.649092","332257.882063","336160.885736","336928.809186","337695.973049","338462.59096","339229.581452","339996.711362","340764.04409","341531.205249","341533.999013","Mapping"
"Blocked","Male","ball","3","M_romp.wav","None","732.888117818","417","335394.386811","342298.515441","343065.69583","329188.969708","329956.246548","330723.357529","331490.649092","332257.882063","336160.885736","336928.809186","337695.973049","338462.59096","339229.581452","339996.711362","340764.04409","341531.205249","342301.5622","Mapping"
"Blocked","Male","ball","3","M_ball.wav","None","733.607441545","417","335394.386811","342298.515441","343065.69583","343832.954341","329956.246548","330723.357529","331490.649092","332257.882063","336160.885736","336928.809186","337695.973049","338462.59096","339229.581452","339996.711362","340764.04409","341531.205249","343068.401256","Mapping"
"Blocked","Male","ball","3","M_cad.wav","space","363.357036364","417","335394.386811","342298.515441","343065.69583","343832.954341","344600.060515","330723.357529","331490.649092","332257.882063","336160.885736","336928.809186","337695.973049","338462.59096","339229.581452","339996.711362","340764.04409","341531.205249","343835.467467","Mapping"
"Blocked","Male","ball","3","M_ball.wav","None","733.454202154","417","335394.386811","342298.515441","343065.69583","343832.954341","344600.060515","345367.330143","331490.649092","332257.882063","336160.885736","336928.809186","337695.973049","338462.59096","339229.581452","339996.711362","340764.04409","341531.205249","344602.680908","Mapping"
"Blocked","Male","ball","3","M_depth.wav","space","370.116395832","417","335394.386811","342298.515441","343065.69583","343832.954341","344600.060515","345367.330143","346134.583546","332257.882063","336160.885736","336928.809186","337695.973049","338462.59096","339229.581452","339996.711362","340764.04409","341531.205249","345370.729353","Mapping"
"Blocked","Male","ball","3","M_jolt.wav","None","733.627572994","417","335394.386811","342298.515441","343065.69583","343832.954341","344600.060515","345367.330143","346134.583546","346901.790677","336160.885736","336928.809186","337695.973049","338462.59096","339229.581452","339996.711362","340764.04409","341531.205249","346137.141743","Mapping"
"Blocked","Male","done","21","M_lash.wav","None","734.008267717","417","350038.431538","342298.515441","343065.69583","343832.954341","344600.060515","345367.330143","346134.583546","346901.790677","336160.885736","336928.809186","337695.973049","338462.59096","339229.581452","339996.711362","340764.04409","341531.205249","346904.620799","Mapping"
"Blocked","Male","done","21","M_lash.wav","None","729.10340534","417","350038.431538","342298.515441","343065.69583","343832.954341","344600.060515","345367.330143","346134.583546","346901.790677","350804.617974","336928.809186","337695.973049","338462.59096","339229.581452","339996.711362","340764.04409","341531.205249","350041.90857","Mapping"
"Blocked","Male","done","21","M_romp.wav","None","731.16883195","417","350038.431538","342298.515441","343065.69583","343832.954341","344600.060515","345367.330143","346134.583546","346901.790677","350804.617974","351571.839828","337695.973049","338462.59096","339229.581452","339996.711362","340764.04409","341531.205249","350807.722724","Mapping"
"Blocked","Male","done","21","M_done.wav","None","732.316024092","417","350038.431538","342298.515441","343065.69583","343832.954341","344600.060515","345367.330143","346134.583546","346901.790677","350804.617974","351571.839828","352338.997081","338462.59096","339229.581452","339996.711362","340764.04409","341531.205249","351574.667245","Mapping"
"Blocked","Male","done","21","M_priest.wav","space","370.080039036","417","350038.431538","342298.515441","343065.69583","343832.954341","344600.060515","345367.330143","346134.583546","346901.790677","350804.617974","351571.839828","352338.997081","353106.263104","339229.581452","339996.711362","340764.04409","341531.205249","352341.722339","Mapping"
"Blocked","Male","done","21","M_done.wav","None","732.614991139","417","350038.431538","342298.515441","343065.69583","343832.954341","344600.060515","345367.330143","346134.583546","346901.790677","350804.617974","351571.839828","352338.997081","353106.263104","353873.550461","339996.711362","340764.04409","341531.205249","353108.922258","Mapping"
"Blocked","Male","done","21","M_dime.wav","space","492.42817129","417","350038.431538","342298.515441","343065.69583","343832.954341","344600.060515","345367.330143","346134.583546","346901.790677","350804.617974","351571.839828","352338.997081","353106.263104","353873.550461","354640.753685","340764.04409","341531.205249","353876.380281","Mapping"
"Blocked","Male","done","21","M_done.wav","None","732.7135451","417","350038.431538","342298.515441","343065.69583","343832.954341","344600.060515","345367.330143","346134.583546","346901.790677","350804.617974","351571.839828","352338.997081","353106.263104","353873.550461","354640.753685","355407.9503","341531.205249","354643.397516","Mapping"
"Blocked","Male","done","21","M_reek.wav","space","435.309841034","417","350038.431538","342298.515441","343065.69583","343832.954341","344600.060515","345367.330143","346134.583546","346901.790677","350804.617974","351571.839828","352338.997081","353106.263104","353873.550461","354640.753685","355407.9503","356175.21422","355410.524722","Mapping"
"Blocked","Male","done","21","M_lash.wav","None","732.37641844","417","350038.431538","356942.453501","343065.69583","343832.954341","344600.060515","345367.330143","346134.583546","346901.790677","350804.617974","351571.839828","352338.997081","353106.263104","353873.550461","354640.753685","355407.9503","356175.21422","356177.817787","Mapping"
"Blocked","Male","done","21","M_jaw.wav","None","731.977695556","417","350038.431538","356942.453501","357709.602341","343832.954341","344600.060515","345367.330143","346134.583546","346901.790677","350804.617974","351571.839828","352338.997081","353106.263104","353873.550461","354640.753685","355407.9503","356175.21422","356945.667622","Mapping"
"Blocked","Male","done","21","M_gnash.wav","None","732.601770487","417","350038.431538","356942.453501","357709.602341","358476.793547","344600.060515","345367.330143","346134.583546","346901.790677","350804.617974","351571.839828","352338.997081","353106.263104","353873.550461","354640.753685","355407.9503","356175.21422","357712.765983","Mapping"
"Blocked","Male","done","21","M_done.wav","None","732.923272737","417","350038.431538","356942.453501","357709.602341","358476.793547","359244.069185","345367.330143","346134.583546","346901.790677","350804.617974","351571.839828","352338.997081","353106.263104","353873.550461","354640.753685","355407.9503","356175.21422","358480.049133","Mapping"
"Blocked","Male","done","21","M_greet.wav","space","506.412617791","417","350038.431538","356942.453501","357709.602341","358476.793547","359244.069185","360011.604428","346134.583546","346901.790677","350804.617974","351571.839828","352338.997081","353106.263104","353873.550461","354640.753685","355407.9503","356175.21422","359247.358724","Mapping"
"Blocked","Male","done","21","M_cling.wav","None","732.531761118","417","350038.431538","356942.453501","357709.602341","358476.793547","359244.069185","360011.604428","360778.828085","346901.790677","350804.617974","351571.839828","352338.997081","353106.263104","353873.550461","354640.753685","355407.9503","356175.21422","360015.22839","Mapping"
"Blocked","Male","done","21","M_romp.wav","None","732.903441758","417","350038.431538","356942.453501","357709.602341","358476.793547","359244.069185","360011.604428","360778.828085","361546.071873","350804.617974","351571.839828","352338.997081","353106.263104","353873.550461","354640.753685","355407.9503","356175.21422","360782.348685","Mapping"
"Blocked","Male","cave","10","M_greet.wav","None","733.596023707","417","364682.193222","356942.453501","357709.602341","358476.793547","359244.069185","360011.604428","360778.828085","361546.071873","350804.617974","351571.839828","352338.997081","353106.263104","353873.550461","354640.753685","355407.9503","356175.21422","361549.566633","Mapping"
"Blocked","Male","cave","10","M_cave.wav","None","727.686391681","417","364682.193222","356942.453501","357709.602341","358476.793547","359244.069185","360011.604428","360778.828085","361546.071873","365448.727001","351571.839828","352338.997081","353106.263104","353873.550461","354640.753685","355407.9503","356175.21422","364686.157615","Mapping"
"Blocked","Male","cave","10","M_priest.wav","space","441.853763949","417","364682.193222","356942.453501","357709.602341","358476.793547","359244.069185","360011.604428","360778.828085","361546.071873","365448.727001","366215.895973","352338.997081","353106.263104","353873.550461","354640.753685","355407.9503","356175.21422","365451.955845","Mapping"
"Blocked","Male","cave","10","M_jolt.wav","None","729.369621224","417","364682.193222","356942.453501","357709.602341","358476.793547","359244.069185","360011.604428","360778.828085","361546.071873","365448.727001","366215.895973","366983.289395","353106.263104","353873.550461","354640.753685","355407.9503","356175.21422","366219.380516","Mapping"
"Blocked","Male","cave","10","M_cave.wav","None","730.077226643","417","364682.193222","356942.453501","357709.602341","358476.793547","359244.069185","360011.604428","360778.828085","361546.071873","365448.727001","366215.895973","366983.289395","367750.315042","353873.550461","354640.753685","355407.9503","356175.21422","366986.553995","Mapping"
"Blocked","Male","cave","10","M_depth.wav","space","503.850815743","417","364682.193222","356942.453501","357709.602341","358476.793547","359244.069185","360011.604428","360778.828085","361546.071873","365448.727001","366215.895973","366983.289395","367750.315042","368517.418812","354640.753685","355407.9503","356175.21422","367752.952562","Mapping"
"Blocked","Male","cave","10","M_cave.wav","None","731.478615893","417","364682.193222","356942.453501","357709.602341","358476.793547","359244.069185","360011.604428","360778.828085","361546.071873","365448.727001","366215.895973","366983.289395","367750.315042","368517.418812","369284.601304","355407.9503","356175.21422","368519.961384","Mapping"
"Blocked","Male","cave","10","M_dime.wav","space","448.076184615","417","364682.193222","356942.453501","357709.602341","358476.793547","359244.069185","360011.604428","360778.828085","361546.071873","365448.727001","366215.895973","366983.289395","367750.315042","368517.418812","369284.601304","370052.271458","356175.21422","369287.712965","Mapping"
"Blocked","Male","cave","10","M_cave.wav","None","729.893940314","417","364682.193222","356942.453501","357709.602341","358476.793547","359244.069185","360011.604428","360778.828085","361546.071873","365448.727001","366215.895973","366983.289395","367750.315042","368517.418812","369284.601304","370052.271458","370819.042308","370055.683288","Mapping"
"Blocked","Male","cave","10","M_cling.wav","space","320.696391904","417","364682.193222","371586.627129","357709.602341","358476.793547","359244.069185","360011.604428","360778.828085","361546.071873","365448.727001","366215.895973","366983.289395","367750.315042","368517.418812","369284.601304","370052.271458","370819.042308","370822.152166","Mapping"
"Blocked","Male","cave","10","M_depth.wav","None","729.786372272","417","364682.193222","371586.627129","372353.563837","358476.793547","359244.069185","360011.604428","360778.828085","361546.071873","365448.727001","366215.895973","366983.289395","367750.315042","368517.418812","369284.601304","370052.271458","370819.042308","371590.269118","Mapping"
"Blocked","Male","cave","10","M_depth.wav","None","731.595198018","417","364682.193222","371586.627129","372353.563837","373120.702161","359244.069185","360011.604428","360778.828085","361546.071873","365448.727001","366215.895973","366983.289395","367750.315042","368517.418812","369284.601304","370052.271458","370819.042308","372356.357301","Mapping"
"Blocked","Male","cave","10","M_park.wav","None","732.628211794","417","364682.193222","371586.627129","372353.563837","373120.702161","373887.943245","360011.604428","360778.828085","361546.071873","365448.727001","366215.895973","366983.289395","367750.315042","368517.418812","369284.601304","370052.271458","370819.042308","373123.333972","Mapping"
"Blocked","Male","cave","10","M_jolt.wav","None","732.72856857","417","364682.193222","371586.627129","372353.563837","373120.702161","373887.943245","374655.153681","360778.828085","361546.071873","365448.727001","366215.895973","366983.289395","367750.315042","368517.418812","369284.601304","370052.271458","370819.042308","373891.129723","Mapping"
"Blocked","Male","cave","10","M_jaw.wav","None","733.990840492","417","364682.193222","371586.627129","372353.563837","373120.702161","373887.943245","374655.153681","375422.376436","361546.071873","365448.727001","366215.895973","366983.289395","367750.315042","368517.418812","369284.601304","370052.271458","370819.042308","374657.843183","Mapping"
"Blocked","Male","cave","10","M_cad.wav","None","734.547309807","417","364682.193222","371586.627129","372353.563837","373120.702161","373887.943245","374655.153681","375422.376436","376189.639755","365448.727001","366215.895973","366983.289395","367750.315042","368517.418812","369284.601304","370052.271458","370819.042308","375425.27206","Mapping"
"Blocked","Male","ball","5","M_jolt.wav","None","734.618821523","417","379326.116559","371586.627129","372353.563837","373120.702161","373887.943245","374655.153681","375422.376436","376189.639755","365448.727001","366215.895973","366983.289395","367750.315042","368517.418812","369284.601304","370052.271458","370819.042308","376192.692224","Mapping"
"Blocked","Male","ball","5","M_lash.wav","None","728.714898414","417","379326.116559","371586.627129","372353.563837","373120.702161","373887.943245","374655.153681","375422.376436","376189.639755","380093.109756","366215.895973","366983.289395","367750.315042","368517.418812","369284.601304","370052.271458","370819.042308","379329.796107","Mapping"
"Blocked","Male","ball","5","M_gnash.wav","None","729.862991966","417","379326.116559","371586.627129","372353.563837","373120.702161","373887.943245","374655.153681","375422.376436","376189.639755","380093.109756","380860.156136","366983.289395","367750.315042","368517.418812","369284.601304","370052.271458","370819.042308","380096.62014","Mapping"
"Blocked","Male","ball","5","M_ball.wav","None","731.255667604","417","379326.116559","371586.627129","372353.563837","373120.702161","373887.943245","374655.153681","375422.376436","376189.639755","380093.109756","380860.156136","381626.91046","367750.315042","368517.418812","369284.601304","370052.271458","370819.042308","380863.284323","Mapping"
"Blocked","Male","ball","5","M_dime.wav","space","317.048693469","417","379326.116559","371586.627129","372353.563837","373120.702161","373887.943245","374655.153681","375422.376436","376189.639755","380093.109756","380860.156136","381626.91046","382394.09145","368517.418812","369284.601304","370052.271458","370819.042308","381629.73998","Mapping"
"Blocked","Male","ball","5","M_park.wav","None","732.370409054","417","379326.116559","371586.627129","372353.563837","373120.702161","373887.943245","374655.153681","375422.376436","376189.639755","380093.109756","380860.156136","381626.91046","382394.09145","383161.431088","369284.601304","370052.271458","370819.042308","382396.821214","Mapping"
"Blocked","Male","ball","5","M_jolt.wav","None","732.695516936","417","379326.116559","371586.627129","372353.563837","373120.702161","373887.943245","374655.153681","375422.376436","376189.639755","380093.109756","380860.156136","381626.91046","382394.09145","383161.431088","383928.624998","370052.271458","370819.042308","383164.386204","Mapping"
"Blocked","Male","ball","5","M_ball.wav","None","733.5362303","417","379326.116559","371586.627129","372353.563837","373120.702161","373887.943245","374655.153681","375422.376436","376189.639755","380093.109756","380860.156136","381626.91046","382394.09145","383161.431088","383928.624998","384695.818307","370819.042308","383931.284152","Mapping"
"Blocked","Male","ball","5","M_greet.wav","space","279.083784688","417","379326.116559","371586.627129","372353.563837","373120.702161","373887.943245","374655.153681","375422.376436","376189.639755","380093.109756","380860.156136","381626.91046","382394.09145","383161.431088","383928.624998","384695.818307","385463.422959","384698.701612","Mapping"
"Blocked","Male","ball","5","M_ball.wav","None","732.506822156","417","379326.116559","386230.184194","372353.563837","373120.702161","373887.943245","374655.153681","375422.376436","376189.639755","380093.109756","380860.156136","381626.91046","382394.09145","383161.431088","383928.624998","384695.818307","385463.422959","385466.678545","Mapping"
"Blocked","Male","ball","5","M_lash.wav","space","493.633654494","417","379326.116559","386230.184194","386997.763005","373120.702161","373887.943245","374655.153681","375422.376436","376189.639755","380093.109756","380860.156136","381626.91046","382394.09145","383161.431088","383928.624998","384695.818307","385463.422959","386233.194296","Mapping"
"Blocked","Male","ball","5","M_reek.wav","None","732.6104841","417","379326.116559","386230.184194","386997.763005","387764.749291","373887.943245","374655.153681","375422.376436","376189.639755","380093.109756","380860.156136","381626.91046","382394.09145","383161.431088","383928.624998","384695.818307","385463.422959","387001.057953","Mapping"
"Blocked","Male","ball","5","M_knife.wav","None","733.858633957","417","379326.116559","386230.184194","386997.763005","387764.749291","388531.886112","374655.153681","375422.376436","376189.639755","380093.109756","380860.156136","381626.91046","382394.09145","383161.431088","383928.624998","384695.818307","385463.422959","387767.331826","Mapping"
"Blocked","Male","ball","5","M_cling.wav","None","734.387159622","417","379326.116559","386230.184194","386997.763005","387764.749291","388531.886112","389299.093844","375422.376436","376189.639755","380093.109756","380860.156136","381626.91046","382394.09145","383161.431088","383928.624998","384695.818307","385463.422959","388534.661548","Mapping"
"Blocked","Male","ball","5","M_ball.wav","None","734.373638497","417","379326.116559","386230.184194","386997.763005","387764.749291","388531.886112","389299.093844","390066.421764","376189.639755","380093.109756","380860.156136","381626.91046","382394.09145","383161.431088","383928.624998","384695.818307","385463.422959","389302.057074","Mapping"
"Blocked","Male","ball","5","M_cling.wav","space","318.87524691","417","379326.116559","386230.184194","386997.763005","387764.749291","388531.886112","389299.093844","390066.421764","390833.938078","380093.109756","380860.156136","381626.91046","382394.09145","383161.431088","383928.624998","384695.818307","385463.422959","390068.939397","Mapping"
"Blocked","Male","ball","1","M_park.wav","None","734.119140921","417","393970.088272","386230.184194","386997.763005","387764.749291","388531.886112","389299.093844","390066.421764","390833.938078","380093.109756","380860.156136","381626.91046","382394.09145","383161.431088","383928.624998","384695.818307","385463.422959","390836.900706","Mapping"
"Blocked","Male","ball","1","M_ball.wav","None","728.84530213","417","393970.088272","386230.184194","386997.763005","387764.749291","388531.886112","389299.093844","390066.421764","390833.938078","394736.73653","380860.156136","381626.91046","382394.09145","383161.431088","383928.624998","384695.818307","385463.422959","393973.495595","Mapping"
"Blocked","Male","ball","1","M_gnash.wav","space","304.059702066","417","393970.088272","386230.184194","386997.763005","387764.749291","388531.886112","389299.093844","390066.421764","390833.938078","394736.73653","395503.76368","381626.91046","382394.09145","383161.431088","383928.624998","384695.818307","385463.422959","394739.765862","Mapping"
"Blocked","Male","ball","1","M_cad.wav","None","729.800794803","417","393970.088272","386230.184194","386997.763005","387764.749291","388531.886112","389299.093844","390066.421764","390833.938078","394736.73653","395503.76368","396270.950379","382394.09145","383161.431088","383928.624998","384695.818307","385463.422959","395507.410477","Mapping"
"Blocked","Male","ball","1","M_greet.wav","None","731.481620587","417","393970.088272","386230.184194","386997.763005","387764.749291","388531.886112","389299.093844","390066.421764","390833.938078","394736.73653","395503.76368","396270.950379","397038.045735","383161.431088","383928.624998","384695.818307","385463.422959","396273.66512","Mapping"
"Blocked","Male","ball","1","M_jolt.wav","None","732.108099273","417","393970.088272","386230.184194","386997.763005","387764.749291","388531.886112","389299.093844","390066.421764","390833.938078","394736.73653","395503.76368","396270.950379","397038.045735","397805.242049","383928.624998","384695.818307","385463.422959","397041.225002","Mapping"
"Blocked","Male","ball","1","M_knife.wav","None","732.637526344","417","393970.088272","386230.184194","386997.763005","387764.749291","388531.886112","389299.093844","390066.421764","390833.938078","394736.73653","395503.76368","396270.950379","397038.045735","397805.242049","398572.47502","384695.818307","385463.422959","397808.375945","Mapping"
"Blocked","Male","ball","1","M_priest.wav","None","733.428662257","417","393970.088272","386230.184194","386997.763005","387764.749291","388531.886112","389299.093844","390066.421764","390833.938078","394736.73653","395503.76368","396270.950379","397038.045735","397805.242049","398572.47502","399339.790921","385463.422959","398575.22732","Mapping"
"Blocked","Male","ball","1","M_ball.wav","None","734.085788819","417","393970.088272","386230.184194","386997.763005","387764.749291","388531.886112","389299.093844","390066.421764","390833.938078","394736.73653","395503.76368","396270.950379","397038.045735","397805.242049","398572.47502","399339.790921","400106.968606","399342.745136","Mapping"
"Blocked","Male","ball","1","M_cling.wav","space","287.794091932","417","393970.088272","400874.242742","386997.763005","387764.749291","388531.886112","389299.093844","390066.421764","390833.938078","394736.73653","395503.76368","396270.950379","397038.045735","397805.242049","398572.47502","399339.790921","400106.968606","400109.98592","Mapping"
"Blocked","Male","ball","1","M_jaw.wav","None","734.212286434","417","393970.088272","400874.242742","401641.463094","387764.749291","388531.886112","389299.093844","390066.421764","390833.938078","394736.73653","395503.76368","396270.950379","397038.045735","397805.242049","398572.47502","399339.790921","400106.968606","400876.900394","Mapping"
"Blocked","Male","ball","1","M_gnash.wav","None","734.721582056","417","393970.088272","400874.242742","401641.463094","402408.632666","388531.886112","389299.093844","390066.421764","390833.938078","394736.73653","395503.76368","396270.950379","397038.045735","397805.242049","398572.47502","399339.790921","400106.968606","401644.21299","Mapping"
"Blocked","Male","ball","1","M_ball.wav","None","735.856154486","417","393970.088272","400874.242742","401641.463094","402408.632666","403175.934745","389299.093844","390066.421764","390833.938078","394736.73653","395503.76368","396270.950379","397038.045735","397805.242049","398572.47502","399339.790921","400106.968606","402411.258168","Mapping"
"Blocked","Male","ball","1","M_gnash.wav","space","324.068259435","417","393970.088272","400874.242742","401641.463094","402408.632666","403175.934745","403943.168318","390066.421764","390833.938078","394736.73653","395503.76368","396270.950379","397038.045735","397805.242049","398572.47502","399339.790921","400106.968606","403178.757054","Mapping"
"Blocked","Male","ball","1","M_ball.wav","None","735.572210908","417","393970.088272","400874.242742","401641.463094","402408.632666","403175.934745","403943.168318","404710.321965","390833.938078","394736.73653","395503.76368","396270.950379","397038.045735","397805.242049","398572.47502","399339.790921","400106.968606","403945.962082","Mapping"
"Blocked","Male","ball","1","M_depth.wav","space","367.800377751","417","393970.088272","400874.242742","401641.463094","402408.632666","403175.934745","403943.168318","404710.321965","405477.868326","394736.73653","395503.76368","396270.950379","397038.045735","397805.242049","398572.47502","399339.790921","400106.968606","404712.997044","Mapping"
"Blocked","Male","cave","9","M_bluff.wav","None","735.559290724","417","408613.901337","400874.242742","401641.463094","402408.632666","403175.934745","403943.168318","404710.321965","405477.868326","394736.73653","395503.76368","396270.950379","397038.045735","397805.242049","398572.47502","399339.790921","400106.968606","405480.937621","Mapping"
"Blocked","Male","cave","9","M_depth.wav","None","728.362147345","417","408613.901337","400874.242742","401641.463094","402408.632666","403175.934745","403943.168318","404710.321965","405477.868326","409380.405369","395503.76368","396270.950379","397038.045735","397805.242049","398572.47502","399339.790921","400106.968606","408617.677336","Mapping"
"Blocked","Male","cave","9","M_cave.wav","None","731.0053766","417","408613.901337","400874.242742","401641.463094","402408.632666","403175.934745","403943.168318","404710.321965","405477.868326","409380.405369","410147.56142","396270.950379","397038.045735","397805.242049","398572.47502","399339.790921","400106.968606","409383.339152","Mapping"
"Blocked","Male","cave","9","M_depth.wav","space","348.308627739","417","408613.901337","400874.242742","401641.463094","402408.632666","403175.934745","403943.168318","404710.321965","405477.868326","409380.405369","410147.56142","410914.730993","397038.045735","397805.242049","398572.47502","399339.790921","400106.968606","410150.494002","Mapping"
"Blocked","Male","cave","9","M_cave.wav","None","731.843385736","417","408613.901337","400874.242742","401641.463094","402408.632666","403175.934745","403943.168318","404710.321965","405477.868326","409380.405369","410147.56142","410914.730993","411682.036978","397805.242049","398572.47502","399339.790921","400106.968606","410917.556907","Mapping"
"Blocked","Male","cave","9","M_knife.wav","space","375.974948063","417","408613.901337","400874.242742","401641.463094","402408.632666","403175.934745","403943.168318","404710.321965","405477.868326","409380.405369","410147.56142","410914.730993","411682.036978","412449.310513","398572.47502","399339.790921","400106.968606","411684.839757","Mapping"
"Blocked","Male","cave","9","M_romp.wav","None","732.288380908","417","408613.901337","400874.242742","401641.463094","402408.632666","403175.934745","403943.168318","404710.321965","405477.868326","409380.405369","410147.56142","410914.730993","411682.036978","412449.310513","413216.556404","399339.790921","400106.968606","412452.342249","Mapping"
"Blocked","Male","cave","9","M_lash.wav","None","733.338220969","417","408613.901337","400874.242742","401641.463094","402408.632666","403175.934745","403943.168318","404710.321965","405477.868326","409380.405369","410147.56142","410914.730993","411682.036978","412449.310513","413216.556404","413983.659273","400106.968606","413219.19723","Mapping"
"Blocked","Male","cave","9","M_cave.wav","None","734.369431928","417","408613.901337","400874.242742","401641.463094","402408.632666","403175.934745","403943.168318","404710.321965","405477.868326","409380.405369","410147.56142","410914.730993","411682.036978","412449.310513","413216.556404","413983.659273","414750.859493","413986.411873","Mapping"
"Blocked","Male","cave","9","M_dime.wav","space","400.147710752","417","408613.901337","415518.273647","401641.463094","402408.632666","403175.934745","403943.168318","404710.321965","405477.868326","409380.405369","410147.56142","410914.730993","411682.036978","412449.310513","413216.556404","413983.659273","414750.859493","414753.607886","Mapping"
"Blocked","Male","cave","9","M_cling.wav","None","733.645300688","417","408613.901337","415518.273647","416285.690506","402408.632666","403175.934745","403943.168318","404710.321965","405477.868326","409380.405369","410147.56142","410914.730993","411682.036978","412449.310513","413216.556404","413983.659273","414750.859493","415521.678867","Mapping"
"Blocked","Male","cave","9","M_dime.wav","None","734.579159564","417","408613.901337","415518.273647","416285.690506","417053.02143","403175.934745","403943.168318","404710.321965","405477.868326","409380.405369","410147.56142","410914.730993","411682.036978","412449.310513","413216.556404","413983.659273","414750.859493","416288.912139","Mapping"
"Blocked","Male","cave","9","M_gnash.wav","None","735.449318927","417","408613.901337","415518.273647","416285.690506","417053.02143","417820.212636","403943.168318","404710.321965","405477.868326","409380.405369","410147.56142","410914.730993","411682.036978","412449.310513","413216.556404","413983.659273","414750.859493","417056.316978","Mapping"
"Blocked","Male","cave","9","M_cave.wav","None","736.436661353","417","408613.901337","415518.273647","416285.690506","417053.02143","417820.212636","418587.349457","404710.321965","405477.868326","409380.405369","410147.56142","410914.730993","411682.036978","412449.310513","413216.556404","413983.659273","414750.859493","417823.418044","Mapping"
"Blocked","Male","cave","9","M_bluff.wav","space","555.158067933","417","408613.901337","415518.273647","416285.690506","417053.02143","417820.212636","418587.349457","419354.271443","405477.868326","409380.405369","410147.56142","410914.730993","411682.036978","412449.310513","413216.556404","413983.659273","414750.859493","418590.576499","Mapping"
"Blocked","Male","cave","9","M_reek.wav","None","737.759928561","417","408613.901337","415518.273647","416285.690506","417053.02143","417820.212636","418587.349457","419354.271443","420121.837334","409380.405369","410147.56142","410914.730993","411682.036978","412449.310513","413216.556404","413983.659273","414750.859493","419357.052287","Mapping"
"Blocked","Male","done","24","M_gnash.wav","None","738.008717217","417","423257.9698","415518.273647","416285.690506","417053.02143","417820.212636","418587.349457","419354.271443","420121.837334","409380.405369","410147.56142","410914.730993","411682.036978","412449.310513","413216.556404","413983.659273","414750.859493","420124.908732","Mapping"
"Blocked","Male","done","24","M_romp.wav","None","728.88556503","417","423257.9698","415518.273647","416285.690506","417053.02143","417820.212636","418587.349457","419354.271443","420121.837334","424024.659824","410147.56142","410914.730993","411682.036978","412449.310513","413216.556404","413983.659273","414750.859493","423261.885217","Mapping"
"Blocked","Male","done","24","M_park.wav","None","731.416719198","417","423257.9698","415518.273647","416285.690506","417053.02143","417820.212636","418587.349457","419354.271443","420121.837334","424024.659824","424791.88318","410914.730993","411682.036978","412449.310513","413216.556404","413983.659273","414750.859493","424027.793419","Mapping"
"Blocked","Male","done","24","M_done.wav","None","732.648643712","417","423257.9698","415518.273647","416285.690506","417053.02143","417820.212636","418587.349457","419354.271443","420121.837334","424024.659824","424791.88318","425558.700903","411682.036978","412449.310513","413216.556404","413983.659273","414750.859493","424795.078672","Mapping"
"Blocked","Male","done","24","M_depth.wav","space","442.604336493","417","423257.9698","415518.273647","416285.690506","417053.02143","417820.212636","418587.349457","419354.271443","420121.837334","424024.659824","424791.88318","425558.700903","426326.275808","412449.310513","413216.556404","413983.659273","414750.859493","425561.186986","Mapping"
"Blocked","Male","done","24","M_priest.wav","None","732.456643769","417","423257.9698","415518.273647","416285.690506","417053.02143","417820.212636","418587.349457","419354.271443","420121.837334","424024.659824","424791.88318","425558.700903","426326.275808","427093.690563","413216.556404","413983.659273","414750.859493","426330.071037","Mapping"
"Blocked","Male","done","24","M_done.wav","None","734.052737185","417","423257.9698","415518.273647","416285.690506","417053.02143","417820.212636","418587.349457","419354.271443","420121.837334","424024.659824","424791.88318","425558.700903","426326.275808","427093.690563","427860.489056","413983.659273","414750.859493","427096.769473","Mapping"
"Blocked","Male","done","24","M_knife.wav","space","408.281116761","417","423257.9698","415518.273647","416285.690506","417053.02143","417820.212636","418587.349457","419354.271443","420121.837334","424024.659824","424791.88318","425558.700903","426326.275808","427093.690563","427860.489056","428628.081689","414750.859493","427863.542726","Mapping"
"Blocked","Male","done","24","M_done.wav","None","733.902802958","417","423257.9698","415518.273647","416285.690506","417053.02143","417820.212636","418587.349457","419354.271443","420121.837334","424024.659824","424791.88318","425558.700903","426326.275808","427093.690563","427860.489056","428628.081689","429395.144895","428631.235416","Mapping"
"Blocked","Male","done","24","M_greet.wav","space","424.517280895","417","423257.9698","430162.133285","416285.690506","417053.02143","417820.212636","418587.349457","419354.271443","420121.837334","424024.659824","424791.88318","425558.700903","426326.275808","427093.690563","427860.489056","428628.081689","429395.144895","429398.301026","Mapping"
"Blocked","Male","done","24","M_gnash.wav","None","735.4868776","417","423257.9698","430162.133285","430929.380078","417053.02143","417820.212636","418587.349457","419354.271443","420121.837334","424024.659824","424791.88318","425558.700903","426326.275808","427093.690563","427860.489056","428628.081689","429395.144895","430164.757885","Mapping"
"Blocked","Male","done","24","M_dime.wav","None","736.801130726","417","423257.9698","430162.133285","430929.380078","431696.65872","417820.212636","418587.349457","419354.271443","420121.837334","424024.659824","424791.88318","425558.700903","426326.275808","427093.690563","427860.489056","428628.081689","429395.144895","430932.006781","Mapping"
"Blocked","Male","done","24","M_depth.wav","None","737.646651598","417","423257.9698","430162.133285","430929.380078","431696.65872","432463.702696","418587.349457","419354.271443","420121.837334","424024.659824","424791.88318","425558.700903","426326.275808","427093.690563","427860.489056","428628.081689","429395.144895","431699.492748","Mapping"
"Blocked","Male","done","24","M_done.wav","None","738.778519804","417","423257.9698","430162.133285","430929.380078","431696.65872","432463.702696","433231.014691","419354.271443","420121.837334","424024.659824","424791.88318","425558.700903","426326.275808","427093.690563","427860.489056","428628.081689","429395.144895","432466.677944","Mapping"
"Blocked","Male","done","24","M_cling.wav","space","505.025951543","417","423257.9698","430162.133285","430929.380078","431696.65872","432463.702696","433231.014691","433998.259982","420121.837334","424024.659824","424791.88318","425558.700903","426326.275808","427093.690563","427860.489056","428628.081689","429395.144895","433233.763385","Mapping"
"Blocked","Male","done","24","M_gnash.wav","None","739.13637885","417","423257.9698","430162.133285","430929.380078","431696.65872","432463.702696","433231.014691","433998.259982","434765.390793","424024.659824","424791.88318","425558.700903","426326.275808","427093.690563","427860.489056","428628.081689","429395.144895","434000.977727","Mapping"
"Blocked","Male","tile","15","M_park.wav","None","740.278763484","417","437901.883823","430162.133285","430929.380078","431696.65872","432463.702696","433231.014691","433998.259982","434765.390793","424024.659824","424791.88318","425558.700903","426326.275808","427093.690563","427860.489056","428628.081689","429395.144895","434768.223018","Mapping"
"Blocked","Male","tile","15","M_depth.wav","None","728.336006508","417","437901.883823","430162.133285","430929.380078","431696.65872","432463.702696","433231.014691","433998.259982","434765.390793","438668.233715","424791.88318","425558.700903","426326.275808","427093.690563","427860.489056","428628.081689","429395.144895","437905.753268","Mapping"
"Blocked","Male","tile","15","M_tile.wav","None","731.051648887","417","437901.883823","430162.133285","430929.380078","431696.65872","432463.702696","433231.014691","433998.259982","434765.390793","438668.233715","439435.44355","425558.700903","426326.275808","427093.690563","427860.489056","428628.081689","429395.144895","438671.538277","Mapping"
"Blocked","Male","tile","15","M_priest.wav","space","442.511190982","417","437901.883823","430162.133285","430929.380078","431696.65872","432463.702696","433231.014691","433998.259982","434765.390793","438668.233715","439435.44355","440202.753141","426326.275808","427093.690563","427860.489056","428628.081689","429395.144895","439438.280281","Mapping"
"Blocked","Male","tile","15","M_tile.wav","None","731.932324677","417","437901.883823","430162.133285","430929.380078","431696.65872","432463.702696","433231.014691","433998.259982","434765.390793","438668.233715","439435.44355","440202.753141","440970.237305","427093.690563","427860.489056","428628.081689","429395.144895","440206.057703","Mapping"
"Blocked","Male","tile","15","M_romp.wav","space","456.955355656","417","437901.883823","430162.133285","430929.380078","431696.65872","432463.702696","433231.014691","433998.259982","434765.390793","438668.233715","439435.44355","440202.753141","440970.237305","441737.475985","427860.489056","428628.081689","429395.144895","440973.816797","Mapping"
"Blocked","Male","tile","15","M_jaw.wav","None","732.255329276","417","437901.883823","430162.133285","430929.380078","431696.65872","432463.702696","433231.014691","433998.259982","434765.390793","438668.233715","439435.44355","440202.753141","440970.237305","441737.475985","442504.72398","428628.081689","429395.144895","441740.991777","Mapping"
"Blocked","Male","tile","15","M_cling.wav","None","733.644098811","417","437901.883823","430162.133285","430929.380078","431696.65872","432463.702696","433231.014691","433998.259982","434765.390793","438668.233715","439435.44355","440202.753141","440970.237305","441737.475985","442504.72398","443271.754735","429395.144895","442507.720862","Mapping"
"Blocked","Male","tile","15","M_knife.wav","None","734.874520977","417","437901.883823","430162.133285","430929.380078","431696.65872","432463.702696","433231.014691","433998.259982","434765.390793","438668.233715","439435.44355","440202.753141","440970.237305","441737.475985","442504.72398","443271.754735","444038.868721","443274.718866","Mapping"
"Blocked","Male","tile","15","M_bluff.wav","None","736.531309212","417","437901.883823","444805.96588","430929.380078","431696.65872","432463.702696","433231.014691","433998.259982","434765.390793","438668.233715","439435.44355","440202.753141","440970.237305","441737.475985","442504.72398","443271.754735","444038.868721","444041.442842","Mapping"
"Blocked","Male","tile","15","M_reek.wav","None","737.861487216","417","437901.883823","444805.96588","445573.238814","431696.65872","432463.702696","433231.014691","433998.259982","434765.390793","438668.233715","439435.44355","440202.753141","440970.237305","441737.475985","442504.72398","443271.754735","444038.868721","444808.588978","Mapping"
"Blocked","Male","tile","15","M_knife.wav","None","738.798951723","417","437901.883823","444805.96588","445573.238814","446340.492217","432463.702696","433231.014691","433998.259982","434765.390793","438668.233715","439435.44355","440202.753141","440970.237305","441737.475985","442504.72398","443271.754735","444038.868721","445576.018156","Mapping"
"Blocked","Male","tile","15","M_tile.wav","None","739.860810558","417","437901.883823","444805.96588","445573.238814","446340.492217","447107.674108","433231.014691","433998.259982","434765.390793","438668.233715","439435.44355","440202.753141","440970.237305","441737.475985","442504.72398","443271.754735","444038.868721","446343.462657","Mapping"
"Blocked","Male","tile","15","M_knife.wav","space","543.425639535","417","437901.883823","444805.96588","445573.238814","446340.492217","447107.674108","447874.987005","433998.259982","434765.390793","438668.233715","439435.44355","440202.753141","440970.237305","441737.475985","442504.72398","443271.754735","444038.868721","447110.385244","Mapping"
"Blocked","Male","tile","15","M_tile.wav","None","740.67237839","417","437901.883823","444805.96588","445573.238814","446340.492217","447107.674108","447874.987005","448642.171","434765.390793","438668.233715","439435.44355","440202.753141","440970.237305","441737.475985","442504.72398","443271.754735","444038.868721","447877.650666","Mapping"
"Blocked","Male","tile","15","M_gnash.wav","space","573.688315886","417","437901.883823","444805.96588","445573.238814","446340.492217","447107.674108","447874.987005","448642.171","449409.821623","438668.233715","439435.44355","440202.753141","440970.237305","441737.475985","442504.72398","443271.754735","444038.868721","448645.031769","Mapping"
"Blocked","Male","tile","18","M_jolt.wav","None","740.873692883","417","452545.990446","444805.96588","445573.238814","446340.492217","447107.674108","447874.987005","448642.171","449409.821623","438668.233715","439435.44355","440202.753141","440970.237305","441737.475985","442504.72398","443271.754735","444038.868721","449412.816402","Mapping"
"Blocked","Male","tile","18","M_reek.wav","None","729.210672913","417","452545.990446","444805.96588","445573.238814","446340.492217","447107.674108","447874.987005","448642.171","449409.821623","453312.698498","439435.44355","440202.753141","440970.237305","441737.475985","442504.72398","443271.754735","444038.868721","452549.682915","Mapping"
"Blocked","Male","tile","18","M_jaw.wav","None","731.018597253","417","452545.990446","444805.96588","445573.238814","446340.492217","447107.674108","447874.987005","448642.171","449409.821623","453312.698498","454079.40054","440202.753141","440970.237305","441737.475985","442504.72398","443271.754735","444038.868721","453316.144581","Mapping"
"Blocked","Male","tile","18","M_depth.wav","None","733.510089462","417","452545.990446","444805.96588","445573.238814","446340.492217","447107.674108","447874.987005","448642.171","449409.821623","453312.698498","454079.40054","454846.554487","440970.237305","441737.475985","442504.72398","443271.754735","444038.868721","454082.407337","Mapping"
"Blocked","Male","tile","18","M_tile.wav","None","735.077638286","417","452545.990446","444805.96588","445573.238814","446340.492217","447107.674108","447874.987005","448642.171","449409.821623","453312.698498","454079.40054","454846.554487","455613.827722","441737.475985","442504.72398","443271.754735","444038.868721","454849.124102","Mapping"
"Blocked","Male","tile","18","M_reek.wav","space","511.277818208","417","452545.990446","444805.96588","445573.238814","446340.492217","447107.674108","447874.987005","448642.171","449409.821623","453312.698498","454079.40054","454846.554487","455613.827722","456381.094947","442504.72398","443271.754735","444038.868721","455616.497693","Mapping"
"Blocked","Male","tile","18","M_priest.wav","None","735.389525516","417","452545.990446","444805.96588","445573.238814","446340.492217","447107.674108","447874.987005","448642.171","449409.821623","453312.698498","454079.40054","454846.554487","455613.827722","456381.094947","457148.336932","443271.754735","444038.868721","456383.705124","Mapping"
"Blocked","Male","tile","18","M_reek.wav","None","735.397938661","417","452545.990446","444805.96588","445573.238814","446340.492217","447107.674108","447874.987005","448642.171","449409.821623","453312.698498","454079.40054","454846.554487","455613.827722","456381.094947","457148.336932","457915.565396","444038.868721","457151.608443","Mapping"
"Blocked","Male","tile","18","M_tile.wav","None","736.427947741","417","452545.990446","444805.96588","445573.238814","446340.492217","447107.674108","447874.987005","448642.171","449409.821623","453312.698498","454079.40054","454846.554487","455613.827722","456381.094947","457148.336932","457915.565396","458682.738274","457919.094409","Mapping"
"Blocked","Male","tile","18","M_romp.wav","space","384.892278716","417","452545.990446","459449.943301","445573.238814","446340.492217","447107.674108","447874.987005","448642.171","449409.821623","453312.698498","454079.40054","454846.554487","455613.827722","456381.094947","457148.336932","457915.565396","458682.738274","458685.882385","Mapping"
"Blocked","Male","tile","18","M_knife.wav","None","737.8341445","417","452545.990446","459449.943301","460217.317193","446340.492217","447107.674108","447874.987005","448642.171","449409.821623","453312.698498","454079.40054","454846.554487","455613.827722","456381.094947","457148.336932","457915.565396","458682.738274","459452.921855","Mapping"
"Blocked","Male","tile","18","M_tile.wav","None","738.267721834","417","452545.990446","459449.943301","460217.317193","460984.448305","447107.674108","447874.987005","448642.171","449409.821623","453312.698498","454079.40054","454846.554487","455613.827722","456381.094947","457148.336932","457915.565396","458682.738274","460220.57368","Mapping"
"Blocked","Male","tile","18","M_gnash.wav","space","633.069481144","417","452545.990446","459449.943301","460217.317193","460984.448305","461751.689389","447874.987005","448642.171","449409.821623","453312.698498","454079.40054","454846.554487","455613.827722","456381.094947","457148.336932","457915.565396","458682.738274","460987.753168","Mapping"
"Blocked","Male","tile","18","M_jaw.wav","None","739.842782394","417","452545.990446","459449.943301","460217.317193","460984.448305","461751.689389","462518.90313","448642.171","449409.821623","453312.698498","454079.40054","454846.554487","455613.827722","456381.094947","457148.336932","457915.565396","458682.738274","461754.268618","Mapping"
"Blocked","Male","tile","18","M_tile.wav","None","740.553392508","417","452545.990446","459449.943301","460217.317193","460984.448305","461751.689389","462518.90313","463286.091332","449409.821623","453312.698498","454079.40054","454846.554487","455613.827722","456381.094947","457148.336932","457915.565396","458682.738274","462521.740162","Mapping"
