"Condition","Talker","Target","Trial","current_stimulus","response_response","response_time_response","subject_nr","time_Audio1","time_Audio10","time_Audio11","time_Audio12","time_Audio13","time_Audio14","time_Audio15","time_Audio16","time_Audio2","time_Audio3","time_Audio4","time_Audio5","time_Audio6","time_Audio7","time_Audio8","time_Audio9","time_response"
"Mixed","both","tile","26","M_romp.wav","NA","NA","335","202800.150998","NA","NA","NA","NA","NA","NA","NA","NA","NA","NA","NA","NA","NA","NA","NA","NA"
"Mixed","both","tile","26","F_tile.wav","space","0.027515925467","335","202800.150998","NA","NA","NA","NA","NA","NA","NA","203567.385651","NA","NA","NA","NA","NA","NA","NA","202812.715646"
"Mixed","both","tile","26","F_romp.wav","None","726.925445721","335","202800.150998","NA","NA","NA","NA","NA","NA","NA","203567.385651","204333.260885","NA","NA","NA","NA","NA","NA","203576.938678"
"Mixed","both","tile","26","M_tile.wav","space","675.247768406","335","202800.150998","NA","NA","NA","NA","NA","NA","NA","203567.385651","204333.260885","205100.417626","NA","NA","NA","NA","NA","204342.172076"
"Mixed","both","tile","26","F_reek.wav","space","619.45319036","335","202800.150998","NA","NA","NA","NA","NA","NA","NA","203567.385651","204333.260885","205100.417626","205867.012607","NA","NA","NA","NA","205109.941283"
"Mixed","both","tile","26","F_tile.wav","None","731.341313571","335","202800.150998","NA","NA","NA","NA","NA","NA","NA","203567.385651","204333.260885","205100.417626","205867.012607","206633.812567","NA","NA","NA","205876.117957"
"Mixed","both","tile","26","F_cling.wav","space","526.199330576","335","202800.150998","NA","NA","NA","NA","NA","NA","NA","203567.385651","204333.260885","205100.417626","205867.012607","206633.812567","207400.462889","NA","NA","206643.137427"
"Mixed","both","tile","26","M_tile.wav","None","731.674598064","335","202800.150998","NA","NA","NA","NA","NA","NA","NA","203567.385651","204333.260885","205100.417626","205867.012607","206633.812567","207400.462889","208167.121558","NA","207410.464521"
"Mixed","both","tile","26","M_jolt.wav","space","392.406241037","335","202800.150998","NA","NA","NA","NA","NA","NA","NA","203567.385651","204333.260885","205100.417626","205867.012607","206633.812567","207400.462889","208167.121558","208933.723031","208176.873073"
"Mixed","both","tile","26","M_bluff.wav","None","733.535798267","335","202800.150998","209699.990292","NA","NA","NA","NA","NA","NA","203567.385651","204333.260885","205100.417626","205867.012607","206633.812567","207400.462889","208167.121558","208933.723031","208942.603615"
"Mixed","both","tile","26","M_lash.wav","None","735.644643195","335","202800.150998","209699.990292","210484.716826","NA","NA","NA","NA","NA","203567.385651","204333.260885","205100.417626","205867.012607","206633.812567","207400.462889","208167.121558","208933.723031","209709.080493"
"Mixed","both","tile","26","M_jaw.wav","None","718.552517705","335","202800.150998","209699.990292","210484.716826","211250.970483","NA","NA","NA","NA","203567.385651","204333.260885","205100.417626","205867.012607","206633.812567","207400.462889","208167.121558","208933.723031","210494.506368"
"Mixed","both","tile","26","F_jolt.wav","None","721.489937045","335","202800.150998","209699.990292","210484.716826","211250.970483","212017.605037","NA","NA","NA","203567.385651","204333.260885","205100.417626","205867.012607","206633.812567","207400.462889","208167.121558","208933.723031","211260.519801"
"Mixed","both","tile","26","M_priest.wav","None","722.985698842","335","202800.150998","209699.990292","210484.716826","211250.970483","212017.605037","212784.014516","NA","NA","203567.385651","204333.260885","205100.417626","205867.012607","206633.812567","207400.462889","208167.121558","208933.723031","212027.356243"
"Mixed","both","tile","26","F_romp.wav","None","725.293340161","335","202800.150998","209699.990292","210484.716826","211250.970483","212017.605037","212784.014516","213551.041716","NA","203567.385651","204333.260885","205100.417626","205867.012607","206633.812567","207400.462889","208167.121558","208933.723031","212793.60619"
"Mixed","both","tile","26","F_lash.wav","None","723.797887564","335","202800.150998","209699.990292","210484.716826","211250.970483","212017.605037","212784.014516","213551.041716","214317.19242","203567.385651","204333.260885","205100.417626","205867.012607","206633.812567","207400.462889","208167.121558","208933.723031","213560.585159"
"Mixed","both","ball","1","M_park.wav","None","726.20291682","335","217483.63195","209699.990292","210484.716826","211250.970483","212017.605037","212784.014516","213551.041716","214317.19242","203567.385651","204333.260885","205100.417626","205867.012607","206633.812567","207400.462889","208167.121558","208933.723031","214326.618997"
"Mixed","both","ball","1","M_knife.wav","None","726.543930359","335","217483.63195","209699.990292","210484.716826","211250.970483","212017.605037","212784.014516","213551.041716","214317.19242","218250.411196","204333.260885","205100.417626","205867.012607","206633.812567","207400.462889","208167.121558","208933.723031","217492.969486"
"Mixed","both","ball","1","F_priest.wav","None","728.372977115","335","217483.63195","209699.990292","210484.716826","211250.970483","212017.605037","212784.014516","213551.041716","214317.19242","218250.411196","219016.961965","205100.417626","205867.012607","206633.812567","207400.462889","208167.121558","208933.723031","218259.289925"
"Mixed","both","ball","1","M_jolt.wav","None","729.845860042","335","217483.63195","209699.990292","210484.716826","211250.970483","212017.605037","212784.014516","213551.041716","214317.19242","218250.411196","219016.961965","219783.77862","205867.012607","206633.812567","207400.462889","208167.121558","208933.723031","219026.1848"
"Mixed","both","ball","1","F_cling.wav","None","728.080502711","335","217483.63195","209699.990292","210484.716826","211250.970483","212017.605037","212784.014516","213551.041716","214317.19242","218250.411196","219016.961965","219783.77862","220550.419048","206633.812567","207400.462889","208167.121558","208933.723031","219792.749172"
"Mixed","both","ball","1","M_ball.wav","None","726.950797718","335","217483.63195","209699.990292","210484.716826","211250.970483","212017.605037","212784.014516","213551.041716","214317.19242","218250.411196","219016.961965","219783.77862","220550.419048","221317.022377","207400.462889","208167.121558","208933.723031","220559.327458"
"Mixed","both","ball","1","F_jolt.wav","space","418.359472416","335","217483.63195","209699.990292","210484.716826","211250.970483","212017.605037","212784.014516","213551.041716","214317.19242","218250.411196","219016.961965","219783.77862","220550.419048","221317.022377","222083.306333","208167.121558","208933.723031","221326.562419"
"Mixed","both","ball","1","M_bluff.wav","None","728.442230728","335","217483.63195","209699.990292","210484.716826","211250.970483","212017.605037","212784.014516","213551.041716","214317.19242","218250.411196","219016.961965","219783.77862","220550.419048","221317.022377","222083.306333","222850.324875","208933.723031","222092.39777"
"Mixed","both","ball","1","F_ball.wav","None","726.376360748","335","217483.63195","209699.990292","210484.716826","211250.970483","212017.605037","212784.014516","213551.041716","214317.19242","218250.411196","219016.961965","219783.77862","220550.419048","221317.022377","222083.306333","222850.324875","223616.986946","222859.389724"
"Mixed","both","ball","1","F_greet.wav","space","558.412006591","335","217483.63195","224383.51731","210484.716826","211250.970483","212017.605037","212784.014516","213551.041716","214317.19242","218250.411196","219016.961965","219783.77862","220550.419048","221317.022377","222083.306333","222850.324875","223616.986946","223626.389099"
"Mixed","both","ball","1","M_ball.wav","None","729.812779464","335","217483.63195","224383.51731","225149.822908","211250.970483","212017.605037","212784.014516","213551.041716","214317.19242","218250.411196","219016.961965","219783.77862","220550.419048","221317.022377","222083.306333","222850.324875","223616.986946","224393.105583"
"Mixed","both","ball","1","F_gnash.wav","space","529.948628042","335","217483.63195","224383.51731","225149.822908","225916.908231","212017.605037","212784.014516","213551.041716","214317.19242","218250.411196","219016.961965","219783.77862","220550.419048","221317.022377","222083.306333","222850.324875","223616.986946","225158.844164"
"Mixed","both","ball","1","F_gnash.wav","None","729.873994831","335","217483.63195","224383.51731","225149.822908","225916.908231","226683.009159","212784.014516","213551.041716","214317.19242","218250.411196","219016.961965","219783.77862","220550.419048","221317.022377","222083.306333","222850.324875","223616.986946","225926.27112"
"Mixed","both","ball","1","F_ball.wav","None","729.614601936","335","217483.63195","224383.51731","225149.822908","225916.908231","226683.009159","227450.19589","213551.041716","214317.19242","218250.411196","219016.961965","219783.77862","220550.419048","221317.022377","222083.306333","222850.324875","223616.986946","226691.831619"
"Mixed","both","ball","1","M_jaw.wav","space","492.722768802","335","217483.63195","224383.51731","225149.822908","225916.908231","226683.009159","227450.19589","228217.134049","214317.19242","218250.411196","219016.961965","219783.77862","220550.419048","221317.022377","222083.306333","222850.324875","223616.986946","227459.995944"
"Mixed","both","ball","1","M_jolt.wav","None","726.069046184","335","217483.63195","224383.51731","225149.822908","225916.908231","226683.009159","227450.19589","228217.134049","228983.225392","218250.411196","219016.961965","219783.77862","220550.419048","221317.022377","222083.306333","222850.324875","223616.986946","228226.142938"
"Mixed","both","tile","33","F_cad.wav","None","724.713956472","335","232116.410036","224383.51731","225149.822908","225916.908231","226683.009159","227450.19589","228217.134049","228983.225392","218250.411196","219016.961965","219783.77862","220550.419048","221317.022377","222083.306333","222850.324875","223616.986946","228992.639912"
"Mixed","both","tile","33","F_tile.wav","None","725.848299451","335","232116.410036","224383.51731","225149.822908","225916.908231","226683.009159","227450.19589","228217.134049","228983.225392","232883.616553","219016.961965","219783.77862","220550.419048","221317.022377","222083.306333","222850.324875","223616.986946","232125.460972"
"Mixed","both","tile","33","M_reek.wav","space","563.131169882","335","232116.410036","224383.51731","225149.822908","225916.908231","226683.009159","227450.19589","228217.134049","228983.225392","232883.616553","233650.024177","219783.77862","220550.419048","221317.022377","222083.306333","222850.324875","223616.986946","232893.438558"
"Mixed","both","tile","33","M_depth.wav","None","725.984642748","335","232116.410036","224383.51731","225149.822908","225916.908231","226683.009159","227450.19589","228217.134049","228983.225392","232883.616553","233650.024177","234416.612047","220550.419048","221317.022377","222083.306333","222850.324875","223616.986946","233658.799334"
"Mixed","both","tile","33","F_tile.wav","None","729.245453142","335","232116.410036","224383.51731","225149.822908","225916.908231","226683.009159","227450.19589","228217.134049","228983.225392","232883.616553","233650.024177","234416.612047","235183.2769","221317.022377","222083.306333","222850.324875","223616.986946","234423.729437"
"Mixed","both","tile","33","F_jolt.wav","space","527.52102958","335","232116.410036","224383.51731","225149.822908","225916.908231","226683.009159","227450.19589","228217.134049","228983.225392","232883.616553","233650.024177","234416.612047","235183.2769","235950.223097","222083.306333","222850.324875","223616.986946","235192.978638"
"Mixed","both","tile","33","M_romp.wav","None","722.876253072","335","232116.410036","224383.51731","225149.822908","225916.908231","226683.009159","227450.19589","228217.134049","228983.225392","232883.616553","233650.024177","234416.612047","235183.2769","235950.223097","236716.897225","222850.324875","223616.986946","235960.071072"
"Mixed","both","tile","33","F_bluff.wav","None","721.448199358","335","232116.410036","224383.51731","225149.822908","225916.908231","226683.009159","227450.19589","228217.134049","228983.225392","232883.616553","233650.024177","234416.612047","235183.2769","235950.223097","236716.897225","237483.47551","223616.986946","236726.488899"
"Mixed","both","tile","33","M_tile.wav","None","723.081541713","335","232116.410036","224383.51731","225149.822908","225916.908231","226683.009159","227450.19589","228217.134049","228983.225392","232883.616553","233650.024177","234416.612047","235183.2769","235950.223097","236716.897225","237483.47551","238249.778944","237493.450863"
"Mixed","both","tile","33","F_gnash.wav","space","436.898820102","335","232116.410036","239016.973095","225149.822908","225916.908231","226683.009159","227450.19589","228217.134049","228983.225392","232883.616553","233650.024177","234416.612047","235183.2769","235950.223097","236716.897225","237483.47551","238249.778944","238259.512836"
"Mixed","both","tile","33","M_greet.wav","None","720.195135567","335","232116.410036","239016.973095","239783.381028","225916.908231","226683.009159","227450.19589","228217.134049","228983.225392","232883.616553","233650.024177","234416.612047","235183.2769","235950.223097","236716.897225","237483.47551","238249.778944","239026.84704"
"Mixed","both","tile","33","M_greet.wav","None","722.690132912","335","232116.410036","239016.973095","239783.381028","240550.203866","226683.009159","227450.19589","228217.134049","228983.225392","232883.616553","233650.024177","234416.612047","235183.2769","235950.223097","236716.897225","237483.47551","238249.778944","239792.818117"
"Mixed","both","tile","33","F_park.wav","None","721.188805997","335","232116.410036","239016.973095","239783.381028","240550.203866","241316.735158","227450.19589","228217.134049","228983.225392","232883.616553","233650.024177","234416.612047","235183.2769","235950.223097","236716.897225","237483.47551","238249.778944","240559.812544"
"Mixed","both","tile","33","F_jolt.wav","None","723.359794356","335","232116.410036","239016.973095","239783.381028","240550.203866","241316.735158","242083.451024","228217.134049","228983.225392","232883.616553","233650.024177","234416.612047","235183.2769","235950.223097","236716.897225","237483.47551","238249.778944","241326.423293"
"Mixed","both","tile","33","M_tile.wav","None","721.215085126","335","232116.410036","239016.973095","239783.381028","240550.203866","241316.735158","242083.451024","242850.163798","228983.225392","232883.616553","233650.024177","234416.612047","235183.2769","235950.223097","236716.897225","237483.47551","238249.778944","242093.714832"
"Mixed","both","tile","33","M_cad.wav","space","484.51833846","335","232116.410036","239016.973095","239783.381028","240550.203866","241316.735158","242083.451024","242850.163798","243616.727552","232883.616553","233650.024177","234416.612047","235183.2769","235950.223097","236716.897225","237483.47551","238249.778944","242859.708169"
"Mixed","both","ball","9","F_lash.wav","None","722.74609236","335","246749.827793","239016.973095","239783.381028","240550.203866","241316.735158","242083.451024","242850.163798","243616.727552","232883.616553","233650.024177","234416.612047","235183.2769","235950.223097","236716.897225","237483.47551","238249.778944","243626.329738"
"Mixed","both","ball","9","M_romp.wav","None","721.993265208","335","246749.827793","239016.973095","239783.381028","240550.203866","241316.735158","242083.451024","242850.163798","243616.727552","247516.511505","233650.024177","234416.612047","235183.2769","235950.223097","236716.897225","237483.47551","238249.778944","246759.580235"
"Mixed","both","ball","9","F_dime.wav","None","720.57139501","335","246749.827793","239016.973095","239783.381028","240550.203866","241316.735158","242083.451024","242850.163798","243616.727552","247516.511505","248283.591573","234416.612047","235183.2769","235950.223097","236716.897225","237483.47551","238249.778944","247526.301665"
"Mixed","both","ball","9","F_greet.wav","None","722.169491928","335","246749.827793","239016.973095","239783.381028","240550.203866","241316.735158","242083.451024","242850.163798","243616.727552","247516.511505","248283.591573","249049.976936","235183.2769","235950.223097","236716.897225","237483.47551","238249.778944","248293.036391"
"Mixed","both","ball","9","F_romp.wav","None","720.802344382","335","246749.827793","239016.973095","239783.381028","240550.203866","241316.735158","242083.451024","242850.163798","243616.727552","247516.511505","248283.591573","249049.976936","249816.613345","235950.223097","236716.897225","237483.47551","238249.778944","249059.915498"
"Mixed","both","ball","9","F_ball.wav","None","719.974697568","335","246749.827793","239016.973095","239783.381028","240550.203866","241316.735158","242083.451024","242850.163798","243616.727552","247516.511505","248283.591573","249049.976936","249816.613345","250566.641789","236716.897225","237483.47551","238249.778944","249826.104848"
"Mixed","both","ball","9","M_dime.wav","space","512.202609796","335","246749.827793","239016.973095","239783.381028","240550.203866","241316.735158","242083.451024","242850.163798","243616.727552","247516.511505","248283.591573","249049.976936","249816.613345","250566.641789","251349.79836","237483.47551","238249.778944","250575.829997"
"Mixed","both","ball","9","M_ball.wav","None","719.90884468","335","246749.827793","239016.973095","239783.381028","240550.203866","241316.735158","242083.451024","242850.163798","243616.727552","247516.511505","248283.591573","249049.976936","249816.613345","250566.641789","251349.79836","252099.528146","238249.778944","251359.522358"
"Mixed","both","ball","9","M_greet.wav","space","594.710357953","335","246749.827793","239016.973095","239783.381028","240550.203866","241316.735158","242083.451024","242850.163798","243616.727552","247516.511505","248283.591573","249049.976936","249816.613345","250566.641789","251349.79836","252099.528146","252866.041197","252109.272549"
"Mixed","both","ball","9","M_ball.wav","None","734.009754844","335","246749.827793","253632.669258","239783.381028","240550.203866","241316.735158","242083.451024","242850.163798","243616.727552","247516.511505","248283.591573","249049.976936","249816.613345","250566.641789","251349.79836","252099.528146","252866.041197","252875.520641"
"Mixed","both","ball","9","F_dime.wav","space","557.73832649","335","246749.827793","253632.669258","254399.380796","240550.203866","241316.735158","242083.451024","242850.163798","243616.727552","247516.511505","248283.591573","249049.976936","249816.613345","250566.641789","251349.79836","252099.528146","252866.041197","253642.161998"
"Mixed","both","ball","9","M_reek.wav","None","730.770895723","335","246749.827793","253632.669258","254399.380796","255165.980723","241316.735158","242083.451024","242850.163798","243616.727552","247516.511505","248283.591573","249049.976936","249816.613345","250566.641789","251349.79836","252099.528146","252866.041197","254408.859004"
"Mixed","both","ball","9","M_cling.wav","None","729.213299695","335","246749.827793","253632.669258","254399.380796","255165.980723","255932.42452","242083.451024","242850.163798","243616.727552","247516.511505","248283.591573","249049.976936","249816.613345","250566.641789","251349.79836","252099.528146","252866.041197","255175.812312"
"Mixed","both","ball","9","F_ball.wav","None","731.67274287","335","246749.827793","253632.669258","254399.380796","255165.980723","255932.42452","256698.539978","242850.163798","243616.727552","247516.511505","248283.591573","249049.976936","249816.613345","250566.641789","251349.79836","252099.528146","252866.041197","255941.997643"
"Mixed","both","ball","9","F_lash.wav","space","524.385741912","335","246749.827793","253632.669258","254399.380796","255165.980723","255932.42452","256698.539978","257465.887786","243616.727552","247516.511505","248283.591573","249049.976936","249816.613345","250566.641789","251349.79836","252099.528146","252866.041197","256707.452407"
"Mixed","both","ball","9","M_depth.wav","None","731.712007429","335","246749.827793","253632.669258","254399.380796","255165.980723","255932.42452","256698.539978","257465.887786","258232.463908","247516.511505","248283.591573","249049.976936","249816.613345","250566.641789","251349.79836","252099.528146","252866.041197","257475.23398"
"Mixed","both","done","46","F_park.wav","None","730.631769169","335","261366.14786","253632.669258","254399.380796","255165.980723","255932.42452","256698.539978","257465.887786","258232.463908","247516.511505","248283.591573","249049.976936","249816.613345","250566.641789","251349.79836","252099.528146","252866.041197","258241.982927"
"Mixed","both","done","46","F_depth.wav","None","720.528420061","335","261366.14786","253632.669258","254399.380796","255165.980723","255932.42452","256698.539978","257465.887786","258232.463908","262132.882894","248283.591573","249049.976936","249816.613345","250566.641789","251349.79836","252099.528146","252866.041197","261376.243171"
"Mixed","both","done","46","M_gnash.wav","None","722.589652985","335","261366.14786","253632.669258","254399.380796","255165.980723","255932.42452","256698.539978","257465.887786","258232.463908","262132.882894","262899.339985","249049.976936","249816.613345","250566.641789","251349.79836","252099.528146","252866.041197","262142.898748"
"Mixed","both","done","46","M_done.wav","None","725.465238094","335","261366.14786","253632.669258","254399.380796","255165.980723","255932.42452","256698.539978","257465.887786","258232.463908","262132.882894","262899.339985","263665.361765","249816.613345","250566.641789","251349.79836","252099.528146","252866.041197","262908.802117"
"Mixed","both","done","46","F_jaw.wav","space","485.179651994","335","261366.14786","253632.669258","254399.380796","255165.980723","255932.42452","256698.539978","257465.887786","258232.463908","262132.882894","262899.339985","263665.361765","264432.177493","250566.641789","251349.79836","252099.528146","252866.041197","263674.425378"
"Mixed","both","done","46","M_priest.wav","None","728.851262014","335","261366.14786","253632.669258","254399.380796","255165.980723","255932.42452","256698.539978","257465.887786","258232.463908","262132.882894","262899.339985","263665.361765","264432.177493","265198.612942","251349.79836","252099.528146","252866.041197","264441.562023"
"Mixed","both","done","46","M_done.wav","None","728.27342432","335","261366.14786","253632.669258","254399.380796","255165.980723","255932.42452","256698.539978","257465.887786","258232.463908","262132.882894","262899.339985","263665.361765","264432.177493","265198.612942","265965.644161","252099.528146","252866.041197","265207.715819"
"Mixed","both","done","46","F_depth.wav","space","536.460665055","335","261366.14786","253632.669258","254399.380796","255165.980723","255932.42452","256698.539978","257465.887786","258232.463908","262132.882894","262899.339985","263665.361765","264432.177493","265198.612942","265965.644161","266732.287372","252866.041197","265975.106292"
"Mixed","both","done","46","F_romp.wav","None","730.672579724","335","261366.14786","253632.669258","254399.380796","255165.980723","255932.42452","256698.539978","257465.887786","258232.463908","262132.882894","262899.339985","263665.361765","264432.177493","265198.612942","265965.644161","266732.287372","267499.3931","266736.057075"
"Mixed","both","done","46","M_cad.wav","None","722.369524185","335","261366.14786","268265.499284","254399.380796","255165.980723","255932.42452","256698.539978","257465.887786","258232.463908","262132.882894","262899.339985","263665.361765","264432.177493","265198.612942","265965.644161","266732.287372","267499.3931","267509.950001"
"Mixed","both","done","46","F_done.wav","None","723.310636356","335","261366.14786","268265.499284","269031.917111","255165.980723","255932.42452","256698.539978","257465.887786","258232.463908","262132.882894","262899.339985","263665.361765","264432.177493","265198.612942","265965.644161","266732.287372","267499.3931","268274.564442"
"Mixed","both","done","46","M_greet.wav","space","518.522961531","335","261366.14786","268265.499284","269031.917111","269798.93689","255932.42452","256698.539978","257465.887786","258232.463908","262132.882894","262899.339985","263665.361765","264432.177493","265198.612942","265965.644161","266732.287372","267499.3931","269040.985669"
"Mixed","both","done","46","F_done.wav","None","723.776863888","335","261366.14786","268265.499284","269031.917111","269798.93689","270566.004281","256698.539978","257465.887786","258232.463908","262132.882894","262899.339985","263665.361765","264432.177493","265198.612942","265965.644161","266732.287372","267499.3931","269807.873124"
"Mixed","both","done","46","M_jaw.wav","space","567.95854168","335","261366.14786","268265.499284","269031.917111","269798.93689","270566.004281","271332.32472","257465.887786","258232.463908","262132.882894","262899.339985","263665.361765","264432.177493","265198.612942","265965.644161","266732.287372","267499.3931","270575.49362"
"Mixed","both","done","46","M_park.wav","None","719.032658264","335","261366.14786","268265.499284","269031.917111","269798.93689","270566.004281","271332.32472","272081.579312","258232.463908","262132.882894","262899.339985","263665.361765","264432.177493","265198.612942","265965.644161","266732.287372","267499.3931","271342.629338"
"Mixed","both","done","46","F_jolt.wav","None","736.184762325","335","261366.14786","268265.499284","269031.917111","269798.93689","270566.004281","271332.32472","272081.579312","272848.581778","262132.882894","262899.339985","263665.361765","264432.177493","265198.612942","265965.644161","266732.287372","267499.3931","272090.748351"
"Mixed","both","tile","35","M_jolt.wav","None","734.445684124","335","275982.269131","268265.499284","269031.917111","269798.93689","270566.004281","271332.32472","272081.579312","272848.581778","262132.882894","262899.339985","263665.361765","264432.177493","265198.612942","265965.644161","266732.287372","267499.3931","272857.911585"
"Mixed","both","tile","35","M_cling.wav","None","721.940397285","335","275982.269131","268265.499284","269031.917111","269798.93689","270566.004281","271332.32472","272081.579312","272848.581778","276748.914197","262899.339985","263665.361765","264432.177493","265198.612942","265965.644161","266732.287372","267499.3931","275992.054035"
"Mixed","both","tile","35","M_jolt.wav","None","720.610349905","335","275982.269131","268265.499284","269031.917111","269798.93689","270566.004281","271332.32472","272081.579312","272848.581778","276748.914197","277515.25504","263665.361765","264432.177493","265198.612942","265965.644161","266732.287372","267499.3931","276758.899443"
"Mixed","both","tile","35","M_priest.wav","None","720.41124478","335","275982.269131","268265.499284","269031.917111","269798.93689","270566.004281","271332.32472","272081.579312","272848.581778","276748.914197","277515.25504","278264.911862","264432.177493","265198.612942","265965.644161","266732.287372","267499.3931","277524.387906"
"Mixed","both","tile","35","M_tile.wav","None","736.278750002","335","275982.269131","268265.499284","269031.917111","269798.93689","270566.004281","271332.32472","272081.579312","272848.581778","276748.914197","277515.25504","278264.911862","279031.359369","265198.612942","265965.644161","266732.287372","267499.3931","278273.911167"
"Mixed","both","tile","35","F_lash.wav","space","494.580877479","335","275982.269131","268265.499284","269031.917111","269798.93689","270566.004281","271332.32472","272081.579312","272848.581778","276748.914197","277515.25504","278264.911862","279031.359369","279798.206941","265965.644161","266732.287372","267499.3931","279040.628579"
"Mixed","both","tile","35","F_tile.wav","None","733.156446833","335","275982.269131","268265.499284","269031.917111","269798.93689","270566.004281","271332.32472","272081.579312","272848.581778","276748.914197","277515.25504","278264.911862","279031.359369","279798.206941","280565.257637","266732.287372","267499.3931","279807.526236"
"Mixed","both","tile","35","F_depth.wav","space","624.462972395","335","275982.269131","268265.499284","269031.917111","269798.93689","270566.004281","271332.32472","272081.579312","272848.581778","276748.914197","277515.25504","278264.911862","279031.359369","279798.206941","280565.257637","281331.780272","267499.3931","280574.653298"
"Mixed","both","tile","35","F_cling.wav","None","730.093196034","335","275982.269131","268265.499284","269031.917111","269798.93689","270566.004281","271332.32472","272081.579312","272848.581778","276748.914197","277515.25504","278264.911862","279031.359369","279798.206941","280565.257637","281331.780272","282098.491191","281341.312276"
"Mixed","both","tile","35","F_reek.wav","None","728.954525199","335","275982.269131","282865.149861","269031.917111","269798.93689","270566.004281","271332.32472","272081.579312","272848.581778","276748.914197","277515.25504","278264.911862","279031.359369","279798.206941","280565.257637","281331.780272","282098.491191","282107.756382"
"Mixed","both","tile","35","M_tile.wav","None","727.515031584","335","275982.269131","282865.149861","283631.685481","269798.93689","270566.004281","271332.32472","272081.579312","272848.581778","276748.914197","277515.25504","278264.911862","279031.359369","279798.206941","280565.257637","281331.780272","282098.491191","282874.570255"
"Mixed","both","tile","35","F_priest.wav","space","565.913076047","335","275982.269131","282865.149861","283631.685481","284398.066516","270566.004281","271332.32472","272081.579312","272848.581778","276748.914197","277515.25504","278264.911862","279031.359369","279798.206941","280565.257637","281331.780272","282098.491191","283641.173274"
"Mixed","both","tile","35","F_tile.wav","None","725.482861046","335","275982.269131","282865.149861","283631.685481","284398.066516","285165.257885","271332.32472","272081.579312","272848.581778","276748.914197","277515.25504","278264.911862","279031.359369","279798.206941","280565.257637","281331.780272","282098.491191","284407.1258"
"Mixed","both","tile","35","F_depth.wav","None","722.610057797","335","275982.269131","282865.149861","283631.685481","284398.066516","285165.257885","285931.89213","272081.579312","272848.581778","276748.914197","277515.25504","278264.911862","279031.359369","279798.206941","280565.257637","281331.780272","282098.491191","285175.620318"
"Mixed","both","tile","35","M_cad.wav","space","1.307786908","335","275982.269131","282865.149861","283631.685481","284398.066516","285165.257885","285931.89213","286698.212568","272848.581778","276748.914197","277515.25504","278264.911862","279031.359369","279798.206941","280565.257637","281331.780272","282098.491191","285941.684454"
"Mixed","both","tile","35","M_reek.wav","None","721.719340887","335","275982.269131","282865.149861","283631.685481","284398.066516","285165.257885","285931.89213","286698.212568","287465.300983","276748.914197","277515.25504","278264.911862","279031.359369","279798.206941","280565.257637","281331.780272","282098.491191","286707.176318"
"Mixed","both","ball","8","M_depth.wav","None","719.519909471","335","290581.882298","282865.149861","283631.685481","284398.066516","285165.257885","285931.89213","286698.212568","287465.300983","276748.914197","277515.25504","278264.911862","279031.359369","279798.206941","280565.257637","281331.780272","282098.491191","287475.101655"
"Mixed","both","ball","8","F_knife.wav","None","721.471696161","335","290581.882298","282865.149861","283631.685481","284398.066516","285165.257885","285931.89213","286698.212568","287465.300983","291348.621352","277515.25504","278264.911862","279031.359369","279798.206941","280565.257637","281331.780272","282098.491191","290591.634122"
"Mixed","both","ball","8","M_jaw.wav","None","723.108439241","335","290581.882298","282865.149861","283631.685481","284398.066516","285165.257885","285931.89213","286698.212568","287465.300983","291348.621352","292115.310938","278264.911862","279031.359369","279798.206941","280565.257637","281331.780272","282098.491191","291358.346277"
"Mixed","both","ball","8","F_cad.wav","None","722.035930026","335","290581.882298","282865.149861","283631.685481","284398.066516","285165.257885","285931.89213","286698.212568","287465.300983","291348.621352","292115.310938","292881.836974","279031.359369","279798.206941","280565.257637","281331.780272","282098.491191","292125.377805"
"Mixed","both","ball","8","M_park.wav","None","721.639265772","335","290581.882298","282865.149861","283631.685481","284398.066516","285165.257885","285931.89213","286698.212568","287465.300983","291348.621352","292115.310938","292881.836974","293648.188947","279798.206941","280565.257637","281331.780272","282098.491191","292891.608584"
"Mixed","both","ball","8","F_ball.wav","None","720.982590225","335","290581.882298","282865.149861","283631.685481","284398.066516","285165.257885","285931.89213","286698.212568","287465.300983","291348.621352","292115.310938","292881.836974","293648.188947","294414.706944","280565.257637","281331.780272","282098.491191","293657.830706"
"Mixed","both","ball","8","F_reek.wav","space","526.560748927","335","290581.882298","282865.149861","283631.685481","284398.066516","285165.257885","285931.89213","286698.212568","287465.300983","291348.621352","292115.310938","292881.836974","293648.188947","294414.706944","295164.741881","281331.780272","282098.491191","294424.187317"
"Mixed","both","ball","8","M_ball.wav","None","735.368245747","335","290581.882298","282865.149861","283631.685481","284398.066516","285165.257885","285931.89213","286698.212568","287465.300983","291348.621352","292115.310938","292881.836974","293648.188947","294414.706944","295164.741881","295931.251531","282098.491191","295174.242349"
"Mixed","both","ball","8","F_park.wav","space","521.781607531","335","290581.882298","282865.149861","283631.685481","284398.066516","285165.257885","285931.89213","286698.212568","287465.300983","291348.621352","292115.310938","292881.836974","293648.188947","294414.706944","295164.741881","295931.251531","296698.183815","295940.890817"
"Mixed","both","ball","8","F_ball.wav","None","732.381668407","335","290581.882298","297464.705831","283631.685481","284398.066516","285165.257885","285931.89213","286698.212568","287465.300983","291348.621352","292115.310938","292881.836974","293648.188947","294414.706944","295164.741881","295931.251531","296698.183815","296707.542684"
"Mixed","both","ball","8","F_jaw.wav","space","484.254617244","335","290581.882298","297464.705831","298231.307305","284398.066516","285165.257885","285931.89213","286698.212568","287465.300983","291348.621352","292115.310938","292881.836974","293648.188947","294414.706944","295164.741881","295931.251531","296698.183815","297474.393966"
"Mixed","both","ball","8","M_ball.wav","None","729.880796745","335","290581.882298","297464.705831","298231.307305","298998.582458","285165.257885","285931.89213","286698.212568","287465.300983","291348.621352","292115.310938","292881.836974","293648.188947","294414.706944","295164.741881","295931.251531","296698.183815","298240.747795"
"Mixed","both","ball","8","M_cad.wav","space","566.609325819","335","290581.882298","297464.705831","298231.307305","298998.582458","299764.64814","285931.89213","286698.212568","287465.300983","291348.621352","292115.310938","292881.836974","293648.188947","294414.706944","295164.741881","295931.251531","296698.183815","299007.9775"
"Mixed","both","ball","8","M_depth.wav","None","727.234615013","335","290581.882298","297464.705831","298231.307305","298998.582458","299764.64814","300531.181287","286698.212568","287465.300983","291348.621352","292115.310938","292881.836974","293648.188947","294414.706944","295164.741881","295931.251531","296698.183815","299774.059569"
"Mixed","both","ball","8","F_cad.wav","None","726.400785148","335","290581.882298","297464.705831","298231.307305","298998.582458","299764.64814","300531.181287","301298.075853","287465.300983","291348.621352","292115.310938","292881.836974","293648.188947","294414.706944","295164.741881","295931.251531","296698.183815","300540.738952"
"Mixed","both","ball","8","M_cad.wav","None","725.233051926","335","290581.882298","297464.705831","298231.307305","298998.582458","299764.64814","300531.181287","301298.075853","302064.223775","291348.621352","292115.310938","292881.836974","293648.188947","294414.706944","295164.741881","295931.251531","296698.183815","301307.563337"
"Mixed","both","cave","23","M_cad.wav","None","725.406495854","335","305198.060147","297464.705831","298231.307305","298998.582458","299764.64814","300531.181287","301298.075853","302064.223775","291348.621352","292115.310938","292881.836974","293648.188947","294414.706944","295164.741881","295931.251531","296698.183815","302073.096011"
"Mixed","both","cave","23","M_cave.wav","None","721.583306324","335","305198.060147","297464.705831","298231.307305","298998.582458","299764.64814","300531.181287","301298.075853","302064.223775","305964.28567","292115.310938","292881.836974","293648.188947","294414.706944","295164.741881","295931.251531","296698.183815","305207.839487"
"Mixed","both","cave","23","M_jolt.wav","space","568.753106985","335","305198.060147","297464.705831","298231.307305","298998.582458","299764.64814","300531.181287","301298.075853","302064.223775","305964.28567","306731.456324","292881.836974","293648.188947","294414.706944","295164.741881","295931.251531","296698.183815","305973.641448"
"Mixed","both","cave","23","F_bluff.wav","None","722.166090738","335","305198.060147","297464.705831","298231.307305","298998.582458","299764.64814","300531.181287","301298.075853","302064.223775","305964.28567","306731.456324","307498.124578","293648.188947","294414.706944","295164.741881","295931.251531","296698.183815","306741.235664"
"Mixed","both","cave","23","M_knife.wav","None","721.169637982","335","305198.060147","297464.705831","298231.307305","298998.582458","299764.64814","300531.181287","301298.075853","302064.223775","305964.28567","306731.456324","307498.124578","308264.300325","294414.706944","295164.741881","295931.251531","296698.183815","307507.994195"
"Mixed","both","cave","23","M_jolt.wav","None","720.971459989","335","305198.060147","297464.705831","298231.307305","298998.582458","299764.64814","300531.181287","301298.075853","302064.223775","305964.28567","306731.456324","307498.124578","308264.300325","309031.669775","295164.741881","295931.251531","296698.183815","308273.775751"
"Mixed","both","cave","23","F_gnash.wav","None","718.89353171","335","305198.060147","297464.705831","298231.307305","298998.582458","299764.64814","300531.181287","301298.075853","302064.223775","305964.28567","306731.456324","307498.124578","308264.300325","309031.669775","309780.596339","295931.251531","296698.183815","309041.507857"
"Mixed","both","cave","23","F_cave.wav","None","735.84034713","335","305198.060147","297464.705831","298231.307305","298998.582458","299764.64814","300531.181287","301298.075853","302064.223775","305964.28567","306731.456324","307498.124578","308264.300325","309031.669775","309780.596339","310564.815834","296698.183815","309789.757339"
"Mixed","both","cave","23","F_lash.wav","space","567.41996808","335","305198.060147","297464.705831","298231.307305","298998.582458","299764.64814","300531.181287","301298.075853","302064.223775","305964.28567","306731.456324","307498.124578","308264.300325","309031.669775","309780.596339","310564.815834","311313.790628","310574.819322"
"Mixed","both","cave","23","F_cave.wav","None","736.212278251","335","305198.060147","312080.690141","298231.307305","298998.582458","299764.64814","300531.181287","301298.075853","302064.223775","305964.28567","306731.456324","307498.124578","308264.300325","309031.669775","309780.596339","310564.815834","311313.790628","311322.631329"
"Mixed","both","cave","23","M_greet.wav","space","603.913714644","335","305198.060147","312080.690141","312847.563065","298998.582458","299764.64814","300531.181287","301298.075853","302064.223775","305964.28567","306731.456324","307498.124578","308264.300325","309031.669775","309780.596339","310564.815834","311313.790628","312090.260172"
"Mixed","both","cave","23","M_cling.wav","None","732.838620897","335","305198.060147","312080.690141","312847.563065","313614.208749","299764.64814","300531.181287","301298.075853","302064.223775","305964.28567","306731.456324","307498.124578","308264.300325","309031.669775","309780.596339","310564.815834","311313.790628","312856.470237"
"Mixed","both","cave","23","F_gnash.wav","None","731.317507103","335","305198.060147","312080.690141","312847.563065","313614.208749","314380.70294","300531.181287","301298.075853","302064.223775","305964.28567","306731.456324","307498.124578","308264.300325","309031.669775","309780.596339","310564.815834","311313.790628","313623.822065"
"Mixed","both","cave","23","F_reek.wav","None","731.500535272","335","305198.060147","312080.690141","312847.563065","313614.208749","314380.70294","315147.151066","301298.075853","302064.223775","305964.28567","306731.456324","307498.124578","308264.300325","309031.669775","309780.596339","310564.815834","311313.790628","314389.714612"
"Mixed","both","cave","23","M_cave.wav","None","730.471619405","335","305198.060147","312080.690141","312847.563065","313614.208749","314380.70294","315147.151066","315914.270088","302064.223775","305964.28567","306731.456324","307498.124578","308264.300325","309031.669775","309780.596339","310564.815834","311313.790628","315156.286714"
"Mixed","both","cave","23","F_gnash.wav","space","674.438053742","335","305198.060147","312080.690141","312847.563065","313614.208749","314380.70294","315147.151066","315914.270088","316680.739855","305964.28567","306731.456324","307498.124578","308264.300325","309031.669775","309780.596339","310564.815834","311313.790628","315923.649671"
"Mixed","both","ball","2","M_knife.wav","None","726.632043719","335","319814.274478","312080.690141","312847.563065","313614.208749","314380.70294","315147.151066","315914.270088","316680.739855","305964.28567","306731.456324","307498.124578","308264.300325","309031.669775","309780.596339","310564.815834","311313.790628","316690.398"
"Mixed","both","ball","2","F_jolt.wav","None","720.875308383","335","319814.274478","312080.690141","312847.563065","313614.208749","314380.70294","315147.151066","315914.270088","316680.739855","320580.025735","306731.456324","307498.124578","308264.300325","309031.669775","309780.596339","310564.815834","311313.790628","319824.199437"
"Mixed","both","ball","2","F_ball.wav","None","725.851390976","335","319814.274478","312080.690141","312847.563065","313614.208749","314380.70294","315147.151066","315914.270088","316680.739855","320580.025735","321347.786594","307498.124578","308264.300325","309031.669775","309780.596339","310564.815834","311313.790628","320588.897663"
"Mixed","both","ball","2","M_park.wav","space","511.389185209","335","319814.274478","312080.690141","312847.563065","313614.208749","314380.70294","315147.151066","315914.270088","316680.739855","320580.025735","321347.786594","322114.063749","308264.300325","309031.669775","309780.596339","310564.815834","311313.790628","321357.592831"
"Mixed","both","ball","2","M_dime.wav","None","721.579287201","335","319814.274478","312080.690141","312847.563065","313614.208749","314380.70294","315147.151066","315914.270088","316680.739855","320580.025735","321347.786594","322114.063749","322880.812386","309031.669775","309780.596339","310564.815834","311313.790628","322123.554633"
"Mixed","both","ball","2","M_romp.wav","None","719.722415321","335","319814.274478","312080.690141","312847.563065","313614.208749","314380.70294","315147.151066","315914.270088","316680.739855","320580.025735","321347.786594","322114.063749","322880.812386","323647.691493","309780.596339","310564.815834","311313.790628","322891.100619"
"Mixed","both","ball","2","F_lash.wav","None","710.979721043","335","319814.274478","312080.690141","312847.563065","313614.208749","314380.70294","315147.151066","315914.270088","316680.739855","320580.025735","321347.786594","322114.063749","322880.812386","323647.691493","324396.607236","310564.815834","311313.790628","323665.387117"
"Mixed","both","ball","2","M_ball.wav","None","735.479237512","335","319814.274478","312080.690141","312847.563065","313614.208749","314380.70294","315147.151066","315914.270088","316680.739855","320580.025735","321347.786594","322114.063749","322880.812386","323647.691493","324396.607236","325163.541376","311313.790628","324406.367716"
"Mixed","both","ball","2","M_bluff.wav","space","432.96031002","335","319814.274478","312080.690141","312847.563065","313614.208749","314380.70294","315147.151066","315914.270088","316680.739855","320580.025735","321347.786594","322114.063749","322880.812386","323647.691493","324396.607236","325163.541376","325930.411826","325172.853869"
"Mixed","both","ball","2","F_priest.wav","None","732.959506568","335","319814.274478","326697.290006","312847.563065","313614.208749","314380.70294","315147.151066","315914.270088","316680.739855","320580.025735","321347.786594","322114.063749","322880.812386","323647.691493","324396.607236","325163.541376","325930.411826","325939.939192"
"Mixed","both","ball","2","F_ball.wav","None","732.421551365","335","319814.274478","326697.290006","327463.880658","313614.208749","314380.70294","315147.151066","315914.270088","316680.739855","320580.025735","321347.786594","322114.063749","322880.812386","323647.691493","324396.607236","325163.541376","325930.411826","326706.336923"
"Mixed","both","ball","2","F_depth.wav","space","707.798985299","335","319814.274478","326697.290006","327463.880658","328230.422771","314380.70294","315147.151066","315914.270088","316680.739855","320580.025735","321347.786594","322114.063749","322880.812386","323647.691493","324396.607236","325163.541376","325930.411826","327473.894348"
"Mixed","both","ball","2","M_dime.wav","None","734.619745985","335","319814.274478","326697.290006","327463.880658","328230.422771","328997.104319","315147.151066","315914.270088","316680.739855","320580.025735","321347.786594","322114.063749","322880.812386","323647.691493","324396.607236","325163.541376","325930.411826","328235.544472"
"Mixed","both","ball","2","F_cling.wav","None","729.598215781","335","319814.274478","326697.290006","327463.880658","328230.422771","328997.104319","329763.427231","315914.270088","316680.739855","320580.025735","321347.786594","322114.063749","322880.812386","323647.691493","324396.607236","325163.541376","325930.411826","329006.529969"
"Mixed","both","ball","2","M_ball.wav","None","729.216082487","335","319814.274478","326697.290006","327463.880658","328230.422771","328997.104319","329763.427231","330530.385794","316680.739855","320580.025735","321347.786594","322114.063749","322880.812386","323647.691493","324396.607236","325163.541376","325930.411826","329772.740342"
"Mixed","both","ball","2","F_dime.wav","space","561.52256066","335","319814.274478","326697.290006","327463.880658","328230.422771","328997.104319","329763.427231","330530.385794","331297.091148","320580.025735","321347.786594","322114.063749","322880.812386","323647.691493","324396.607236","325163.541376","325930.411826","330540.1033"
"Mixed","both","tile","28","M_depth.wav","None","725.824492984","335","334430.878054","326697.290006","327463.880658","328230.422771","328997.104319","329763.427231","330530.385794","331297.091148","320580.025735","321347.786594","322114.063749","322880.812386","323647.691493","324396.607236","325163.541376","325930.411826","331306.625626"
"Mixed","both","tile","28","F_tile.wav","None","721.160671674","335","334430.878054","326697.290006","327463.880658","328230.422771","328997.104319","329763.427231","330530.385794","331297.091148","335196.866753","321347.786594","322114.063749","322880.812386","323647.691493","324396.607236","325163.541376","325930.411826","334440.830528"
"Mixed","both","tile","28","F_cling.wav","space","661.074512172","335","334430.878054","326697.290006","327463.880658","328230.422771","328997.104319","329763.427231","330530.385794","331297.091148","335196.866753","335963.979902","322114.063749","322880.812386","323647.691493","324396.607236","325163.541376","325930.411826","335207.458899"
"Mixed","both","tile","28","M_park.wav","None","718.627955299","335","334430.878054","326697.290006","327463.880658","328230.422771","328997.104319","329763.427231","330530.385794","331297.091148","335196.866753","335963.979902","336730.530671","322880.812386","323647.691493","324396.607236","325163.541376","325930.411826","335974.963147"
"Mixed","both","tile","28","M_tile.wav","None","719.327605795","335","334430.878054","326697.290006","327463.880658","328230.422771","328997.104319","329763.427231","330530.385794","331297.091148","335196.866753","335963.979902","336730.530671","337480.177909","323647.691493","324396.607236","325163.541376","325930.411826","336740.125436"
"Mixed","both","tile","28","M_priest.wav","space","531.811065506","335","334430.878054","326697.290006","327463.880658","328230.422771","328997.104319","329763.427231","330530.385794","331297.091148","335196.866753","335963.979902","336730.530671","337480.177909","338246.508549","324396.607236","325163.541376","325930.411826","337489.608814"
"Mixed","both","tile","28","M_lash.wav","None","734.542144928","335","334430.878054","326697.290006","327463.880658","328230.422771","328997.104319","329763.427231","330530.385794","331297.091148","335196.866753","335963.979902","336730.530671","337480.177909","338246.508549","339013.458766","325163.541376","325930.411826","338256.247079"
"Mixed","both","tile","28","F_depth.wav","None","733.433772344","335","334430.878054","326697.290006","327463.880658","328230.422771","328997.104319","329763.427231","330530.385794","331297.091148","335196.866753","335963.979902","336730.530671","337480.177909","338246.508549","339013.458766","339780.182051","325930.411826","339023.240578"
"Mixed","both","tile","28","M_tile.wav","None","733.531779144","335","334430.878054","326697.290006","327463.880658","328230.422771","328997.104319","329763.427231","330530.385794","331297.091148","335196.866753","335963.979902","336730.530671","337480.177909","338246.508549","339013.458766","339780.182051","340546.919559","339789.589151"
"Mixed","both","tile","28","F_park.wav","space","441.332928836","335","334430.878054","341313.393654","327463.880658","328230.422771","328997.104319","329763.427231","330530.385794","331297.091148","335196.866753","335963.979902","336730.530671","337480.177909","338246.508549","339013.458766","339780.182051","340546.919559","340556.011306"
"Mixed","both","tile","28","M_dime.wav","None","731.464981101","335","334430.878054","341313.393654","342079.873624","328230.422771","328997.104319","329763.427231","330530.385794","331297.091148","335196.866753","335963.979902","336730.530671","337480.177909","338246.508549","339013.458766","339780.182051","340546.919559","341323.113633"
"Mixed","both","tile","28","M_park.wav","None","731.206515338","335","334430.878054","341313.393654","342079.873624","342846.832806","328997.104319","329763.427231","330530.385794","331297.091148","335196.866753","335963.979902","336730.530671","337480.177909","338246.508549","339013.458766","339780.182051","340546.919559","342089.608752"
"Mixed","both","tile","28","F_reek.wav","None","730.344550684","335","334430.878054","341313.393654","342079.873624","342846.832806","343613.282477","329763.427231","330530.385794","331297.091148","335196.866753","335963.979902","336730.530671","337480.177909","338246.508549","339013.458766","339780.182051","340546.919559","342856.481986"
"Mixed","both","tile","28","F_romp.wav","None","729.363865219","335","334430.878054","341313.393654","342079.873624","342846.832806","343613.282477","344379.854888","330530.385794","331297.091148","335196.866753","335963.979902","336730.530671","337480.177909","338246.508549","339013.458766","339780.182051","340546.919559","343623.27298"
"Mixed","both","tile","28","F_tile.wav","None","729.653556831","335","334430.878054","341313.393654","342079.873624","342846.832806","343613.282477","344379.854888","345146.662268","331297.091148","335196.866753","335963.979902","336730.530671","337480.177909","338246.508549","339013.458766","339780.182051","340546.919559","344389.455837"
"Mixed","both","tile","28","F_gnash.wav","space","592.781449668","335","334430.878054","341313.393654","342079.873624","342846.832806","343613.282477","344379.854888","345146.662268","345913.321556","335196.866753","335963.979902","336730.530671","337480.177909","338246.508549","339013.458766","339780.182051","340546.919559","345156.434806"
"Mixed","both","done","37","M_reek.wav","None","726.695114281","335","349046.253299","341313.393654","342079.873624","342846.832806","343613.282477","344379.854888","345146.662268","345913.321556","335196.866753","335963.979902","336730.530671","337480.177909","338246.508549","339013.458766","339780.182051","340546.919559","345923.224873"
"Mixed","both","done","37","M_done.wav","None","722.971477546","335","349046.253299","341313.393654","342079.873624","342846.832806","343613.282477","344379.854888","345146.662268","345913.321556","349813.592141","335963.979902","336730.530671","337480.177909","338246.508549","339013.458766","339780.182051","340546.919559","349055.666582"
"Mixed","both","done","37","F_cling.wav","space","637.280211784","335","349046.253299","341313.393654","342079.873624","342846.832806","343613.282477","344379.854888","345146.662268","345913.321556","349813.592141","350579.970085","336730.530671","337480.177909","338246.508549","339013.458766","339780.182051","340546.919559","349823.765363"
"Mixed","both","done","37","M_done.wav","None","719.240729231","335","349046.253299","341313.393654","342079.873624","342846.832806","343613.282477","344379.854888","345146.662268","345913.321556","349813.592141","350579.970085","351330.107356","337480.177909","338246.508549","339013.458766","339780.182051","340546.919559","350590.11208"
"Mixed","both","done","37","F_cad.wav","None","735.55962136","335","349046.253299","341313.393654","342079.873624","342846.832806","343613.282477","344379.854888","345146.662268","345913.321556","349813.592141","350579.970085","351330.107356","352095.820585","338246.508549","339013.458766","339780.182051","340546.919559","351339.559285"
"Mixed","both","done","37","F_done.wav","space","0.0234968028963","335","349046.253299","341313.393654","342079.873624","342846.832806","343613.282477","344379.854888","345146.662268","345913.321556","349813.592141","350579.970085","351330.107356","352095.820585","352863.034214","339013.458766","339780.182051","340546.919559","352105.449978"
"Mixed","both","done","37","F_greet.wav","space","579.921235796","335","349046.253299","341313.393654","342079.873624","342846.832806","343613.282477","344379.854888","345146.662268","345913.321556","349813.592141","350579.970085","351330.107356","352095.820585","352863.034214","353629.529642","339780.182051","340546.919559","352873.023789"
"Mixed","both","done","37","F_knife.wav","None","731.935227755","335","349046.253299","341313.393654","342079.873624","342846.832806","343613.282477","344379.854888","345146.662268","345913.321556","349813.592141","350579.970085","351330.107356","352095.820585","352863.034214","353629.529642","354396.41586","340546.919559","353639.006305"
"Mixed","both","done","37","M_greet.wav","None","730.712153018","335","349046.253299","341313.393654","342079.873624","342846.832806","343613.282477","344379.854888","345146.662268","345913.321556","349813.592141","350579.970085","351330.107356","352095.820585","352863.034214","353629.529642","354396.41586","355162.970031","354406.233846"
"Mixed","both","done","37","M_depth.wav","None","730.228303","335","349046.253299","355929.52822","342079.873624","342846.832806","343613.282477","344379.854888","345146.662268","345913.321556","349813.592141","350579.970085","351330.107356","352095.820585","352863.034214","353629.529642","354396.41586","355162.970031","355172.679807"
"Mixed","both","done","37","M_greet.wav","None","730.273750611","335","349046.253299","355929.52822","356696.40269","342846.832806","343613.282477","344379.854888","345146.662268","345913.321556","349813.592141","350579.970085","351330.107356","352095.820585","352863.034214","353629.529642","354396.41586","355162.970031","355939.10258"
"Mixed","both","done","37","F_park.wav","None","729.413023219","335","349046.253299","355929.52822","356696.40269","357462.916977","343613.282477","344379.854888","345146.662268","345913.321556","349813.592141","350579.970085","351330.107356","352095.820585","352863.034214","353629.529642","354396.41586","355162.970031","356705.715183"
"Mixed","both","done","37","F_done.wav","None","728.343605995","335","349046.253299","355929.52822","356696.40269","357462.916977","358229.514122","344379.854888","345146.662268","345913.321556","349813.592141","350579.970085","351330.107356","352095.820585","352863.034214","353629.529642","354396.41586","355162.970031","357472.756605"
"Mixed","both","done","37","M_jaw.wav","space","485.13049446","335","349046.253299","355929.52822","356696.40269","357462.916977","358229.514122","358996.306662","345146.662268","345913.321556","349813.592141","350579.970085","351330.107356","352095.820585","352863.034214","353629.529642","354396.41586","355162.970031","358239.691362"
"Mixed","both","done","37","M_lash.wav","None","725.994536187","335","349046.253299","355929.52822","356696.40269","357462.916977","358229.514122","358996.306662","359762.448091","345913.321556","349813.592141","350579.970085","351330.107356","352095.820585","352863.034214","353629.529642","354396.41586","355162.970031","359006.023549"
"Mixed","both","done","37","F_gnash.wav","None","726.371723227","335","349046.253299","355929.52822","356696.40269","357462.916977","358229.514122","358996.306662","359762.448091","360529.18127","349813.592141","350579.970085","351330.107356","352095.820585","352863.034214","353629.529642","354396.41586","355162.970031","359771.536127"
"Mixed","both","ball","10","F_park.wav","None","725.529854652","335","363663.19356","355929.52822","356696.40269","357462.916977","358229.514122","358996.306662","359762.448091","360529.18127","349813.592141","350579.970085","351330.107356","352095.820585","352863.034214","353629.529642","354396.41586","355162.970031","360538.311663"
"Mixed","both","ball","10","M_gnash.wav","None","720.305199735","335","363663.19356","355929.52822","356696.40269","357462.916977","358229.514122","358996.306662","359762.448091","360529.18127","364429.338699","350579.970085","351330.107356","352095.820585","352863.034214","353629.529642","354396.41586","355162.970031","363673.489213"
"Mixed","both","ball","10","M_ball.wav","None","720.758751035","335","363663.19356","355929.52822","356696.40269","357462.916977","358229.514122","358996.306662","359762.448091","360529.18127","364429.338699","365196.502242","351330.107356","352095.820585","352863.034214","353629.529642","354396.41586","355162.970031","364439.155448"
"Mixed","both","ball","10","M_lash.wav","space","500.955642667","335","363663.19356","355929.52822","356696.40269","357462.916977","358229.514122","358996.306662","359762.448091","360529.18127","364429.338699","365196.502242","365945.379957","352095.820585","352863.034214","353629.529642","354396.41586","355162.970031","365206.699579"
"Mixed","both","ball","10","F_ball.wav","None","736.306884326","335","363663.19356","355929.52822","356696.40269","357462.916977","358229.514122","358996.306662","359762.448091","360529.18127","364429.338699","365196.502242","365945.379957","366729.630988","352863.034214","353629.529642","354396.41586","355162.970031","365954.661534"
"Mixed","both","ball","10","M_greet.wav","space","504.690719303","335","363663.19356","355929.52822","356696.40269","357462.916977","358229.514122","358996.306662","359762.448091","360529.18127","364429.338699","365196.502242","365945.379957","366729.630988","367479.119312","353629.529642","354396.41586","355162.970031","366739.842546"
"Mixed","both","ball","10","M_ball.wav","None","734.464852139","335","363663.19356","355929.52822","356696.40269","357462.916977","358229.514122","358996.306662","359762.448091","360529.18127","364429.338699","365196.502242","365945.379957","366729.630988","367479.119312","368245.877535","354396.41586","355162.970031","367488.761381"
"Mixed","both","ball","10","M_park.wav","space","524.403982796","335","363663.19356","355929.52822","356696.40269","357462.916977","358229.514122","358996.306662","359762.448091","360529.18127","364429.338699","365196.502242","365945.379957","366729.630988","367479.119312","368245.877535","369012.569594","355162.970031","368256.1163"
"Mixed","both","ball","10","F_dime.wav","None","732.35631641","335","363663.19356","355929.52822","356696.40269","357462.916977","358229.514122","358996.306662","359762.448091","360529.18127","364429.338699","365196.502242","365945.379957","366729.630988","367479.119312","368245.877535","369012.569594","369778.943209","369022.33904"
"Mixed","both","ball","10","F_jaw.wav","None","732.580155134","335","363663.19356","370545.741932","356696.40269","357462.916977","358229.514122","358996.306662","359762.448091","360529.18127","364429.338699","365196.502242","365945.379957","366729.630988","367479.119312","368245.877535","369012.569594","369778.943209","369787.993218"
"Mixed","both","ball","10","F_lash.wav","None","732.365591917","335","363663.19356","370545.741932","371312.481914","357462.916977","358229.514122","358996.306662","359762.448091","360529.18127","364429.338699","365196.502242","365945.379957","366729.630988","367479.119312","368245.877535","369012.569594","369778.943209","370554.973115"
"Mixed","both","ball","10","F_ball.wav","None","731.643990148","335","363663.19356","370545.741932","371312.481914","372078.816264","358229.514122","358996.306662","359762.448091","360529.18127","364429.338699","365196.502242","365945.379957","366729.630988","367479.119312","368245.877535","369012.569594","369778.943209","371321.628383"
"Mixed","both","ball","10","F_gnash.wav","space","515.479806345","335","363663.19356","370545.741932","371312.481914","372078.816264","372845.347865","358996.306662","359762.448091","360529.18127","364429.338699","365196.502242","365945.379957","366729.630988","367479.119312","368245.877535","369012.569594","369778.943209","372088.925488"
"Mixed","both","ball","10","F_cad.wav","None","729.527416173","335","363663.19356","370545.741932","371312.481914","372078.816264","372845.347865","373612.442773","359762.448091","360529.18127","364429.338699","365196.502242","365945.379957","366729.630988","367479.119312","368245.877535","369012.569594","369778.943209","372854.491862"
"Mixed","both","ball","10","M_jaw.wav","None","728.062571026","335","363663.19356","370545.741932","371312.481914","372078.816264","372845.347865","373612.442773","374379.033116","360529.18127","364429.338699","365196.502242","365945.379957","366729.630988","367479.119312","368245.877535","369012.569594","369778.943209","373621.907378"
"Mixed","both","ball","10","M_greet.wav","None","727.030253969","335","363663.19356","370545.741932","371312.481914","372078.816264","372845.347865","373612.442773","374379.033116","375145.364375","364429.338699","365196.502242","365945.379957","366729.630988","367479.119312","368245.877535","369012.569594","369778.943209","374388.803799"
"Mixed","both","tile","31","M_priest.wav","None","727.331076283","335","378279.425514","370545.741932","371312.481914","372078.816264","372845.347865","373612.442773","374379.033116","375145.364375","364429.338699","365196.502242","365945.379957","366729.630988","367479.119312","368245.877535","369012.569594","369778.943209","375154.797445"
"Mixed","both","tile","31","M_lash.wav","None","721.385128796","335","378279.425514","370545.741932","371312.481914","372078.816264","372845.347865","373612.442773","374379.033116","375145.364375","379045.643617","365196.502242","365945.379957","366729.630988","367479.119312","368245.877535","369012.569594","369778.943209","378289.434257"
"Mixed","both","tile","31","M_tile.wav","None","721.493956633","335","378279.425514","370545.741932","371312.481914","372078.816264","372845.347865","373612.442773","374379.033116","375145.364375","379045.643617","379812.549313","365945.379957","366729.630988","367479.119312","368245.877535","369012.569594","369778.943209","379055.113168"
"Mixed","both","tile","31","M_greet.wav","space","548.508690204","335","378279.425514","370545.741932","371312.481914","372078.816264","372845.347865","373612.442773","374379.033116","375145.364375","379045.643617","379812.549313","380561.921699","366729.630988","367479.119312","368245.877535","369012.569594","369778.943209","379823.651589"
"Mixed","both","tile","31","F_knife.wav","None","736.4636329","335","378279.425514","370545.741932","371312.481914","372078.816264","372845.347865","373612.442773","374379.033116","375145.364375","379045.643617","379812.549313","380561.921699","381328.338907","367479.119312","368245.877535","369012.569594","369778.943209","380571.128456"
"Mixed","both","tile","31","F_tile.wav","None","736.04594497","335","378279.425514","370545.741932","371312.481914","372078.816264","372845.347865","373612.442773","374379.033116","375145.364375","379045.643617","379812.549313","380561.921699","381328.338907","382095.196991","368245.877535","369012.569594","369778.943209","381337.637488"
"Mixed","both","tile","31","F_lash.wav","space","547.152054496","335","378279.425514","370545.741932","371312.481914","372078.816264","372845.347865","373612.442773","374379.033116","375145.364375","379045.643617","379812.549313","380561.921699","381328.338907","382095.196991","382862.103614","369012.569594","369778.943209","382104.988697"
"Mixed","both","tile","31","F_lash.wav","None","732.940028422","335","378279.425514","370545.741932","371312.481914","372078.816264","372845.347865","373612.442773","374379.033116","375145.364375","379045.643617","379812.549313","380561.921699","381328.338907","382095.196991","382862.103614","383628.601824","369778.943209","382871.895629"
"Mixed","both","tile","31","F_cad.wav","None","733.462215867","335","378279.425514","370545.741932","371312.481914","372078.816264","372845.347865","373612.442773","374379.033116","375145.364375","379045.643617","379812.549313","380561.921699","381328.338907","382095.196991","382862.103614","383628.601824","384394.989043","383638.263061"
"Mixed","both","tile","31","F_tile.wav","None","736.095412169","335","378279.425514","385162.091061","371312.481914","372078.816264","372845.347865","373612.442773","374379.033116","375145.364375","379045.643617","379812.549313","380561.921699","381328.338907","382095.196991","382862.103614","383628.601824","384394.989043","384404.086355"
"Mixed","both","tile","31","F_reek.wav","space","656.425221823","335","378279.425514","385162.091061","385928.300508","372078.816264","372845.347865","373612.442773","374379.033116","375145.364375","379045.643617","379812.549313","380561.921699","381328.338907","382095.196991","382862.103614","383628.601824","384394.989043","385171.593694"
"Mixed","both","tile","31","M_romp.wav","None","734.857188072","335","378279.425514","385162.091061","385928.300508","386694.840456","372845.347865","373612.442773","374379.033116","375145.364375","379045.643617","379812.549313","380561.921699","381328.338907","382095.196991","382862.103614","383628.601824","384394.989043","385937.614857"
"Mixed","both","tile","31","F_greet.wav","None","732.077754568","335","378279.425514","385162.091061","385928.300508","386694.840456","387462.021622","373612.442773","374379.033116","375145.364375","379045.643617","379812.549313","380561.921699","381328.338907","382095.196991","382862.103614","383628.601824","384394.989043","386706.29735"
"Mixed","both","tile","31","M_priest.wav","None","732.964452822","335","378279.425514","385162.091061","385928.300508","386694.840456","387462.021622","388228.496645","374379.033116","375145.364375","379045.643617","379812.549313","380561.921699","381328.338907","382095.196991","382862.103614","383628.601824","384394.989043","387471.614842"
"Mixed","both","tile","31","M_tile.wav","None","732.982693706","335","378279.425514","385162.091061","385928.300508","386694.840456","387462.021622","388228.496645","388995.343908","375145.364375","379045.643617","379812.549313","380561.921699","381328.338907","382095.196991","382862.103614","383628.601824","384394.989043","388238.465196"
"Mixed","both","tile","31","M_knife.wav","space","519.021033309","335","378279.425514","385162.091061","385928.300508","386694.840456","387462.021622","388228.496645","388995.343908","389761.559228","379045.643617","379812.549313","380561.921699","381328.338907","382095.196991","382862.103614","383628.601824","384394.989043","389004.857671"
"Mixed","both","cave","20","F_gnash.wav","None","731.286590453","335","392895.795048","385162.091061","385928.300508","386694.840456","387462.021622","388228.496645","388995.343908","389761.559228","379045.643617","379812.549313","380561.921699","381328.338907","382095.196991","382862.103614","383628.601824","384394.989043","389771.043311"
"Mixed","both","cave","20","F_cave.wav","None","721.360704396","335","392895.795048","385162.091061","385928.300508","386694.840456","387462.021622","388228.496645","388995.343908","389761.559228","393661.887628","379812.549313","380561.921699","381328.338907","382095.196991","382862.103614","383628.601824","384394.989043","392906.003515"
"Mixed","both","cave","20","F_knife.wav","space","660.403305199","335","392895.795048","385162.091061","385928.300508","386694.840456","387462.021622","388228.496645","388995.343908","389761.559228","393661.887628","394428.854849","380561.921699","381328.338907","382095.196991","382862.103614","383628.601824","384394.989043","393671.336775"
"Mixed","both","cave","20","F_jaw.wav","None","725.331058726","335","392895.795048","385162.091061","385928.300508","386694.840456","387462.021622","388228.496645","388995.343908","389761.559228","393661.887628","394428.854849","395195.519392","381328.338907","382095.196991","382862.103614","383628.601824","384394.989043","394433.12417"
"Mixed","both","cave","20","F_cave.wav","None","718.336099759","335","392895.795048","385162.091061","385928.300508","386694.840456","387462.021622","388228.496645","388995.343908","389761.559228","393661.887628","394428.854849","395195.519392","395961.95175","382095.196991","382862.103614","383628.601824","384394.989043","395206.244481"
"Mixed","both","cave","20","M_reek.wav","space","551.769191399","335","392895.795048","385162.091061","385928.300508","386694.840456","387462.021622","388228.496645","388995.343908","389761.559228","393661.887628","394428.854849","395195.519392","395961.95175","396728.718938","382862.103614","383628.601824","384394.989043","395971.93205"
"Mixed","both","cave","20","F_park.wav","None","724.565245677","335","392895.795048","385162.091061","385928.300508","386694.840456","387462.021622","388228.496645","388995.343908","389761.559228","393661.887628","394428.854849","395195.519392","395961.95175","396728.718938","397478.572391","383628.601824","384394.989043","396732.661158"
"Mixed","both","cave","20","M_cave.wav","None","734.897689894","335","392895.795048","385162.091061","385928.300508","386694.840456","387462.021622","388228.496645","388995.343908","389761.559228","393661.887628","394428.854849","395195.519392","395961.95175","396728.718938","397478.572391","398244.752157","384394.989043","397488.670485"
"Mixed","both","cave","20","M_cad.wav","None","735.230974387","335","392895.795048","385162.091061","385928.300508","386694.840456","387462.021622","388228.496645","388995.343908","389761.559228","393661.887628","394428.854849","395195.519392","395961.95175","396728.718938","397478.572391","398244.752157","399011.564484","398254.407829"
"Mixed","both","cave","20","M_depth.wav","space","166.228057817","335","392895.795048","399778.190073","385928.300508","386694.840456","387462.021622","388228.496645","388995.343908","389761.559228","393661.887628","394428.854849","395195.519392","395961.95175","396728.718938","397478.572391","398244.752157","399011.564484","399021.363611"
"Mixed","both","cave","20","F_jaw.wav","None","732.993205544","335","392895.795048","399778.190073","400545.09515","386694.840456","387462.021622","388228.496645","388995.343908","389761.559228","393661.887628","394428.854849","395195.519392","395961.95175","396728.718938","397478.572391","398244.752157","399011.564484","399787.797205"
"Mixed","both","cave","20","M_lash.wav","None","732.338384725","335","392895.795048","399778.190073","400545.09515","401311.500919","387462.021622","388228.496645","388995.343908","389761.559228","393661.887628","394428.854849","395195.519392","395961.95175","396728.718938","397478.572391","398244.752157","399011.564484","400554.396205"
"Mixed","both","cave","20","F_cad.wav","None","732.441029046","335","392895.795048","399778.190073","400545.09515","401311.500919","402077.851965","388228.496645","388995.343908","389761.559228","393661.887628","394428.854849","395195.519392","395961.95175","396728.718938","397478.572391","398244.752157","399011.564484","401321.065695"
"Mixed","both","cave","20","M_cling.wav","None","732.157830149","335","392895.795048","399778.190073","400545.09515","401311.500919","402077.851965","402845.055082","388995.343908","389761.559228","393661.887628","394428.854849","395195.519392","395961.95175","396728.718938","397478.572391","398244.752157","399011.564484","402087.22722"
"Mixed","both","cave","20","M_cave.wav","space","0.0241156667471","335","392895.795048","399778.190073","400545.09515","401311.500919","402077.851965","402845.055082","403611.525158","389761.559228","393661.887628","394428.854849","395195.519392","395961.95175","396728.718938","397478.572391","398244.752157","399011.564484","402853.984514"
"Mixed","both","cave","20","M_depth.wav","space","701.377844904","335","392895.795048","399778.190073","400545.09515","401311.500919","402077.851965","402845.055082","403611.525158","404378.002654","393661.887628","394428.854849","395195.519392","395961.95175","396728.718938","397478.572391","398244.752157","399011.564484","403622.065673"
"Mixed","both","tile","30","F_cling.wav","None","729.681691155","335","407511.386094","399778.190073","400545.09515","401311.500919","402077.851965","402845.055082","403611.525158","404378.002654","393661.887628","394428.854849","395195.519392","395961.95175","396728.718938","397478.572391","398244.752157","399011.564484","404387.654307"
"Mixed","both","tile","30","F_tile.wav","None","721.716249362","335","407511.386094","399778.190073","400545.09515","401311.500919","402077.851965","402845.055082","403611.525158","404378.002654","408278.792953","394428.854849","395195.519392","395961.95175","396728.718938","397478.572391","398244.752157","399011.564484","407520.87605"
"Mixed","both","tile","30","M_bluff.wav","space","530.452883802","335","407511.386094","399778.190073","400545.09515","401311.500919","402077.851965","402845.055082","403611.525158","404378.002654","408278.792953","409044.766503","395195.519392","395961.95175","396728.718938","397478.572391","398244.752157","399011.564484","408288.8524"
"Mixed","both","tile","30","M_lash.wav","None","719.438598026","335","407511.386094","399778.190073","400545.09515","401311.500919","402077.851965","402845.055082","403611.525158","404378.002654","408278.792953","409044.766503","409811.549149","395961.95175","396728.718938","397478.572391","398244.752157","399011.564484","409054.350138"
"Mixed","both","tile","30","F_cling.wav","None","718.902188353","335","407511.386094","399778.190073","400545.09515","401311.500919","402077.851965","402845.055082","403611.525158","404378.002654","408278.792953","409044.766503","409811.549149","410561.02047","396728.718938","397478.572391","398244.752157","399011.564484","409821.494204"
"Mixed","both","tile","30","F_park.wav","None","736.45868618","335","407511.386094","399778.190073","400545.09515","401311.500919","402077.851965","402845.055082","403611.525158","404378.002654","408278.792953","409044.766503","409811.549149","410561.02047","411327.502912","397478.572391","398244.752157","399011.564484","410570.218261"
"Mixed","both","tile","30","M_reek.wav","None","735.979473684","335","407511.386094","399778.190073","400545.09515","401311.500919","402077.851965","402845.055082","403611.525158","404378.002654","408278.792953","409044.766503","409811.549149","410561.02047","411327.502912","412094.027093","398244.752157","399011.564484","411336.916814"
"Mixed","both","tile","30","M_tile.wav","None","734.496387653","335","407511.386094","399778.190073","400545.09515","401311.500919","402077.851965","402845.055082","403611.525158","404378.002654","408278.792953","409044.766503","409811.549149","410561.02047","411327.502912","412094.027093","412860.716989","399011.564484","412104.527416"
"Mixed","both","tile","30","M_romp.wav","space","508.979827166","335","407511.386094","399778.190073","400545.09515","401311.500919","402077.851965","402845.055082","403611.525158","404378.002654","408278.792953","409044.766503","409811.549149","410561.02047","411327.502912","412094.027093","412860.716989","413627.891971","412870.174792"
"Mixed","both","tile","30","M_tile.wav","None","732.942502014","335","407511.386094","414394.308561","400545.09515","401311.500919","402077.851965","402845.055082","403611.525158","404378.002654","408278.792953","409044.766503","409811.549149","410561.02047","411327.502912","412094.027093","412860.716989","413627.891971","413637.45582"
"Mixed","both","tile","30","M_cad.wav","space","687.089886516","335","407511.386094","414394.308561","415161.174683","401311.500919","402077.851965","402845.055082","403611.525158","404378.002654","408278.792953","409044.766503","409811.549149","410561.02047","411327.502912","412094.027093","412860.716989","413627.891971","414404.044617"
"Mixed","both","tile","30","F_knife.wav","None","731.851752382","335","407511.386094","414394.308561","415161.174683","415927.744003","402077.851965","402845.055082","403611.525158","404378.002654","408278.792953","409044.766503","409811.549149","410561.02047","411327.502912","412094.027093","412860.716989","413627.891971","415171.155601"
"Mixed","both","tile","30","F_jolt.wav","None","732.590976171","335","407511.386094","414394.308561","415161.174683","415927.744003","416694.2249","402845.055082","403611.525158","404378.002654","408278.792953","409044.766503","409811.549149","410561.02047","411327.502912","412094.027093","412860.716989","413627.891971","415937.310325"
"Mixed","both","tile","30","F_romp.wav","None","732.088575605","335","407511.386094","414394.308561","415161.174683","415927.744003","416694.2249","417461.522005","403611.525158","404378.002654","408278.792953","409044.766503","409811.549149","410561.02047","411327.502912","412094.027093","412860.716989","413627.891971","416704.226223"
"Mixed","both","tile","30","F_tile.wav","None","731.798883993","335","407511.386094","414394.308561","415161.174683","415927.744003","416694.2249","417461.522005","418227.601599","404378.002654","408278.792953","409044.766503","409811.549149","410561.02047","411327.502912","412094.027093","412860.716989","413627.891971","417470.944562"
"Mixed","both","tile","30","M_park.wav","space","645.557296462","335","407511.386094","414394.308561","415161.174683","415927.744003","416694.2249","417461.522005","418227.601599","418994.177721","408278.792953","409044.766503","409811.549149","410561.02047","411327.502912","412094.027093","412860.716989","413627.891971","418237.472762"
"Mixed","both","tile","25","F_dime.wav","None","730.928881094","335","422127.945767","414394.308561","415161.174683","415927.744003","416694.2249","417461.522005","418227.601599","418994.177721","408278.792953","409044.766503","409811.549149","410561.02047","411327.502912","412094.027093","412860.716989","413627.891971","419003.898009"
"Mixed","both","tile","25","F_lash.wav","None","721.957401372","335","422127.945767","414394.308561","415161.174683","415927.744003","416694.2249","417461.522005","418227.601599","418994.177721","422894.679255","409044.766503","409811.549149","410561.02047","411327.502912","412094.027093","412860.716989","413627.891971","422137.688933"
"Mixed","both","tile","25","F_gnash.wav","None","720.958474558","335","422127.945767","414394.308561","415161.174683","415927.744003","416694.2249","417461.522005","418227.601599","418994.177721","422894.679255","423661.004022","409811.549149","410561.02047","411327.502912","412094.027093","412860.716989","413627.891971","422905.043235"
"Mixed","both","tile","25","M_priest.wav","None","721.664926969","335","422127.945767","414394.308561","415161.174683","415927.744003","416694.2249","417461.522005","418227.601599","418994.177721","422894.679255","423661.004022","424427.567776","410561.02047","411327.502912","412094.027093","412860.716989","413627.891971","423670.418232"
"Mixed","both","tile","25","M_tile.wav","None","721.690897364","335","422127.945767","414394.308561","415161.174683","415927.744003","416694.2249","417461.522005","418227.601599","418994.177721","422894.679255","423661.004022","424427.567776","425194.657737","411327.502912","412094.027093","412860.716989","413627.891971","424436.92881"
"Mixed","both","tile","25","M_depth.wav","space","566.078172531","335","422127.945767","414394.308561","415161.174683","415927.744003","416694.2249","417461.522005","418227.601599","418994.177721","422894.679255","423661.004022","424427.567776","425194.657737","425943.860698","412094.027093","412860.716989","413627.891971","425204.73728"
"Mixed","both","tile","25","F_romp.wav","None","735.604760237","335","422127.945767","414394.308561","415161.174683","415927.744003","416694.2249","417461.522005","418227.601599","418994.177721","422894.679255","423661.004022","424427.567776","425194.657737","425943.860698","426710.834411","412860.716989","413627.891971","425953.814409"
"Mixed","both","tile","25","M_tile.wav","None","735.15182687","335","422127.945767","414394.308561","415161.174683","415927.744003","416694.2249","417461.522005","418227.601599","418994.177721","422894.679255","423661.004022","424427.567776","425194.657737","425943.860698","426710.834411","427476.949252","413627.891971","426720.609732"
"Mixed","both","tile","25","M_greet.wav","space","540.372586343","335","422127.945767","414394.308561","415161.174683","415927.744003","416694.2249","417461.522005","418227.601599","418994.177721","422894.679255","423661.004022","424427.567776","425194.657737","425943.860698","426710.834411","427476.949252","428243.830833","427486.3681"
"Mixed","both","tile","25","F_tile.wav","None","733.478910755","335","422127.945767","429010.439107","415161.174683","415927.744003","416694.2249","417461.522005","418227.601599","418994.177721","422894.679255","423661.004022","424427.567776","425194.657737","425943.860698","426710.834411","427476.949252","428243.830833","428253.433636"
"Mixed","both","tile","25","M_park.wav","space","606.856389903","335","422127.945767","429010.439107","429777.087265","415927.744003","416694.2249","417461.522005","418227.601599","418994.177721","422894.679255","423661.004022","424427.567776","425194.657737","425943.860698","426710.834411","427476.949252","428243.830833","429019.838168"
"Mixed","both","tile","25","F_depth.wav","None","732.422788162","335","422127.945767","429010.439107","429777.087265","430544.226693","416694.2249","417461.522005","418227.601599","418994.177721","422894.679255","423661.004022","424427.567776","425194.657737","425943.860698","426710.834411","427476.949252","428243.830833","429786.143766"
"Mixed","both","tile","25","F_bluff.wav","None","730.867974926","335","422127.945767","429010.439107","429777.087265","430544.226693","431310.387291","417461.522005","418227.601599","418994.177721","422894.679255","423661.004022","424427.567776","425194.657737","425943.860698","426710.834411","427476.949252","428243.830833","430553.874945"
"Mixed","both","tile","25","M_jolt.wav","None","730.902910698","335","422127.945767","429010.439107","429777.087265","430544.226693","431310.387291","432076.926621","418227.601599","418994.177721","422894.679255","423661.004022","424427.567776","425194.657737","425943.860698","426710.834411","427476.949252","428243.830833","431320.298646"
"Mixed","both","tile","25","F_tile.wav","None","730.963198934","335","422127.945767","429010.439107","429777.087265","430544.226693","431310.387291","432076.926621","432843.851794","418994.177721","422894.679255","423661.004022","424427.567776","425194.657737","425943.860698","426710.834411","427476.949252","428243.830833","432086.448113"
"Mixed","both","tile","25","M_cling.wav","space","701.023536734","335","422127.945767","429010.439107","429777.087265","430544.226693","431310.387291","432076.926621","432843.851794","433610.632277","422894.679255","423661.004022","424427.567776","425194.657737","425943.860698","426710.834411","427476.949252","428243.830833","432853.532508"
"Mixed","both","tile","27","F_priest.wav","None","728.745835368","335","436744.349001","429010.439107","429777.087265","430544.226693","431310.387291","432076.926621","432843.851794","433610.632277","422894.679255","423661.004022","424427.567776","425194.657737","425943.860698","426710.834411","427476.949252","428243.830833","433620.264142"
"Mixed","both","tile","27","M_tile.wav","None","721.588253044","335","436744.349001","429010.439107","429777.087265","430544.226693","431310.387291","432076.926621","432843.851794","433610.632277","437510.556282","423661.004022","424427.567776","425194.657737","425943.860698","426710.834411","427476.949252","428243.830833","436754.707105"
"Mixed","both","tile","27","F_bluff.wav","space","482.237904798","335","436744.349001","429010.439107","429777.087265","430544.226693","431310.387291","432076.926621","432843.851794","433610.632277","437510.556282","438277.225154","424427.567776","425194.657737","425943.860698","426710.834411","427476.949252","428243.830833","437520.187839"
"Mixed","both","tile","27","F_priest.wav","None","721.135010943","335","436744.349001","429010.439107","429777.087265","430544.226693","431310.387291","432076.926621","432843.851794","433610.632277","437510.556282","438277.225154","439043.803749","425194.657737","425943.860698","426710.834411","427476.949252","428243.830833","438286.634418"
"Mixed","both","tile","27","M_tile.wav","None","720.400423743","335","436744.349001","429010.439107","429777.087265","430544.226693","431310.387291","432076.926621","432843.851794","433610.632277","437510.556282","438277.225154","439043.803749","439810.835896","425943.860698","426710.834411","427476.949252","428243.830833","439053.570104"
"Mixed","both","tile","27","F_cad.wav","space","605.418133549","335","436744.349001","429010.439107","429777.087265","430544.226693","431310.387291","432076.926621","432843.851794","433610.632277","437510.556282","438277.225154","439043.803749","439810.835896","440577.403669","426710.834411","427476.949252","428243.830833","439820.946355"
"Mixed","both","tile","27","F_tile.wav","None","718.909608666","335","436744.349001","429010.439107","429777.087265","430544.226693","431310.387291","432076.926621","432843.851794","433610.632277","437510.556282","438277.225154","439043.803749","439810.835896","440577.403669","441344.254642","427476.949252","428243.830833","440587.152401"
"Mixed","both","tile","27","F_dime.wav","space","655.911382288","335","436744.349001","429010.439107","429777.087265","430544.226693","431310.387291","432076.926621","432843.851794","433610.632277","437510.556282","438277.225154","439043.803749","439810.835896","440577.403669","441344.254642","442093.764299","428243.830833","441354.408695"
"Mixed","both","tile","27","M_knife.wav","None","734.013156034","335","436744.349001","429010.439107","429777.087265","430544.226693","431310.387291","432076.926621","432843.851794","433610.632277","437510.556282","438277.225154","439043.803749","439810.835896","440577.403669","441344.254642","442093.764299","442860.186763","442103.470056"
"Mixed","both","tile","27","F_greet.wav","None","734.674159903","335","436744.349001","443626.598097","429777.087265","430544.226693","431310.387291","432076.926621","432843.851794","433610.632277","437510.556282","438277.225154","439043.803749","439810.835896","440577.403669","441344.254642","442093.764299","442860.186763","442869.720313"
"Mixed","both","tile","27","M_cad.wav","None","734.637678135","335","436744.349001","443626.598097","444393.684966","430544.226693","431310.387291","432076.926621","432843.851794","433610.632277","437510.556282","438277.225154","439043.803749","439810.835896","440577.403669","441344.254642","442093.764299","442860.186763","443636.299835"
"Mixed","both","tile","27","M_knife.wav","None","735.774803441","335","436744.349001","443626.598097","444393.684966","445160.309009","431310.387291","432076.926621","432843.851794","433610.632277","437510.556282","438277.225154","439043.803749","439810.835896","440577.403669","441344.254642","442093.764299","442860.186763","444402.831436"
"Mixed","both","tile","27","M_lash.wav","None","734.217516612","335","436744.349001","443626.598097","444393.684966","445160.309009","445926.72498","432076.926621","432843.851794","433610.632277","437510.556282","438277.225154","439043.803749","439810.835896","440577.403669","441344.254642","442093.764299","442860.186763","445171.060068"
"Mixed","both","tile","27","F_tile.wav","None","735.224481672","335","436744.349001","443626.598097","444393.684966","445160.309009","445926.72498","446693.236176","432843.851794","433610.632277","437510.556282","438277.225154","439043.803749","439810.835896","440577.403669","441344.254642","442093.764299","442860.186763","445936.603254"
"Mixed","both","tile","27","M_jolt.wav","space","555.323403794","335","436744.349001","443626.598097","444393.684966","445160.309009","445926.72498","446693.236176","447460.163204","433610.632277","437510.556282","438277.225154","439043.803749","439810.835896","440577.403669","441344.254642","442093.764299","442860.186763","446702.825067"
"Mixed","both","tile","27","M_cling.wav","None","733.842803165","335","436744.349001","443626.598097","444393.684966","445160.309009","445926.72498","446693.236176","447460.163204","448242.935787","437510.556282","438277.225154","439043.803749","439810.835896","440577.403669","441344.254642","442093.764299","442860.186763","447469.719324"
"Mixed","both","ball","4","F_greet.wav","None","721.440160647","335","451360.456668","443626.598097","444393.684966","445160.309009","445926.72498","446693.236176","447460.163204","448242.935787","437510.556282","438277.225154","439043.803749","439810.835896","440577.403669","441344.254642","442093.764299","442860.186763","448252.033099"
"Mixed","both","ball","4","F_jolt.wav","None","720.645904541","335","451360.456668","443626.598097","444393.684966","445160.309009","445926.72498","446693.236176","447460.163204","448242.935787","452127.074836","438277.225154","439043.803749","439810.835896","440577.403669","441344.254642","442093.764299","442860.186763","451370.62587"
"Mixed","both","ball","4","F_jolt.wav","None","720.335497987","335","451360.456668","443626.598097","444393.684966","445160.309009","445926.72498","446693.236176","447460.163204","448242.935787","452127.074836","452893.84017","439043.803749","439810.835896","440577.403669","441344.254642","442093.764299","442860.186763","452137.250841"
"Mixed","both","ball","4","M_ball.wav","None","719.850101974","335","451360.456668","443626.598097","444393.684966","445160.309009","445926.72498","446693.236176","447460.163204","448242.935787","452127.074836","452893.84017","453660.54305","439810.835896","440577.403669","441344.254642","442093.764299","442860.186763","452904.134276"
"Mixed","both","ball","4","M_romp.wav","space","627.812515013","335","451360.456668","443626.598097","444393.684966","445160.309009","445926.72498","446693.236176","447460.163204","448242.935787","452127.074836","452893.84017","453660.54305","454426.965205","440577.403669","441344.254642","442093.764299","442860.186763","453670.135342"
"Mixed","both","ball","4","M_cad.wav","None","720.054154284","335","451360.456668","443626.598097","444393.684966","445160.309009","445926.72498","446693.236176","447460.163204","448242.935787","452127.074836","452893.84017","453660.54305","454426.965205","455193.592958","441344.254642","442093.764299","442860.186763","454436.834822"
"Mixed","both","ball","4","M_ball.wav","None","719.336262438","335","451360.456668","443626.598097","444393.684966","445160.309009","445926.72498","446693.236176","447460.163204","448242.935787","452127.074836","452893.84017","453660.54305","454426.965205","455193.592958","455960.464954","442093.764299","442860.186763","455204.073803"
"Mixed","both","ball","4","M_park.wav","None","719.519291073","335","451360.456668","443626.598097","444393.684966","445160.309009","445926.72498","446693.236176","447460.163204","448242.935787","452127.074836","452893.84017","453660.54305","454426.965205","455193.592958","455960.464954","456726.575466","442860.186763","455970.814711"
"Mixed","both","ball","4","F_park.wav","space","9.43337893113","335","451360.456668","443626.598097","444393.684966","445160.309009","445926.72498","446693.236176","447460.163204","448242.935787","452127.074836","452893.84017","453660.54305","454426.965205","455193.592958","455960.464954","456726.575466","457476.662342","456736.39036"
"Mixed","both","ball","4","M_reek.wav","None","735.023212619","335","451360.456668","458242.874262","444393.684966","445160.309009","445926.72498","446693.236176","447460.163204","448242.935787","452127.074836","452893.84017","453660.54305","454426.965205","455193.592958","455960.464954","456726.575466","457476.662342","457486.495478"
"Mixed","both","ball","4","M_cad.wav","None","735.133585986","335","451360.456668","458242.874262","459009.945364","445160.309009","445926.72498","446693.236176","447460.163204","448242.935787","452127.074836","452893.84017","453660.54305","454426.965205","455193.592958","455960.464954","456726.575466","457476.662342","458252.752227"
"Mixed","both","ball","4","F_ball.wav","None","734.982711263","335","451360.456668","458242.874262","459009.945364","459776.326708","445926.72498","446693.236176","447460.163204","448242.935787","452127.074836","452893.84017","453660.54305","454426.965205","455193.592958","455960.464954","456726.575466","457476.662342","459019.884235"
"Mixed","both","ball","4","F_gnash.wav","space","496.251938399","335","451360.456668","458242.874262","459009.945364","459776.326708","460543.340614","446693.236176","447460.163204","448242.935787","452127.074836","452893.84017","453660.54305","454426.965205","455193.592958","455960.464954","456726.575466","457476.662342","459785.551707"
"Mixed","both","ball","4","M_reek.wav","None","732.817906886","335","451360.456668","458242.874262","459009.945364","459776.326708","460543.340614","461309.378162","447460.163204","448242.935787","452127.074836","452893.84017","453660.54305","454426.965205","455193.592958","455960.464954","456726.575466","457476.662342","460553.179313"
"Mixed","both","ball","4","F_ball.wav","None","733.559295069","335","451360.456668","458242.874262","459009.945364","459776.326708","460543.340614","461309.378162","462076.321576","448242.935787","452127.074836","452893.84017","453660.54305","454426.965205","455193.592958","455960.464954","456726.575466","457476.662342","461318.738267"
"Mixed","both","ball","4","F_bluff.wav","None","732.306849211","335","451360.456668","458242.874262","459009.945364","459776.326708","460543.340614","461309.378162","462076.321576","462842.756716","452127.074836","452893.84017","453660.54305","454426.965205","455193.592958","455960.464954","456726.575466","457476.662342","462086.239114"
"Mixed","both","ball","5","F_gnash.wav","space","165.790583473","335","465976.61844","458242.874262","459009.945364","459776.326708","460543.340614","461309.378162","462076.321576","462842.756716","452127.074836","452893.84017","453660.54305","454426.965205","455193.592958","455960.464954","456726.575466","457476.662342","462851.910606"
"Mixed","both","ball","5","M_lash.wav","None","720.756587107","335","465976.61844","458242.874262","459009.945364","459776.326708","460543.340614","461309.378162","462076.321576","462842.756716","466743.375735","452893.84017","453660.54305","454426.965205","455193.592958","455960.464954","456726.575466","457476.662342","465987.079808"
"Mixed","both","ball","5","M_ball.wav","None","720.663218293","335","465976.61844","458242.874262","459009.945364","459776.326708","460543.340614","461309.378162","462076.321576","462842.756716","466743.375735","467509.912592","453660.54305","454426.965205","455193.592958","455960.464954","456726.575466","457476.662342","466753.586057"
"Mixed","both","ball","5","M_park.wav","space","585.393844638","335","465976.61844","458242.874262","459009.945364","459776.326708","460543.340614","461309.378162","462076.321576","462842.756716","466743.375735","467509.912592","468276.595376","454426.965205","455193.592958","455960.464954","456726.575466","457476.662342","467520.132498"
"Mixed","both","ball","5","F_depth.wav","None","719.679440837","335","465976.61844","458242.874262","459009.945364","459776.326708","460543.340614","461309.378162","462076.321576","462842.756716","466743.375735","467509.912592","468276.595376","469042.951988","455193.592958","455960.464954","456726.575466","457476.662342","468286.29495"
"Mixed","both","ball","5","F_ball.wav","None","719.203319866","335","465976.61844","458242.874262","459009.945364","459776.326708","460543.340614","461309.378162","462076.321576","462842.756716","466743.375735","467509.912592","468276.595376","469042.951988","469810.095435","455960.464954","456726.575466","457476.662342","469053.067394"
"Mixed","both","ball","5","F_cling.wav","None","718.772955704","335","465976.61844","458242.874262","459009.945364","459776.326708","460543.340614","461309.378162","462076.321576","462842.756716","466743.375735","467509.912592","468276.595376","469042.951988","469810.095435","470576.798934","456726.575466","457476.662342","469820.508263"
"Mixed","both","ball","5","M_jaw.wav","space","110.700912308","335","465976.61844","458242.874262","459009.945364","459776.326708","460543.340614","461309.378162","462076.321576","462842.756716","466743.375735","467509.912592","468276.595376","469042.951988","469810.095435","470576.798934","471325.698909","457476.662342","470586.751099"
