"Condition","Talker","Target","Trial","current_stimulus","response_response","response_time_response","subject_nr","time_Audio1","time_Audio10","time_Audio11","time_Audio12","time_Audio13","time_Audio14","time_Audio15","time_Audio16","time_Audio2","time_Audio3","time_Audio4","time_Audio5","time_Audio6","time_Audio7","time_Audio8","time_Audio9","time_response","title"
"Mixed","Female","ball","8","M_cave.wav","NA","NA","242","209422.383459","NA","NA","NA","NA","NA","NA","NA","NA","NA","NA","NA","NA","NA","NA","NA","NA","Mapping"
"Mixed","Female","ball","8","M_cling.wav","None","718.120610341","242","209422.383459","NA","NA","NA","NA","NA","NA","NA","210188.930796","NA","NA","NA","NA","NA","NA","NA","209436.19268","Mapping"
"Mixed","Female","ball","8","M_depth.wav","None","721.030857647","242","209422.383459","NA","NA","NA","NA","NA","NA","NA","210188.930796","210938.43465","NA","NA","NA","NA","NA","NA","210198.34883","Mapping"
"Mixed","Female","ball","8","F_bluff.wav","None","736.501266132","242","209422.383459","NA","NA","NA","NA","NA","NA","NA","210188.930796","210938.43465","211705.302599","NA","NA","NA","NA","NA","210947.97759","Mapping"
"Mixed","Female","ball","8","M_park.wav","None","734.923864482","242","209422.383459","NA","NA","NA","NA","NA","NA","NA","210188.930796","210938.43465","211705.302599","212471.643407","NA","NA","NA","NA","211714.662199","Mapping"
"Mixed","Female","ball","8","M_knife.wav","None","733.881332562","242","209422.383459","NA","NA","NA","NA","NA","NA","NA","210188.930796","210938.43465","211705.302599","212471.643407","213238.293079","NA","NA","NA","212480.940554","Mapping"
"Mixed","Female","ball","8","F_ball.wav","None","732.521588798","242","209422.383459","NA","NA","NA","NA","NA","NA","NA","210188.930796","210938.43465","211705.302599","212471.643407","213238.293079","214005.535128","NA","NA","213247.632893","Mapping"
"Mixed","Female","ball","8","M_reek.wav","space","498.953912524","242","209422.383459","NA","NA","NA","NA","NA","NA","NA","210188.930796","210938.43465","211705.302599","212471.643407","213238.293079","214005.535128","214772.179544","NA","214014.955326","Mapping"
"Mixed","Female","ball","8","F_ball.wav","None","728.641774273","242","209422.383459","NA","NA","NA","NA","NA","NA","NA","210188.930796","210938.43465","211705.302599","212471.643407","213238.293079","214005.535128","214772.179544","215538.5961","214781.792357","Mapping"
"Mixed","Female","ball","8","M_depth.wav","space","542.234759545","242","209422.383459","216305.462194","NA","NA","NA","NA","NA","NA","210188.930796","210938.43465","211705.302599","212471.643407","213238.293079","214005.535128","214772.179544","215538.5961","215547.64529","Mapping"
"Mixed","Female","ball","8","F_dime.wav","None","725.754405838","242","209422.383459","216305.462194","217072.563877","NA","NA","NA","NA","NA","210188.930796","210938.43465","211705.302599","212471.643407","213238.293079","214005.535128","214772.179544","215538.5961","216315.167141","Mapping"
"Mixed","Female","ball","8","F_ball.wav","None","723.952544387","242","209422.383459","216305.462194","217072.563877","217839.331654","NA","NA","NA","NA","210188.930796","210938.43465","211705.302599","212471.643407","213238.293079","214005.535128","214772.179544","215538.5961","217081.987477","Mapping"
"Mixed","Female","ball","8","M_priest.wav","space","512.862687232","242","209422.383459","216305.462194","217072.563877","217839.331654","218606.164357","NA","NA","NA","210188.930796","210938.43465","211705.302599","212471.643407","213238.293079","214005.535128","214772.179544","215538.5961","217848.97322","Mapping"
"Mixed","Female","ball","8","F_ball.wav","None","720.228553168","242","209422.383459","216305.462194","217072.563877","217839.331654","218606.164357","219372.678612","NA","NA","210188.930796","210938.43465","211705.302599","212471.643407","213238.293079","214005.535128","214772.179544","215538.5961","218615.866212","Mapping"
"Mixed","Female","ball","8","F_cling.wav","space","451.376485522","242","209422.383459","216305.462194","217072.563877","217839.331654","218606.164357","219372.678612","220121.881331","NA","210188.930796","210938.43465","211705.302599","212471.643407","213238.293079","214005.535128","214772.179544","215538.5961","219382.43519","Mapping"
"Mixed","Female","ball","8","F_gnash.wav","None","735.57838425","242","209422.383459","216305.462194","217072.563877","217839.331654","218606.164357","219372.678612","220121.881331","220889.16419","210188.930796","210938.43465","211705.302599","212471.643407","213238.293079","214005.535128","214772.179544","215538.5961","220130.615783","Mapping"
"Mixed","Female","cave","19","M_lash.wav","None","731.941579957","242","224039.122777","216305.462194","217072.563877","217839.331654","218606.164357","219372.678612","220121.881331","220889.16419","210188.930796","210938.43465","211705.302599","212471.643407","213238.293079","214005.535128","214772.179544","215538.5961","220899.36907","Mapping"
"Mixed","Female","cave","19","M_done.wav","None","721.890049987","242","224039.122777","216305.462194","217072.563877","217839.331654","218606.164357","219372.678612","220121.881331","220889.16419","224806.16479","210938.43465","211705.302599","212471.643407","213238.293079","214005.535128","214772.179544","215538.5961","224048.868534","Mapping"
"Mixed","Female","cave","19","F_cave.wav","None","720.253596315","242","224039.122777","216305.462194","217072.563877","217839.331654","218606.164357","219372.678612","220121.881331","220889.16419","224806.16479","225572.518274","211705.302599","212471.643407","213238.293079","214005.535128","214772.179544","215538.5961","224815.878084","Mapping"
"Mixed","Female","cave","19","F_cad.wav","space","507.033226546","242","224039.122777","216305.462194","217072.563877","217839.331654","218606.164357","219372.678612","220121.881331","220889.16419","224806.16479","225572.518274","226322.069741","212471.643407","213238.293079","214005.535128","214772.179544","215538.5961","225582.680488","Mapping"
"Mixed","Female","cave","19","M_cad.wav","None","735.010433011","242","224039.122777","216305.462194","217072.563877","217839.331654","218606.164357","219372.678612","220121.881331","220889.16419","224806.16479","225572.518274","226322.069741","227088.748476","213238.293079","214005.535128","214772.179544","215538.5961","226331.614227","Mapping"
"Mixed","Female","cave","19","F_cave.wav","None","733.801256632","242","224039.122777","216305.462194","217072.563877","217839.331654","218606.164357","219372.678612","220121.881331","220889.16419","224806.16479","225572.518274","226322.069741","227088.748476","227855.583653","214005.535128","214772.179544","215538.5961","227098.010069","Mapping"
"Mixed","Female","cave","19","F_greet.wav","space","488.945666817","242","224039.122777","216305.462194","217072.563877","217839.331654","218606.164357","219372.678612","220121.881331","220889.16419","224806.16479","225572.518274","226322.069741","227088.748476","227855.583653","228622.267952","214772.179544","215538.5961","227864.664069","Mapping"
"Mixed","Female","cave","19","F_priest.wav","None","729.920823826","242","224039.122777","216305.462194","217072.563877","217839.331654","218606.164357","219372.678612","220121.881331","220889.16419","224806.16479","225572.518274","226322.069741","227088.748476","227855.583653","228622.267952","229388.4146","215538.5961","228632.073999","Mapping"
"Mixed","Female","cave","19","F_cave.wav","None","729.656171519","242","224039.122777","216305.462194","217072.563877","217839.331654","218606.164357","219372.678612","220121.881331","220889.16419","224806.16479","225572.518274","226322.069741","227088.748476","227855.583653","228622.267952","229388.4146","230154.917415","229397.576948","Mapping"
"Mixed","Female","cave","19","M_reek.wav","space","525.915361359","242","224039.122777","230922.10103","217072.563877","217839.331654","218606.164357","219372.678612","220121.881331","220889.16419","224806.16479","225572.518274","226322.069741","227088.748476","227855.583653","228622.267952","229388.4146","230154.917415","230163.684021","Mapping"
"Mixed","Female","cave","19","M_knife.wav","None","728.818003088","242","224039.122777","230922.10103","231688.545411","217839.331654","218606.164357","219372.678612","220121.881331","220889.16419","224806.16479","225572.518274","226322.069741","227088.748476","227855.583653","228622.267952","229388.4146","230154.917415","230931.562657","Mapping"
"Mixed","Female","cave","19","M_lash.wav","None","727.458877722","242","224039.122777","230922.10103","231688.545411","232455.500238","218606.164357","219372.678612","220121.881331","220889.16419","224806.16479","225572.518274","226322.069741","227088.748476","227855.583653","228622.267952","229388.4146","230154.917415","231698.078148","Mapping"
"Mixed","Female","cave","19","F_ball.wav","None","725.964334444","242","224039.122777","230922.10103","231688.545411","232455.500238","233221.978628","219372.678612","220121.881331","220889.16419","224806.16479","225572.518274","226322.069741","227088.748476","227855.583653","228622.267952","229388.4146","230154.917415","232464.90745","Mapping"
"Mixed","Female","cave","19","F_cave.wav","None","724.758558907","242","224039.122777","230922.10103","231688.545411","232455.500238","233221.978628","233988.542041","220121.881331","220889.16419","224806.16479","225572.518274","226322.069741","227088.748476","227855.583653","228622.267952","229388.4146","230154.917415","233231.357397","Mapping"
"Mixed","Female","cave","19","M_greet.wav","space","380.144216935","242","224039.122777","230922.10103","231688.545411","232455.500238","233221.978628","233988.542041","234755.562412","220889.16419","224806.16479","225572.518274","226322.069741","227088.748476","227855.583653","228622.267952","229388.4146","230154.917415","233997.368008","Mapping"
"Mixed","Female","cave","19","M_jolt.wav","None","721.123609575","242","224039.122777","230922.10103","231688.545411","232455.500238","233221.978628","233988.542041","234755.562412","235522.644","224806.16479","225572.518274","226322.069741","227088.748476","227855.583653","228622.267952","229388.4146","230154.917415","234765.085874","Mapping"
"Mixed","Female","ball","7","M_done.wav","None","718.727208208","242","238638.949702","230922.10103","231688.545411","232455.500238","233221.978628","233988.542041","234755.562412","235522.644","224806.16479","225572.518274","226322.069741","227088.748476","227855.583653","228622.267952","229388.4146","230154.917415","235532.564131","Mapping"
"Mixed","Female","ball","7","F_ball.wav","None","722.10832627","242","238638.949702","230922.10103","231688.545411","232455.500238","233221.978628","233988.542041","234755.562412","235522.644","239405.18199","225572.518274","226322.069741","227088.748476","227855.583653","228622.267952","229388.4146","230154.917415","238648.379175","Mapping"
"Mixed","Female","ball","7","M_greet.wav","space","435.317720287","242","238638.949702","230922.10103","231688.545411","232455.500238","233221.978628","233988.542041","234755.562412","235522.644","239405.18199","240171.820841","226322.069741","227088.748476","227855.583653","228622.267952","229388.4146","230154.917415","239414.185732","Mapping"
"Mixed","Female","ball","7","M_romp.wav","None","720.209693653","242","238638.949702","230922.10103","231688.545411","232455.500238","233221.978628","233988.542041","234755.562412","235522.644","239405.18199","240171.820841","240921.746099","227088.748476","227855.583653","228622.267952","229388.4146","230154.917415","240180.754401","Mapping"
"Mixed","Female","ball","7","F_ball.wav","None","735.203666263","242","238638.949702","230922.10103","231688.545411","232455.500238","233221.978628","233988.542041","234755.562412","235522.644","239405.18199","240171.820841","240921.746099","241688.576019","227855.583653","228622.267952","229388.4146","230154.917415","240931.12425","Mapping"
"Mixed","Female","ball","7","M_jaw.wav","space","447.498216876","242","238638.949702","230922.10103","231688.545411","232455.500238","233221.978628","233988.542041","234755.562412","235522.644","239405.18199","240171.820841","240921.746099","241688.576019","242455.344105","228622.267952","229388.4146","230154.917415","241697.930055","Mapping"
"Mixed","Female","ball","7","M_reek.wav","None","731.363116764","242","238638.949702","230922.10103","231688.545411","232455.500238","233221.978628","233988.542041","234755.562412","235522.644","239405.18199","240171.820841","240921.746099","241688.576019","242455.344105","243221.831771","229388.4146","230154.917415","242465.322361","Mapping"
"Mixed","Female","ball","7","M_park.wav","None","731.538108899","242","238638.949702","230922.10103","231688.545411","232455.500238","233221.978628","233988.542041","234755.562412","235522.644","239405.18199","240171.820841","240921.746099","241688.576019","242455.344105","243221.831771","243988.362721","230154.917415","243231.167256","Mapping"
"Mixed","Female","ball","7","F_ball.wav","None","730.196297169","242","238638.949702","230922.10103","231688.545411","232455.500238","233221.978628","233988.542041","234755.562412","235522.644","239405.18199","240171.820841","240921.746099","241688.576019","242455.344105","243221.831771","243988.362721","244755.319402","243997.862995","Mapping"
"Mixed","Female","ball","7","F_lash.wav","space","332.987574628","242","238638.949702","245522.116859","231688.545411","232455.500238","233221.978628","233988.542041","234755.562412","235522.644","239405.18199","240171.820841","240921.746099","241688.576019","242455.344105","243221.831771","243988.362721","244755.319402","244764.37694","Mapping"
"Mixed","Female","ball","7","M_bluff.wav","None","726.504150778","242","238638.949702","245522.116859","246288.373264","232455.500238","233221.978628","233988.542041","234755.562412","235522.644","239405.18199","240171.820841","240921.746099","241688.576019","242455.344105","243221.831771","243988.362721","244755.319402","245531.89879","Mapping"
"Mixed","Female","ball","7","M_priest.wav","None","725.97793804","242","238638.949702","245522.116859","246288.373264","247055.515758","233221.978628","233988.542041","234755.562412","235522.644","239405.18199","240171.820841","240921.746099","241688.576019","242455.344105","243221.831771","243988.362721","244755.319402","246297.731627","Mapping"
"Mixed","Female","ball","7","F_ball.wav","None","723.346874118","242","238638.949702","245522.116859","246288.373264","247055.515758","247822.177179","233988.542041","234755.562412","235522.644","239405.18199","240171.820841","240921.746099","241688.576019","242455.344105","243221.831771","243988.362721","244755.319402","247065.675189","Mapping"
"Mixed","Female","ball","7","F_cad.wav","space","584.953529644","242","238638.949702","245522.116859","246288.373264","247055.515758","247822.177179","248588.68896","234755.562412","235522.644","239405.18199","240171.820841","240921.746099","241688.576019","242455.344105","243221.831771","243988.362721","244755.319402","247832.331973","Mapping"
"Mixed","Female","ball","7","F_jolt.wav","None","720.914299367","242","238638.949702","245522.116859","246288.373264","247055.515758","247822.177179","248588.68896","249355.006272","235522.644","239405.18199","240171.820841","240921.746099","241688.576019","242455.344105","243221.831771","243988.362721","244755.319402","248598.283841","Mapping"
"Mixed","Female","ball","7","F_dime.wav","None","720.837006113","242","238638.949702","245522.116859","246288.373264","247055.515758","247822.177179","248588.68896","249355.006272","250105.632115","239405.18199","240171.820841","240921.746099","241688.576019","242455.344105","243221.831771","243988.362721","244755.319402","249364.214995","Mapping"
"Mixed","Female","ball","11","F_cave.wav","None","735.604354762","242","253238.601016","245522.116859","246288.373264","247055.515758","247822.177179","248588.68896","249355.006272","250105.632115","239405.18199","240171.820841","240921.746099","241688.576019","242455.344105","243221.831771","243988.362721","244755.319402","250114.792917","Mapping"
"Mixed","Female","ball","11","M_cling.wav","None","721.889431588","242","253238.601016","245522.116859","246288.373264","247055.515758","247822.177179","248588.68896","249355.006272","250105.632115","254004.904105","240171.820841","240921.746099","241688.576019","242455.344105","243221.831771","243988.362721","244755.319402","253248.391604","Mapping"
"Mixed","Female","ball","11","M_cad.wav","None","721.574075054","242","253238.601016","245522.116859","246288.373264","247055.515758","247822.177179","248588.68896","249355.006272","250105.632115","254004.904105","254771.569855","240921.746099","241688.576019","242455.344105","243221.831771","243988.362721","244755.319402","254014.067999","Mapping"
"Mixed","Female","ball","11","F_ball.wav","None","720.273383311","242","253238.601016","245522.116859","246288.373264","247055.515758","247822.177179","248588.68896","249355.006272","250105.632115","254004.904105","254771.569855","255521.642279","241688.576019","242455.344105","243221.831771","243988.362721","244755.319402","254780.980469","Mapping"
"Mixed","Female","ball","11","F_jolt.wav","space","371.359060402","242","253238.601016","245522.116859","246288.373264","247055.515758","247822.177179","248588.68896","249355.006272","250105.632115","254004.904105","254771.569855","255521.642279","256288.103355","242455.344105","243221.831771","243988.362721","244755.319402","255525.802513","Mapping"
"Mixed","Female","ball","11","M_greet.wav","None","734.335507965","242","253238.601016","245522.116859","246288.373264","247055.515758","247822.177179","248588.68896","249355.006272","250105.632115","254004.904105","254771.569855","255521.642279","256288.103355","257055.061892","243221.831771","243988.362721","244755.319402","256297.225201","Mapping"
"Mixed","Female","ball","11","F_ball.wav","None","732.39699204","242","253238.601016","245522.116859","246288.373264","247055.515758","247822.177179","248588.68896","249355.006272","250105.632115","254004.904105","254771.569855","255521.642279","256288.103355","257055.061892","257821.607373","243988.362721","244755.319402","257064.459211","Mapping"
"Mixed","Female","ball","11","M_priest.wav","space","417.921781074","242","253238.601016","245522.116859","246288.373264","247055.515758","247822.177179","248588.68896","249355.006272","250105.632115","254004.904105","254771.569855","255521.642279","256288.103355","257055.061892","257821.607373","258588.170786","244755.319402","257831.180303","Mapping"
"Mixed","Female","ball","11","M_tile.wav","None","729.534357321","242","253238.601016","245522.116859","246288.373264","247055.515758","247822.177179","248588.68896","249355.006272","250105.632115","254004.904105","254771.569855","255521.642279","256288.103355","257055.061892","257821.607373","258588.170786","259354.656906","258597.978069","Mapping"
"Mixed","Female","ball","11","F_ball.wav","None","729.116355185","242","253238.601016","260121.557009","246288.373264","247055.515758","247822.177179","248588.68896","249355.006272","250105.632115","254004.904105","254771.569855","255521.642279","256288.103355","257055.061892","257821.607373","258588.170786","259354.656906","259363.741033","Mapping"
"Mixed","Female","ball","11","M_cave.wav","space","318.163028918","242","253238.601016","260121.557009","260887.809393","247055.515758","247822.177179","248588.68896","249355.006272","250105.632115","254004.904105","254771.569855","255521.642279","256288.103355","257055.061892","257821.607373","258588.170786","259354.656906","260130.962366","Mapping"
"Mixed","Female","ball","11","F_depth.wav","None","726.445407956","242","253238.601016","260121.557009","260887.809393","261654.613343","247822.177179","248588.68896","249355.006272","250105.632115","254004.904105","254771.569855","255521.642279","256288.103355","257055.061892","257821.607373","258588.170786","259354.656906","260896.89383","Mapping"
"Mixed","Female","ball","11","F_jaw.wav","None","727.162689785","242","253238.601016","260121.557009","260887.809393","261654.613343","262421.173974","248588.68896","249355.006272","250105.632115","254004.904105","254771.569855","255521.642279","256288.103355","257055.061892","257821.607373","258588.170786","259354.656906","261663.792386","Mapping"
"Mixed","Female","ball","11","M_priest.wav","None","726.514353533","242","253238.601016","260121.557009","260887.809393","261654.613343","262421.173974","263188.503827","249355.006272","250105.632115","254004.904105","254771.569855","255521.642279","256288.103355","257055.061892","257821.607373","258588.170786","259354.656906","262429.781356","Mapping"
"Mixed","Female","ball","11","F_ball.wav","None","723.673979403","242","253238.601016","260121.557009","260887.809393","261654.613343","262421.173974","263188.503827","263955.356317","250105.632115","254004.904105","254771.569855","255521.642279","256288.103355","257055.061892","257821.607373","258588.170786","259354.656906","263197.969783","Mapping"
"Mixed","Female","ball","11","M_lash.wav","space","428.028962109","242","253238.601016","260121.557009","260887.809393","261654.613343","262421.173974","263188.503827","263955.356317","264721.796989","254004.904105","254771.569855","255521.642279","256288.103355","257055.061892","257821.607373","258588.170786","259354.656906","263964.990464","Mapping"
"Mixed","Female","tile","31","M_park.wav","None","720.645318623","242","267838.272427","260121.557009","260887.809393","261654.613343","262421.173974","263188.503827","263955.356317","264721.796989","254004.904105","254771.569855","255521.642279","256288.103355","257055.061892","257821.607373","258588.170786","259354.656906","264731.626223","Mapping"
"Mixed","Female","tile","31","F_tile.wav","None","722.257966059","242","267838.272427","260121.557009","260887.809393","261654.613343","262421.173974","263188.503827","263955.356317","264721.796989","268604.672906","254771.569855","255521.642279","256288.103355","257055.061892","257821.607373","258588.170786","259354.656906","267847.777648","Mapping"
"Mixed","Female","tile","31","M_cave.wav","space","547.270572628","242","267838.272427","260121.557009","260887.809393","261654.613343","262421.173974","263188.503827","263955.356317","264721.796989","268604.672906","269371.221478","255521.642279","256288.103355","257055.061892","257821.607373","258588.170786","259354.656906","268613.686541","Mapping"
"Mixed","Female","tile","31","M_priest.wav","None","720.011822763","242","267838.272427","260121.557009","260887.809393","261654.613343","262421.173974","263188.503827","263955.356317","264721.796989","268604.672906","269371.221478","270120.89105","256288.103355","257055.061892","257821.607373","258588.170786","259354.656906","269380.581697","Mapping"
"Mixed","Female","tile","31","F_lash.wav","None","736.580414465","242","267838.272427","260121.557009","260887.809393","261654.613343","262421.173974","263188.503827","263955.356317","264721.796989","268604.672906","269371.221478","270120.89105","270887.892561","257055.061892","257821.607373","258588.170786","259354.656906","270129.499359","Mapping"
"Mixed","Female","tile","31","F_tile.wav","None","734.551620088","242","267838.272427","260121.557009","260887.809393","261654.613343","262421.173974","263188.503827","263955.356317","264721.796989","268604.672906","269371.221478","270120.89105","270887.892561","271654.405888","257821.607373","258588.170786","259354.656906","270896.943606","Mapping"
"Mixed","Female","tile","31","M_jolt.wav","space","497.569434927","242","267838.272427","260121.557009","260887.809393","261654.613343","262421.173974","263188.503827","263955.356317","264721.796989","268604.672906","269371.221478","270120.89105","270887.892561","271654.405888","272421.074729","258588.170786","259354.656906","271663.304511","Mapping"
"Mixed","Female","tile","31","F_tile.wav","None","732.1688222","242","267838.272427","260121.557009","260887.809393","261654.613343","262421.173974","263188.503827","263955.356317","264721.796989","268604.672906","269371.221478","270120.89105","270887.892561","271654.405888","272421.074729","273187.625466","259354.656906","272429.991284","Mapping"
"Mixed","Female","tile","31","M_knife.wav","space","548.082770547","242","267838.272427","260121.557009","260887.809393","261654.613343","262421.173974","263188.503827","263955.356317","264721.796989","268604.672906","269371.221478","270120.89105","270887.892561","271654.405888","272421.074729","273187.625466","273954.380258","273196.765554","Mapping"
"Mixed","Female","tile","31","M_dime.wav","None","729.870737763","242","267838.272427","274721.310969","260887.809393","261654.613343","262421.173974","263188.503827","263955.356317","264721.796989","268604.672906","269371.221478","270120.89105","270887.892561","271654.405888","272421.074729","273187.625466","273954.380258","273963.268987","Mapping"
"Mixed","Female","tile","31","F_reek.wav","None","728.364445968","242","267838.272427","274721.310969","275487.835735","261654.613343","262421.173974","263188.503827","263955.356317","264721.796989","268604.672906","269371.221478","270120.89105","270887.892561","271654.405888","272421.074729","273187.625466","273954.380258","274730.661294","Mapping"
"Mixed","Female","tile","31","F_romp.wav","None","726.878868765","242","267838.272427","274721.310969","275487.835735","276254.236832","262421.173974","263188.503827","263955.356317","264721.796989","268604.672906","269371.221478","270120.89105","270887.892561","271654.405888","272421.074729","273187.625466","273954.380258","275497.698051","Mapping"
"Mixed","Female","tile","31","F_tile.wav","None","727.136409958","242","267838.272427","274721.310969","275487.835735","276254.236832","277021.228141","263188.503827","263955.356317","264721.796989","268604.672906","269371.221478","270120.89105","270887.892561","271654.405888","272421.074729","273187.625466","273954.380258","276263.026317","Mapping"
"Mixed","Female","tile","31","M_park.wav","space","482.013076195","242","267838.272427","274721.310969","275487.835735","276254.236832","277021.228141","277787.826182","263955.356317","264721.796989","268604.672906","269371.221478","270120.89105","270887.892561","271654.405888","272421.074729","273187.625466","273954.380258","277030.758714","Mapping"
"Mixed","Female","tile","31","F_reek.wav","None","724.159381236","242","267838.272427","274721.310969","275487.835735","276254.236832","277021.228141","277787.826182","278554.496569","264721.796989","268604.672906","269371.221478","270120.89105","270887.892561","271654.405888","272421.074729","273187.625466","273954.380258","277796.653386","Mapping"
"Mixed","Female","tile","31","M_knife.wav","None","722.878167522","242","267838.272427","274721.310969","275487.835735","276254.236832","277021.228141","277787.826182","278554.496569","279321.261563","268604.672906","269371.221478","270120.89105","270887.892561","271654.405888","272421.074729","273187.625466","273954.380258","278563.530919","Mapping"
"Mixed","Male","ball","6","M_tile.wav","None","711.84903197","242","282438.542088","274721.310969","275487.835735","276254.236832","277021.228141","277787.826182","278554.496569","279321.261563","268604.672906","269371.221478","270120.89105","270887.892561","271654.405888","272421.074729","273187.625466","273954.380258","279340.168122","Mapping"
"Mixed","Male","ball","6","M_ball.wav","None","720.983554143","242","282438.542088","274721.310969","275487.835735","276254.236832","277021.228141","277787.826182","278554.496569","279321.261563","283205.040884","269371.221478","270120.89105","270887.892561","271654.405888","272421.074729","273187.625466","273954.380258","282448.675239","Mapping"
"Mixed","Male","ball","6","F_reek.wav","space","393.810909009","242","282438.542088","274721.310969","275487.835735","276254.236832","277021.228141","277787.826182","278554.496569","279321.261563","283205.040884","283971.283375","270120.89105","270887.892561","271654.405888","272421.074729","273187.625466","273954.380258","283214.844147","Mapping"
"Mixed","Male","ball","6","F_lash.wav","None","718.760907999","242","282438.542088","274721.310969","275487.835735","276254.236832","277021.228141","277787.826182","278554.496569","279321.261563","283205.040884","283971.283375","284720.740853","270887.892561","271654.405888","272421.074729","273187.625466","273954.380258","283981.341707","Mapping"
"Mixed","Male","ball","6","F_park.wav","None","735.745028593","242","282438.542088","274721.310969","275487.835735","276254.236832","277021.228141","277787.826182","278554.496569","279321.261563","283205.040884","283971.283375","284720.740853","285487.572629","271654.405888","272421.074729","273187.625466","273954.380258","284730.129207","Mapping"
"Mixed","Male","ball","6","F_priest.wav","None","734.470307478","242","282438.542088","274721.310969","275487.835735","276254.236832","277021.228141","277787.826182","278554.496569","279321.261563","283205.040884","283971.283375","284720.740853","285487.572629","286254.512305","272421.074729","273187.625466","273954.380258","285497.037966","Mapping"
"Mixed","Male","ball","6","M_ball.wav","None","738.611991634","242","282438.542088","274721.310969","275487.835735","276254.236832","277021.228141","277787.826182","278554.496569","279321.261563","283205.040884","283971.283375","284720.740853","285487.572629","286254.512305","287021.027179","273187.625466","273954.380258","286258.61658","Mapping"
"Mixed","Male","ball","6","F_lash.wav","space","426.262964727","242","282438.542088","274721.310969","275487.835735","276254.236832","277021.228141","277787.826182","278554.496569","279321.261563","283205.040884","283971.283375","284720.740853","285487.572629","286254.512305","287021.027179","287787.614089","273954.380258","287030.314741","Mapping"
"Mixed","Male","ball","6","M_cad.wav","None","731.067547225","242","282438.542088","274721.310969","275487.835735","276254.236832","277021.228141","277787.826182","278554.496569","279321.261563","283205.040884","283971.283375","284720.740853","285487.572629","286254.512305","287021.027179","287787.614089","288554.078566","287796.934115","Mapping"
"Mixed","Male","ball","6","M_ball.wav","None","731.336218654","242","282438.542088","289321.03432","275487.835735","276254.236832","277021.228141","277787.826182","278554.496569","279321.261563","283205.040884","283971.283375","284720.740853","285487.572629","286254.512305","287021.027179","287787.614089","288554.078566","288563.001923","Mapping"
"Mixed","Male","ball","6","F_done.wav","space","477.663936792","242","282438.542088","289321.03432","290087.261044","276254.236832","277021.228141","277787.826182","278554.496569","279321.261563","283205.040884","283971.283375","284720.740853","285487.572629","286254.512305","287021.027179","287787.614089","288554.078566","289330.916733","Mapping"
"Mixed","Male","ball","6","F_park.wav","None","729.543632595","242","282438.542088","289321.03432","290087.261044","290854.136104","277021.228141","277787.826182","278554.496569","279321.261563","283205.040884","283971.283375","284720.740853","285487.572629","286254.512305","287021.027179","287787.614089","288554.078566","290096.092576","Mapping"
"Mixed","Male","ball","6","F_priest.wav","None","728.031775565","242","282438.542088","289321.03432","290087.261044","290854.136104","291620.939126","277787.826182","278554.496569","279321.261563","283205.040884","283971.283375","284720.740853","285487.572629","286254.512305","287021.027179","287787.614089","288554.078566","290863.113566","Mapping"
"Mixed","Male","ball","6","M_ball.wav","None","726.416654768","242","282438.542088","289321.03432","290087.261044","290854.136104","291620.939126","292387.550152","278554.496569","279321.261563","283205.040884","283971.283375","284720.740853","285487.572629","286254.512305","287021.027179","287787.614089","288554.078566","291630.293779","Mapping"
"Mixed","Male","ball","6","M_bluff.wav","space","347.165639279","242","282438.542088","289321.03432","290087.261044","290854.136104","291620.939126","292387.550152","293154.812296","279321.261563","283205.040884","283971.283375","284720.740853","285487.572629","286254.512305","287021.027179","287787.614089","288554.078566","292397.328991","Mapping"
"Mixed","Male","ball","6","M_gnash.wav","None","723.121796036","242","282438.542088","289321.03432","290087.261044","290854.136104","291620.939126","292387.550152","293154.812296","293921.340154","283205.040884","283971.283375","284720.740853","285487.572629","286254.512305","287021.027179","287787.614089","288554.078566","293164.713877","Mapping"
"Mixed","Female","cave","24","M_park.wav","None","722.278680652","242","297054.839287","289321.03432","290087.261044","290854.136104","291620.939126","292387.550152","293154.812296","293921.340154","283205.040884","283971.283375","284720.740853","285487.572629","286254.512305","287021.027179","287787.614089","288554.078566","293931.227204","Mapping"
"Mixed","Female","cave","24","F_cave.wav","None","720.59183172","242","297054.839287","289321.03432","290087.261044","290854.136104","291620.939126","292387.550152","293154.812296","293921.340154","297821.254297","283971.283375","284720.740853","285487.572629","286254.512305","287021.027179","287787.614089","288554.078566","297064.641933","Mapping"
"Mixed","Female","cave","24","M_park.wav","space","609.324725578","242","297054.839287","289321.03432","290087.261044","290854.136104","291620.939126","292387.550152","293154.812296","293921.340154","297821.254297","298570.965297","284720.740853","285487.572629","286254.512305","287021.027179","287787.614089","288554.078566","297831.056324","Mapping"
"Mixed","Female","cave","24","F_cave.wav","None","735.491506523","242","297054.839287","289321.03432","290087.261044","290854.136104","291620.939126","292387.550152","293154.812296","293921.340154","297821.254297","298570.965297","299337.32311","285487.572629","286254.512305","287021.027179","287787.614089","288554.078566","298580.423524","Mapping"
"Mixed","Female","cave","24","M_tile.wav","space","421.313410974","242","297054.839287","289321.03432","290087.261044","290854.136104","291620.939126","292387.550152","293154.812296","293921.340154","297821.254297","298570.965297","299337.32311","300104.378727","286254.512305","287021.027179","287787.614089","288554.078566","299347.064849","Mapping"
"Mixed","Female","cave","24","F_reek.wav","None","732.501801685","242","297054.839287","289321.03432","290087.261044","290854.136104","291620.939126","292387.550152","293154.812296","293921.340154","297821.254297","298570.965297","299337.32311","300104.378727","300870.820635","287021.027179","287787.614089","288554.078566","300113.996796","Mapping"
"Mixed","Female","cave","24","M_bluff.wav","None","731.796577689","242","297054.839287","289321.03432","290087.261044","290854.136104","291620.939126","292387.550152","293154.812296","293921.340154","297821.254297","298570.965297","299337.32311","300104.378727","300870.820635","301637.246157","287787.614089","288554.078566","300880.256292","Mapping"
"Mixed","Female","cave","24","M_knife.wav","None","731.708154082","242","297054.839287","289321.03432","290087.261044","290854.136104","291620.939126","292387.550152","293154.812296","293921.340154","297821.254297","298570.965297","299337.32311","300104.378727","300870.820635","301637.246157","302404.271475","288554.078566","301646.205997","Mapping"
"Mixed","Female","cave","24","F_romp.wav","None","729.921442107","242","297054.839287","289321.03432","290087.261044","290854.136104","291620.939126","292387.550152","293154.812296","293921.340154","297821.254297","298570.965297","299337.32311","300104.378727","300870.820635","301637.246157","302404.271475","303170.811082","302413.655809","Mapping"
"Mixed","Female","cave","24","M_knife.wav","None","728.918793495","242","297054.839287","303937.315443","290087.261044","290854.136104","291620.939126","292387.550152","293154.812296","293921.340154","297821.254297","298570.965297","299337.32311","300104.378727","300870.820635","301637.246157","302404.271475","303170.811082","303180.4443","Mapping"
"Mixed","Female","cave","24","F_cave.wav","None","728.019408649","242","297054.839287","303937.315443","304703.838664","290854.136104","291620.939126","292387.550152","293154.812296","293921.340154","297821.254297","298570.965297","299337.32311","300104.378727","300870.820635","301637.246157","302404.271475","303170.811082","303946.950517","Mapping"
"Mixed","Female","cave","24","M_reek.wav","space","367.339499644","242","297054.839287","303937.315443","304703.838664","305470.785761","291620.939126","292387.550152","293154.812296","293921.340154","297821.254297","298570.965297","299337.32311","300104.378727","300870.820635","301637.246157","302404.271475","303170.811082","304712.977823","Mapping"
"Mixed","Female","cave","24","F_cave.wav","None","725.20376835","242","297054.839287","303937.315443","304703.838664","305470.785761","306237.32815","292387.550152","293154.812296","293921.340154","297821.254297","298570.965297","299337.32311","300104.378727","300870.820635","301637.246157","302404.271475","303170.811082","305480.505238","Mapping"
"Mixed","Female","cave","24","F_greet.wav","None","725.109779625","242","297054.839287","303937.315443","304703.838664","305470.785761","306237.32815","307004.623685","293154.812296","293921.340154","297821.254297","298570.965297","299337.32311","300104.378727","300870.820635","301637.246157","302404.271475","303170.811082","306246.230483","Mapping"
"Mixed","Female","cave","24","M_cad.wav","space","9.70618345309","242","297054.839287","303937.315443","304703.838664","305470.785761","306237.32815","307004.623685","307771.092182","293921.340154","297821.254297","298570.965297","299337.32311","300104.378727","300870.820635","301637.246157","302404.271475","303170.811082","307014.584627","Mapping"
"Mixed","Female","cave","24","F_greet.wav","None","721.19471943","242","297054.839287","303937.315443","304703.838664","305470.785761","306237.32815","307004.623685","307771.092182","308537.624369","297821.254297","298570.965297","299337.32311","300104.378727","300870.820635","301637.246157","302404.271475","303170.811082","307781.145876","Mapping"
"Mixed","Female","cave","21","M_gnash.wav","space","684.558313573","242","311654.338179","303937.315443","304703.838664","305470.785761","306237.32815","307004.623685","307771.092182","308537.624369","297821.254297","298570.965297","299337.32311","300104.378727","300870.820635","301637.246157","302404.271475","303170.811082","308555.657514","Mapping"
"Mixed","Female","cave","21","F_cave.wav","None","720.862667426","242","311654.338179","303937.315443","304703.838664","305470.785761","306237.32815","307004.623685","307771.092182","308537.624369","312420.496266","298570.965297","299337.32311","300104.378727","300870.820635","301637.246157","302404.271475","303170.811082","311664.33313","Mapping"
"Mixed","Female","cave","21","F_reek.wav","space","482.25979635","242","311654.338179","303937.315443","304703.838664","305470.785761","306237.32815","307004.623685","307771.092182","308537.624369","312420.496266","313171.081918","299337.32311","300104.378727","300870.820635","301637.246157","302404.271475","303170.811082","312429.931923","Mapping"
"Mixed","Female","cave","21","F_cave.wav","None","735.057118232","242","311654.338179","303937.315443","304703.838664","305470.785761","306237.32815","307004.623685","307771.092182","308537.624369","312420.496266","313171.081918","313937.075215","300104.378727","300870.820635","301637.246157","302404.271475","303170.811082","313180.806651","Mapping"
"Mixed","Female","cave","21","M_ball.wav","space","467.66496636","242","311654.338179","303937.315443","304703.838664","305470.785761","306237.32815","307004.623685","307771.092182","308537.624369","312420.496266","313171.081918","313937.075215","314704.061577","300870.820635","301637.246157","302404.271475","303170.811082","313948.481542","Mapping"
"Mixed","Female","cave","21","M_jaw.wav","None","732.668446028","242","311654.338179","303937.315443","304703.838664","305470.785761","306237.32815","307004.623685","307771.092182","308537.624369","312420.496266","313171.081918","313937.075215","314704.061577","315470.582325","301637.246157","302404.271475","303170.811082","314713.789094","Mapping"
"Mixed","Female","cave","21","M_depth.wav","None","731.694859569","242","311654.338179","303937.315443","304703.838664","305470.785761","306237.32815","307004.623685","307771.092182","308537.624369","312420.496266","313171.081918","313937.075215","314704.061577","315470.582325","316237.20108","302404.271475","303170.811082","315480.469993","Mapping"
"Mixed","Female","cave","21","M_greet.wav","None","731.357551762","242","311654.338179","303937.315443","304703.838664","305470.785761","306237.32815","307004.623685","307771.092182","308537.624369","312420.496266","313171.081918","313937.075215","314704.061577","315470.582325","316237.20108","317003.548381","303170.811082","316246.590979","Mapping"
"Mixed","Female","cave","21","F_cave.wav","None","736.669765553","242","311654.338179","303937.315443","304703.838664","305470.785761","306237.32815","307004.623685","307771.092182","308537.624369","312420.496266","313171.081918","313937.075215","314704.061577","315470.582325","316237.20108","317003.548381","317770.117668","317007.055332","Mapping"
"Mixed","Female","cave","21","F_romp.wav","space","421.101318207","242","311654.338179","318536.811862","304703.838664","305470.785761","306237.32815","307004.623685","307771.092182","308537.624369","312420.496266","313171.081918","313937.075215","314704.061577","315470.582325","316237.20108","317003.548381","317770.117668","317778.95693","Mapping"
"Mixed","Female","cave","21","M_greet.wav","None","728.896223824","242","311654.338179","318536.811862","319303.933332","305470.785761","306237.32815","307004.623685","307771.092182","308537.624369","312420.496266","313171.081918","313937.075215","314704.061577","315470.582325","316237.20108","317003.548381","317770.117668","318546.025841","Mapping"
"Mixed","Female","cave","21","F_romp.wav","None","726.608033059","242","311654.338179","318536.811862","319303.933332","320070.033604","306237.32815","307004.623685","307771.092182","308537.624369","312420.496266","313171.081918","313937.075215","314704.061577","315470.582325","316237.20108","317003.548381","317770.117668","319314.089672","Mapping"
"Mixed","Female","cave","21","F_greet.wav","None","727.131463238","242","311654.338179","318536.811862","319303.933332","320070.033604","320837.753325","307004.623685","307771.092182","308537.624369","312420.496266","313171.081918","313937.075215","314704.061577","315470.582325","316237.20108","317003.548381","317770.117668","320079.290559","Mapping"
"Mixed","Female","cave","21","M_bluff.wav","None","724.698888487","242","311654.338179","318536.811862","319303.933332","320070.033604","320837.753325","321603.868746","307771.092182","308537.624369","312420.496266","313171.081918","313937.075215","314704.061577","315470.582325","316237.20108","317003.548381","317770.117668","320847.497846","Mapping"
"Mixed","Female","cave","21","F_cave.wav","None","724.421250983","242","311654.338179","318536.811862","319303.933332","320070.033604","320837.753325","321603.868746","322370.992381","308537.624369","312420.496266","313171.081918","313937.075215","314704.061577","315470.582325","316237.20108","317003.548381","317770.117668","321613.445386","Mapping"
"Mixed","Female","cave","21","M_greet.wav","space","466.655515833","242","311654.338179","318536.811862","319303.933332","320070.033604","320837.753325","321603.868746","322370.992381","323137.398116","312420.496266","313171.081918","313937.075215","314704.061577","315470.582325","316237.20108","317003.548381","317770.117668","322381.305162","Mapping"
"Mixed","Male","tile","26","M_reek.wav","None","720.33212625","242","326270.574162","318536.811862","319303.933332","320070.033604","320837.753325","321603.868746","322370.992381","323137.398116","312420.496266","313171.081918","313937.075215","314704.061577","315470.582325","316237.20108","317003.548381","317770.117668","323148.253187","Mapping"
"Mixed","Male","tile","26","M_tile.wav","None","720.270291553","242","326270.574162","318536.811862","319303.933332","320070.033604","320837.753325","321603.868746","322370.992381","323137.398116","327037.281032","313171.081918","313937.075215","314704.061577","315470.582325","316237.20108","317003.548381","317770.117668","326280.762965","Mapping"
"Mixed","Male","tile","26","M_ball.wav","space","647.776287282","242","326270.574162","318536.811862","319303.933332","320070.033604","320837.753325","321603.868746","322370.992381","323137.398116","327037.281032","327786.971627","313937.075215","314704.061577","315470.582325","316237.20108","317003.548381","317770.117668","327048.071486","Mapping"
"Mixed","Male","tile","26","F_jolt.wav","None","734.994974453","242","326270.574162","318536.811862","319303.933332","320070.033604","320837.753325","321603.868746","322370.992381","323137.398116","327037.281032","327786.971627","328553.286465","314704.061577","315470.582325","316237.20108","317003.548381","317770.117668","327796.79746","Mapping"
"Mixed","Male","tile","26","F_dime.wav","None","739.382760483","242","326270.574162","318536.811862","319303.933332","320070.033604","320837.753325","321603.868746","322370.992381","323137.398116","327037.281032","327786.971627","328553.286465","329320.309309","315470.582325","316237.20108","317003.548381","317770.117668","328558.75512","Mapping"
"Mixed","Male","tile","26","M_tile.wav","None","734.291296219","242","326270.574162","318536.811862","319303.933332","320070.033604","320837.753325","321603.868746","322370.992381","323137.398116","327037.281032","327786.971627","328553.286465","329320.309309","330086.523047","316237.20108","317003.548381","317770.117668","329329.804018","Mapping"
"Mixed","Male","tile","26","F_gnash.wav","space","470.015919302","242","326270.574162","318536.811862","319303.933332","320070.033604","320837.753325","321603.868746","322370.992381","323137.398116","327037.281032","327786.971627","328553.286465","329320.309309","330086.523047","330853.377083","317003.548381","317770.117668","330097.808178","Mapping"
"Mixed","Male","tile","26","F_cad.wav","None","732.921968098","242","326270.574162","318536.811862","319303.933332","320070.033604","320837.753325","321603.868746","322370.992381","323137.398116","327037.281032","327786.971627","328553.286465","329320.309309","330086.523047","330853.377083","331620.290481","317770.117668","330862.392883","Mapping"
"Mixed","Male","tile","26","F_romp.wav","None","730.893791886","242","326270.574162","318536.811862","319303.933332","320070.033604","320837.753325","321603.868746","322370.992381","323137.398116","327037.281032","327786.971627","328553.286465","329320.309309","330086.523047","330853.377083","331620.290481","332386.630361","331630.488249","Mapping"
"Mixed","Male","tile","26","F_knife.wav","None","731.45184957","242","326270.574162","333153.357018","319303.933332","320070.033604","320837.753325","321603.868746","322370.992381","323137.398116","327037.281032","327786.971627","328553.286465","329320.309309","330086.523047","330853.377083","331620.290481","332386.630361","332395.86351","Mapping"
"Mixed","Male","tile","26","M_done.wav","None","730.373453349","242","326270.574162","333153.357018","333920.206107","320070.033604","320837.753325","321603.868746","322370.992381","323137.398116","327037.281032","327786.971627","328553.286465","329320.309309","330086.523047","330853.377083","331620.290481","332386.630361","333162.799477","Mapping"
"Mixed","Male","tile","26","M_tile.wav","None","729.197976878","242","326270.574162","333153.357018","333920.206107","334686.526819","320837.753325","321603.868746","322370.992381","323137.398116","327037.281032","327786.971627","328553.286465","329320.309309","330086.523047","330853.377083","331620.290481","332386.630361","333929.834379","Mapping"
"Mixed","Male","tile","26","F_romp.wav","space","503.898519557","242","326270.574162","333153.357018","333920.206107","334686.526819","335453.608407","321603.868746","322370.992381","323137.398116","327037.281032","327786.971627","328553.286465","329320.309309","330086.523047","330853.377083","331620.290481","332386.630361","334695.837261","Mapping"
"Mixed","Male","tile","26","M_tile.wav","None","726.860009134","242","326270.574162","333153.357018","333920.206107","334686.526819","335453.608407","336220.127299","322370.992381","323137.398116","327037.281032","327786.971627","328553.286465","329320.309309","330086.523047","330853.377083","331620.290481","332386.630361","335463.399922","Mapping"
"Mixed","Male","tile","26","M_dime.wav","space","640.99024469","242","326270.574162","333153.357018","333920.206107","334686.526819","335453.608407","336220.127299","336986.791503","323137.398116","327037.281032","327786.971627","328553.286465","329320.309309","330086.523047","330853.377083","331620.290481","332386.630361","336230.740906","Mapping"
"Mixed","Male","tile","26","F_bluff.wav","None","725.145025412","242","326270.574162","333153.357018","333920.206107","334686.526819","335453.608407","336220.127299","336986.791503","337753.628534","327037.281032","327786.971627","328553.286465","329320.309309","330086.523047","330853.377083","331620.290481","332386.630361","336996.707305","Mapping"
"Mixed","Female","done","48","F_jaw.wav","None","724.901397014","242","340887.008944","333153.357018","333920.206107","334686.526819","335453.608407","336220.127299","336986.791503","337753.628534","327037.281032","327786.971627","328553.286465","329320.309309","330086.523047","330853.377083","331620.290481","332386.630361","337762.802012","Mapping"
"Mixed","Female","done","48","F_done.wav","None","721.440202906","242","340887.008944","333153.357018","333920.206107","334686.526819","335453.608407","336220.127299","336986.791503","337753.628534","341653.893897","327786.971627","328553.286465","329320.309309","330086.523047","330853.377083","331620.290481","332386.630361","340897.140241","Mapping"
"Mixed","Female","done","48","F_dime.wav","space","399.648408173","242","340887.008944","333153.357018","333920.206107","334686.526819","335453.608407","336220.127299","336986.791503","337753.628534","341653.893897","342419.98273","328553.286465","329320.309309","330086.523047","330853.377083","331620.290481","332386.630361","341663.97789","Mapping"
"Mixed","Female","done","48","F_done.wav","None","720.026044757","242","340887.008944","333153.357018","333920.206107","334686.526819","335453.608407","336220.127299","336986.791503","337753.628534","341653.893897","342419.98273","343170.223344","329320.309309","330086.523047","330853.377083","331620.290481","332386.630361","342429.500627","Mapping"
"Mixed","Female","done","48","M_depth.wav","space","395.882060286","242","340887.008944","333153.357018","333920.206107","334686.526819","335453.608407","336220.127299","336986.791503","337753.628534","341653.893897","342419.98273","343170.223344","343936.704517","330086.523047","330853.377083","331620.290481","332386.630361","343179.713415","Mapping"
"Mixed","Female","done","48","F_done.wav","None","733.653781121","242","340887.008944","333153.357018","333920.206107","334686.526819","335453.608407","336220.127299","336986.791503","337753.628534","341653.893897","342419.98273","343170.223344","343936.704517","344703.070368","330853.377083","331620.290481","332386.630361","343946.631141","Mapping"
"Mixed","Female","done","48","M_reek.wav","space","559.343476896","242","340887.008944","333153.357018","333920.206107","334686.526819","335453.608407","336220.127299","336986.791503","337753.628534","341653.893897","342419.98273","343170.223344","343936.704517","344703.070368","345470.096614","331620.290481","332386.630361","344712.225605","Mapping"
"Mixed","Female","done","48","F_gnash.wav","None","730.867202976","242","340887.008944","333153.357018","333920.206107","334686.526819","335453.608407","336220.127299","336986.791503","337753.628534","341653.893897","342419.98273","343170.223344","343936.704517","344703.070368","345470.096614","346236.44546","332386.630361","345480.104241","Mapping"
"Mixed","Female","done","48","M_priest.wav","None","731.298190542","242","340887.008944","333153.357018","333920.206107","334686.526819","335453.608407","336220.127299","336986.791503","337753.628534","341653.893897","342419.98273","343170.223344","343936.704517","344703.070368","345470.096614","346236.44546","347003.480672","346245.58462","Mapping"
"Mixed","Female","done","48","F_done.wav","None","729.647823842","242","340887.008944","347769.993999","333920.206107","334686.526819","335453.608407","336220.127299","336986.791503","337753.628534","341653.893897","342419.98273","343170.223344","343936.704517","344703.070368","345470.096614","346236.44546","347003.480672","347013.176962","Mapping"
"Mixed","Female","done","48","M_depth.wav","space","408.985748072","242","340887.008944","347769.993999","348536.533297","334686.526819","335453.608407","336220.127299","336986.791503","337753.628534","341653.893897","342419.98273","343170.223344","343936.704517","344703.070368","345470.096614","346236.44546","347003.480672","347774.535753","Mapping"
"Mixed","Female","done","48","M_dime.wav","None","728.041359922","242","340887.008944","347769.993999","348536.533297","349303.387951","335453.608407","336220.127299","336986.791503","337753.628534","341653.893897","342419.98273","343170.223344","343936.704517","344703.070368","345470.096614","346236.44546","347003.480672","348545.931543","Mapping"
"Mixed","Female","done","48","F_romp.wav","None","725.875292555","242","340887.008944","347769.993999","348536.533297","349303.387951","350069.848718","336220.127299","336986.791503","337753.628534","341653.893897","342419.98273","343170.223344","343936.704517","344703.070368","345470.096614","346236.44546","347003.480672","349313.998775","Mapping"
"Mixed","Female","done","48","M_depth.wav","None","726.006381912","242","340887.008944","347769.993999","348536.533297","349303.387951","350069.848718","350836.529927","336986.791503","337753.628534","341653.893897","342419.98273","343170.223344","343936.704517","344703.070368","345470.096614","346236.44546","347003.480672","350079.88077","Mapping"
"Mixed","Female","done","48","M_park.wav","None","725.667219027","242","340887.008944","347769.993999","348536.533297","349303.387951","350069.848718","350836.529927","351603.411479","337753.628534","341653.893897","342419.98273","343170.223344","343936.704517","344703.070368","345470.096614","346236.44546","347003.480672","350846.151087","Mapping"
"Mixed","Female","done","48","M_priest.wav","None","724.869242986","242","340887.008944","347769.993999","348536.533297","349303.387951","350069.848718","350836.529927","351603.411479","352369.503403","341653.893897","342419.98273","343170.223344","343936.704517","344703.070368","345470.096614","346236.44546","347003.480672","351612.902478","Mapping"
"Mixed","Female","tile","36","F_jaw.wav","None","724.909744691","242","355503.682407","347769.993999","348536.533297","349303.387951","350069.848718","350836.529927","351603.411479","352369.503403","341653.893897","342419.98273","343170.223344","343936.704517","344703.070368","345470.096614","346236.44546","347003.480672","352378.828376","Mapping"
"Mixed","Female","tile","36","F_dime.wav","None","722.08050068","242","355503.682407","347769.993999","348536.533297","349303.387951","350069.848718","350836.529927","351603.411479","352369.503403","356269.571514","342419.98273","343170.223344","343936.704517","344703.070368","345470.096614","346236.44546","347003.480672","355513.489072","Mapping"
"Mixed","Female","tile","36","M_romp.wav","None","722.864254727","242","355503.682407","347769.993999","348536.533297","349303.387951","350069.848718","350836.529927","351603.411479","352369.503403","356269.571514","357036.35444","343170.223344","343936.704517","344703.070368","345470.096614","346236.44546","347003.480672","356278.837744","Mapping"
"Mixed","Female","tile","36","F_tile.wav","None","722.862090566","242","355503.682407","347769.993999","348536.533297","349303.387951","350069.848718","350836.529927","351603.411479","352369.503403","356269.571514","357036.35444","357803.12469","343936.704517","344703.070368","345470.096614","346236.44546","347003.480672","357045.505657","Mapping"
"Mixed","Female","tile","36","M_cling.wav","space","563.005633536","242","355503.682407","347769.993999","348536.533297","349303.387951","350069.848718","350836.529927","351603.411479","352369.503403","356269.571514","357036.35444","357803.12469","358570.17165","344703.070368","345470.096614","346236.44546","347003.480672","357812.305897","Mapping"
"Mixed","Female","tile","36","M_gnash.wav","None","723.633477581","242","355503.682407","347769.993999","348536.533297","349303.387951","350069.848718","350836.529927","351603.411479","352369.503403","356269.571514","357036.35444","357803.12469","358570.17165","359336.219362","345470.096614","346236.44546","347003.480672","358576.461779","Mapping"
"Mixed","Female","tile","36","M_cling.wav","None","720.966858789","242","355503.682407","347769.993999","348536.533297","349303.387951","350069.848718","350836.529927","351603.411479","352369.503403","356269.571514","357036.35444","357803.12469","358570.17165","359336.219362","360103.561892","346236.44546","347003.480672","359345.280301","Mapping"
"Mixed","Female","tile","36","M_park.wav","None","718.570766505","242","355503.682407","347769.993999","348536.533297","349303.387951","350069.848718","350836.529927","351603.411479","352369.503403","356269.571514","357036.35444","357803.12469","358570.17165","359336.219362","360103.561892","360870.080165","347003.480672","360113.986284","Mapping"
"Mixed","Female","tile","36","F_tile.wav","None","718.55190699","242","355503.682407","347769.993999","348536.533297","349303.387951","350069.848718","350836.529927","351603.411479","352369.503403","356269.571514","357036.35444","357803.12469","358570.17165","359336.219362","360103.561892","360870.080165","361619.524349","360880.171579","Mapping"
"Mixed","Female","tile","36","F_gnash.wav","space","640.851425938","242","355503.682407","362386.243895","348536.533297","349303.387951","350069.848718","350836.529927","351603.411479","352369.503403","356269.571514","357036.35444","357803.12469","358570.17165","359336.219362","360103.561892","360870.080165","361619.524349","361630.429816","Mapping"
"Mixed","Female","tile","36","F_tile.wav","None","733.52052737","242","355503.682407","362386.243895","363152.657668","349303.387951","350069.848718","350836.529927","351603.411479","352369.503403","356269.571514","357036.35444","357803.12469","358570.17165","359336.219362","360103.561892","360870.080165","361619.524349","362396.274092","Mapping"
"Mixed","Female","tile","36","F_romp.wav","space","651.427622768","242","355503.682407","362386.243895","363152.657668","363919.70401","350069.848718","350836.529927","351603.411479","352369.503403","356269.571514","357036.35444","357803.12469","358570.17165","359336.219362","360103.561892","360870.080165","361619.524349","363163.804908","Mapping"
"Mixed","Female","tile","36","F_tile.wav","None","731.482766801","242","355503.682407","362386.243895","363152.657668","363919.70401","364686.23125","350836.529927","351603.411479","352369.503403","356269.571514","357036.35444","357803.12469","358570.17165","359336.219362","360103.561892","360870.080165","361619.524349","363929.486559","Mapping"
"Mixed","Female","tile","36","M_done.wav","space","527.805646299","242","355503.682407","362386.243895","363152.657668","363919.70401","364686.23125","365453.117749","351603.411479","352369.503403","356269.571514","357036.35444","357803.12469","358570.17165","359336.219362","360103.561892","360870.080165","361619.524349","364695.324034","Mapping"
"Mixed","Female","tile","36","M_bluff.wav","None","730.060879258","242","355503.682407","362386.243895","363152.657668","363919.70401","364686.23125","365453.117749","366219.256049","352369.503403","356269.571514","357036.35444","357803.12469","358570.17165","359336.219362","360103.561892","360870.080165","361619.524349","365462.170031","Mapping"
"Mixed","Female","tile","36","M_knife.wav","None","730.02346931","242","355503.682407","362386.243895","363152.657668","363919.70401","364686.23125","365453.117749","366219.256049","366986.222315","356269.571514","357036.35444","357803.12469","358570.17165","359336.219362","360103.561892","360870.080165","361619.524349","366228.365837","Mapping"
"Mixed","Male","ball","5","F_bluff.wav","None","726.44417116","242","370119.804615","362386.243895","363152.657668","363919.70401","364686.23125","365453.117749","366219.256049","366986.222315","356269.571514","357036.35444","357803.12469","358570.17165","359336.219362","360103.561892","360870.080165","361619.524349","366998.597281","Mapping"
"Mixed","Male","ball","5","M_ball.wav","None","721.014780574","242","370119.804615","362386.243895","363152.657668","363919.70401","364686.23125","365453.117749","366219.256049","366986.222315","370886.346077","357036.35444","357803.12469","358570.17165","359336.219362","360103.561892","360870.080165","361619.524349","370130.316504","Mapping"
"Mixed","Male","ball","5","F_greet.wav","space","614.777304116","242","370119.804615","362386.243895","363152.657668","363919.70401","364686.23125","365453.117749","366219.256049","366986.222315","370886.346077","371653.321618","357803.12469","358570.17165","359336.219362","360103.561892","360870.080165","361619.524349","370896.350303","Mapping"
"Mixed","Male","ball","5","M_knife.wav","None","718.935281737","242","370119.804615","362386.243895","363152.657668","363919.70401","364686.23125","365453.117749","366219.256049","366986.222315","370886.346077","371653.321618","372420.267787","358570.17165","359336.219362","360103.561892","360870.080165","361619.524349","371663.613684","Mapping"
"Mixed","Male","ball","5","M_priest.wav","None","718.246443896","242","370119.804615","362386.243895","363152.657668","363919.70401","364686.23125","365453.117749","366219.256049","366986.222315","370886.346077","371653.321618","372420.267787","373169.20029","359336.219362","360103.561892","360870.080165","361619.524349","372430.409287","Mapping"
"Mixed","Male","ball","5","M_ball.wav","None","736.321945791","242","370119.804615","362386.243895","363152.657668","363919.70401","364686.23125","365453.117749","366219.256049","366986.222315","370886.346077","371653.321618","372420.267787","373169.20029","373935.996201","360103.561892","360870.080165","361619.524349","373178.463737","Mapping"
"Mixed","Male","ball","5","M_jaw.wav","space","549.407577724","242","370119.804615","362386.243895","363152.657668","363919.70401","364686.23125","365453.117749","366219.256049","366986.222315","370886.346077","371653.321618","372420.267787","373169.20029","373935.996201","374702.500562","360870.080165","361619.524349","373945.667448","Mapping"
"Mixed","Male","ball","5","M_ball.wav","None","732.433165307","242","370119.804615","362386.243895","363152.657668","363919.70401","364686.23125","365453.117749","366219.256049","366986.222315","370886.346077","371653.321618","372420.267787","373169.20029","373935.996201","374702.500562","375470.009427","361619.524349","374713.495688","Mapping"
"Mixed","Male","ball","5","F_lash.wav","space","351.305777556","242","370119.804615","362386.243895","363152.657668","363919.70401","364686.23125","365453.117749","366219.256049","366986.222315","370886.346077","371653.321618","372420.267787","373169.20029","373935.996201","374702.500562","375470.009427","376236.089911","375479.744672","Mapping"
"Mixed","Male","ball","5","F_gnash.wav","None","730.987162213","242","370119.804615","377002.939619","363152.657668","363919.70401","364686.23125","365453.117749","366219.256049","366986.222315","370886.346077","371653.321618","372420.267787","373169.20029","373935.996201","374702.500562","375470.009427","376236.089911","376245.903069","Mapping"
"Mixed","Male","ball","5","M_tile.wav","None","730.609661667","242","370119.804615","377002.939619","377769.100798","363919.70401","364686.23125","365453.117749","366219.256049","366986.222315","370886.346077","371653.321618","372420.267787","373169.20029","373935.996201","374702.500562","375470.009427","376236.089911","377012.630344","Mapping"
"Mixed","Male","ball","5","M_ball.wav","None","731.527906144","242","370119.804615","377002.939619","377769.100798","378535.982041","364686.23125","365453.117749","366219.256049","366986.222315","370886.346077","371653.321618","372420.267787","373169.20029","373935.996201","374702.500562","375470.009427","376236.089911","377777.865549","Mapping"
"Mixed","Male","ball","5","F_dime.wav","space","349.812161759","242","370119.804615","377002.939619","377769.100798","378535.982041","379302.877506","365453.117749","366219.256049","366986.222315","370886.346077","371653.321618","372420.267787","373169.20029","373935.996201","374702.500562","375470.009427","376236.089911","378545.129857","Mapping"
"Mixed","Male","ball","5","F_romp.wav","None","727.615628508","242","370119.804615","377002.939619","377769.100798","378535.982041","379302.877506","380069.520377","366219.256049","366986.222315","370886.346077","371653.321618","372420.267787","373169.20029","373935.996201","374702.500562","375470.009427","376236.089911","379313.352603","Mapping"
"Mixed","Male","ball","5","F_greet.wav","None","727.220195928","242","370119.804615","377002.939619","377769.100798","378535.982041","379302.877506","380069.520377","380835.827485","366986.222315","370886.346077","371653.321618","372420.267787","373169.20029","373935.996201","374702.500562","375470.009427","376236.089911","380079.839341","Mapping"
"Mixed","Male","ball","5","F_lash.wav","None","728.311268147","242","370119.804615","377002.939619","377769.100798","378535.982041","379302.877506","380069.520377","380835.827485","381602.846619","370886.346077","371653.321618","372420.267787","373169.20029","373935.996201","374702.500562","375470.009427","376236.089911","380844.973756","Mapping"
"Mixed","Male","ball","1","F_cave.wav","None","727.09807253","242","384736.307724","377002.939619","377769.100798","378535.982041","379302.877506","380069.520377","380835.827485","381602.846619","370886.346077","371653.321618","372420.267787","373169.20029","373935.996201","374702.500562","375470.009427","376236.089911","381612.333599","Mapping"
"Mixed","Male","ball","1","M_done.wav","None","721.898706863","242","384736.307724","377002.939619","377769.100798","378535.982041","379302.877506","380069.520377","380835.827485","381602.846619","385503.204116","371653.321618","372420.267787","373169.20029","373935.996201","374702.500562","375470.009427","376236.089911","384746.118717","Mapping"
"Mixed","Male","ball","1","M_ball.wav","None","721.063011675","242","384736.307724","377002.939619","377769.100798","378535.982041","379302.877506","380069.520377","380835.827485","381602.846619","385503.204116","386269.038808","372420.267787","373169.20029","373935.996201","374702.500562","375470.009427","376236.089911","385513.333249","Mapping"
"Mixed","Male","ball","1","F_park.wav","space","424.058559816","242","384736.307724","377002.939619","377769.100798","378535.982041","379302.877506","380069.520377","380835.827485","381602.846619","385503.204116","386269.038808","387035.811532","373169.20029","373935.996201","374702.500562","375470.009427","376236.089911","386278.809609","Mapping"
"Mixed","Male","ball","1","M_ball.wav","None","720.470945002","242","384736.307724","377002.939619","377769.100798","378535.982041","379302.877506","380069.520377","380835.827485","381602.846619","385503.204116","386269.038808","387035.811532","387802.982779","373935.996201","374702.500562","375470.009427","376236.089911","387045.245952","Mapping"
"Mixed","Male","ball","1","F_tile.wav","space","489.19331457","242","384736.307724","377002.939619","377769.100798","378535.982041","379302.877506","380069.520377","380835.827485","381602.846619","385503.204116","386269.038808","387035.811532","387802.982779","388568.843133","374702.500562","375470.009427","376236.089911","387813.554339","Mapping"
"Mixed","Male","ball","1","F_park.wav","None","725.48882605","242","384736.307724","377002.939619","377769.100798","378535.982041","379302.877506","380069.520377","380835.827485","381602.846619","385503.204116","386269.038808","387035.811532","387802.982779","388568.843133","389336.512458","375470.009427","376236.089911","388574.387226","Mapping"
"Mixed","Male","ball","1","F_done.wav","None","719.569395878","242","384736.307724","377002.939619","377769.100798","378535.982041","379302.877506","380069.520377","380835.827485","381602.846619","385503.204116","386269.038808","387035.811532","387802.982779","388568.843133","389336.512458","390102.915411","376236.089911","389346.635716","Mapping"
"Mixed","Male","ball","1","M_tile.wav","None","717.696115491","242","384736.307724","377002.939619","377769.100798","378535.982041","379302.877506","380069.520377","380835.827485","381602.846619","385503.204116","386269.038808","387035.811532","387802.982779","388568.843133","389336.512458","390102.915411","390869.416371","390114.718097","Mapping"
"Mixed","Male","ball","1","F_done.wav","None","717.614493682","242","384736.307724","391636.459311","377769.100798","378535.982041","379302.877506","380069.520377","380835.827485","381602.846619","385503.204116","386269.038808","387035.811532","387802.982779","388568.843133","389336.512458","390102.915411","390869.416371","390880.953478","Mapping"
"Mixed","Male","ball","1","M_ball.wav","None","716.279174783","242","384736.307724","391636.459311","392385.867322","378535.982041","379302.877506","380069.520377","380835.827485","381602.846619","385503.204116","386269.038808","387035.811532","387802.982779","388568.843133","389336.512458","390102.915411","390869.416371","391648.600852","Mapping"
"Mixed","Male","ball","1","F_cave.wav","space","578.497065813","242","384736.307724","391636.459311","392385.867322","393152.565225","379302.877506","380069.520377","380835.827485","381602.846619","385503.204116","386269.038808","387035.811532","387802.982779","388568.843133","389336.512458","390102.915411","390869.416371","392396.243793","Mapping"
"Mixed","Male","ball","1","M_dime.wav","None","734.202254214","242","384736.307724","391636.459311","392385.867322","393152.565225","393919.268385","380069.520377","380835.827485","381602.846619","385503.204116","386269.038808","387035.811532","387802.982779","388568.843133","389336.512458","390102.915411","390869.416371","393161.858663","Mapping"
"Mixed","Male","ball","1","M_bluff.wav","None","733.156630653","242","384736.307724","391636.459311","392385.867322","393152.565225","393919.268385","394685.606411","380835.827485","381602.846619","385503.204116","386269.038808","387035.811532","387802.982779","388568.843133","389336.512458","390102.915411","390869.416371","393929.059282","Mapping"
"Mixed","Male","ball","1","M_ball.wav","None","733.815787709","242","384736.307724","391636.459311","392385.867322","393152.565225","393919.268385","394685.606411","395452.306788","381602.846619","385503.204116","386269.038808","387035.811532","387802.982779","388568.843133","389336.512458","390102.915411","390869.416371","394694.636123","Mapping"
"Mixed","Male","ball","1","F_priest.wav","space","352.799393237","242","384736.307724","391636.459311","392385.867322","393152.565225","393919.268385","394685.606411","395452.306788","396219.1061","385503.204116","386269.038808","387035.811532","387802.982779","388568.843133","389336.512458","390102.915411","390869.416371","395461.86024","Mapping"
"Mixed","Female","done","45","M_greet.wav","None","730.675824801","242","399352.945323","391636.459311","392385.867322","393152.565225","393919.268385","394685.606411","395452.306788","396219.1061","385503.204116","386269.038808","387035.811532","387802.982779","388568.843133","389336.512458","390102.915411","390869.416371","396229.114655","Mapping"
"Mixed","Female","done","45","F_done.wav","None","721.298601595","242","399352.945323","391636.459311","392385.867322","393152.565225","393919.268385","394685.606411","395452.306788","396219.1061","400119.467925","386269.038808","387035.811532","387802.982779","388568.843133","389336.512458","390102.915411","390869.416371","399363.713516","Mapping"
"Mixed","Female","done","45","M_greet.wav","space","388.96400074","242","399352.945323","391636.459311","392385.867322","393152.565225","393919.268385","394685.606411","395452.306788","396219.1061","400119.467925","400885.98589","387035.811532","387802.982779","388568.843133","389336.512458","390102.915411","390869.416371","400129.590874","Mapping"
"Mixed","Female","done","45","F_done.wav","None","720.137656317","242","399352.945323","391636.459311","392385.867322","393152.565225","393919.268385","394685.606411","395452.306788","396219.1061","400119.467925","400885.98589","401652.633089","387802.982779","388568.843133","389336.512458","390102.915411","390869.416371","400896.054115","Mapping"
"Mixed","Female","done","45","F_ball.wav","space","303.359197685","242","399352.945323","391636.459311","392385.867322","393152.565225","393919.268385","394685.606411","395452.306788","396219.1061","400119.467925","400885.98589","401652.633089","402402.457865","388568.843133","389336.512458","390102.915411","390869.416371","401663.164765","Mapping"
"Mixed","Female","done","45","M_gnash.wav","None","735.693087452","242","399352.945323","391636.459311","392385.867322","393152.565225","393919.268385","394685.606411","395452.306788","396219.1061","400119.467925","400885.98589","401652.633089","402402.457865","403168.753225","389336.512458","390102.915411","390869.416371","402411.753776","Mapping"
"Mixed","Female","done","45","F_lash.wav","None","735.473265289","242","399352.945323","391636.459311","392385.867322","393152.565225","393919.268385","394685.606411","395452.306788","396219.1061","400119.467925","400885.98589","401652.633089","402402.457865","403168.753225","403935.578817","390102.915411","390869.416371","403178.423235","Mapping"
"Mixed","Female","done","45","M_reek.wav","None","734.979515779","242","399352.945323","391636.459311","392385.867322","393152.565225","393919.268385","394685.606411","395452.306788","396219.1061","400119.467925","400885.98589","401652.633089","402402.457865","403168.753225","403935.578817","404701.720209","390869.416371","403945.940448","Mapping"
"Mixed","Female","done","45","F_cling.wav","None","736.178489402","242","399352.945323","391636.459311","392385.867322","393152.565225","393919.268385","394685.606411","395452.306788","396219.1061","400119.467925","400885.98589","401652.633089","402402.457865","403168.753225","403935.578817","404701.720209","405468.790048","404711.059094","Mapping"
"Mixed","Female","done","45","F_done.wav","None","735.078760423","242","399352.945323","406235.611311","392385.867322","393152.565225","393919.268385","394685.606411","395452.306788","396219.1061","400119.467925","400885.98589","401652.633089","402402.457865","403168.753225","403935.578817","404701.720209","405468.790048","405478.478608","Mapping"
"Mixed","Female","done","45","M_bluff.wav","space","472.346157767","242","399352.945323","406235.611311","407002.355591","393152.565225","393919.268385","394685.606411","395452.306788","396219.1061","400119.467925","400885.98589","401652.633089","402402.457865","403168.753225","403935.578817","404701.720209","405468.790048","406246.103722","Mapping"
"Mixed","Female","done","45","M_lash.wav","None","732.759652077","242","399352.945323","406235.611311","407002.355591","407768.876647","393919.268385","394685.606411","395452.306788","396219.1061","400119.467925","400885.98589","401652.633089","402402.457865","403168.753225","403935.578817","404701.720209","405468.790048","407012.155144","Mapping"
"Mixed","Female","done","45","M_dime.wav","None","732.826124411","242","399352.945323","406235.611311","407002.355591","407768.876647","408535.415945","394685.606411","395452.306788","396219.1061","400119.467925","400885.98589","401652.633089","402402.457865","403168.753225","403935.578817","404701.720209","405468.790048","407778.465654","Mapping"
"Mixed","Female","done","45","F_done.wav","None","733.250000863","242","399352.945323","406235.611311","407002.355591","407768.876647","408535.415945","409302.346346","395452.306788","396219.1061","400119.467925","400885.98589","401652.633089","402402.457865","403168.753225","403935.578817","404701.720209","405468.790048","408544.588495","Mapping"
"Mixed","Female","done","45","F_lash.wav","space","438.341125031","242","399352.945323","406235.611311","407002.355591","407768.876647","408535.415945","409302.346346","410068.952734","396219.1061","400119.467925","400885.98589","401652.633089","402402.457865","403168.753225","403935.578817","404701.720209","405468.790048","409312.077264","Mapping"
"Mixed","Female","done","45","M_priest.wav","None","730.444563203","242","399352.945323","406235.611311","407002.355591","407768.876647","408535.415945","409302.346346","410068.952734","410835.445347","400119.467925","400885.98589","401652.633089","402402.457865","403168.753225","403935.578817","404701.720209","405468.790048","410078.635421","Mapping"
"Mixed","Male","done","41","F_ball.wav","None","730.366651551","242","413969.247469","406235.611311","407002.355591","407768.876647","408535.415945","409302.346346","410068.952734","410835.445347","400119.467925","400885.98589","401652.633089","402402.457865","403168.753225","403935.578817","404701.720209","405468.790048","410845.200998","Mapping"
"Mixed","Male","done","41","M_tile.wav","None","721.306021791","242","413969.247469","406235.611311","407002.355591","407768.876647","408535.415945","409302.346346","410068.952734","410835.445347","414735.244477","400885.98589","401652.633089","402402.457865","403168.753225","403935.578817","404701.720209","405468.790048","413979.188006","Mapping"
"Mixed","Male","done","41","F_bluff.wav","None","722.59991162","242","413969.247469","406235.611311","407002.355591","407768.876647","408535.415945","409302.346346","410068.952734","410835.445347","414735.244477","415502.611431","401652.633089","402402.457865","403168.753225","403935.578817","404701.720209","405468.790048","414744.258422","Mapping"
"Mixed","Male","done","41","F_romp.wav","None","720.288532786","242","413969.247469","406235.611311","407002.355591","407768.876647","408535.415945","409302.346346","410068.952734","410835.445347","414735.244477","415502.611431","416268.528363","402402.457865","403168.753225","403935.578817","404701.720209","405468.790048","415512.770244","Mapping"
"Mixed","Male","done","41","M_done.wav","None","721.865934436","242","413969.247469","406235.611311","407002.355591","407768.876647","408535.415945","409302.346346","410068.952734","410835.445347","414735.244477","415502.611431","416268.528363","417035.323038","403168.753225","403935.578817","404701.720209","405468.790048","416277.617746","Mapping"
"Mixed","Male","done","41","F_ball.wav","space","689.315870753","242","413969.247469","406235.611311","407002.355591","407768.876647","408535.415945","409302.346346","410068.952734","410835.445347","414735.244477","415502.611431","416268.528363","417035.323038","417785.216451","403935.578817","404701.720209","405468.790048","417044.934305","Mapping"
"Mixed","Male","done","41","F_reek.wav","None","736.239087302","242","413969.247469","406235.611311","407002.355591","407768.876647","408535.415945","409302.346346","410068.952734","410835.445347","414735.244477","415502.611431","416268.528363","417035.323038","417785.216451","418568.637842","404701.720209","405468.790048","417794.67004","Mapping"
"Mixed","Male","done","41","M_done.wav","None","719.873004011","242","413969.247469","406235.611311","407002.355591","407768.876647","408535.415945","409302.346346","410068.952734","410835.445347","414735.244477","415502.611431","416268.528363","417035.323038","417785.216451","418568.637842","419318.918648","405468.790048","418577.943337","Mapping"
"Mixed","Male","done","41","F_tile.wav","space","429.629861028","242","413969.247469","406235.611311","407002.355591","407768.876647","408535.415945","409302.346346","410068.952734","410835.445347","414735.244477","415502.611431","416268.528363","417035.323038","417785.216451","418568.637842","419318.918648","420084.882884","419328.587731","Mapping"
"Mixed","Male","done","41","F_gnash.wav","None","735.419469187","242","413969.247469","420851.985495","407002.355591","407768.876647","408535.415945","409302.346346","410068.952734","410835.445347","414735.244477","415502.611431","416268.528363","417035.323038","417785.216451","418568.637842","419318.918648","420084.882884","420093.946605","Mapping"
"Mixed","Male","done","41","F_cad.wav","None","733.739112853","242","413969.247469","420851.985495","421618.60425","407768.876647","408535.415945","409302.346346","410068.952734","410835.445347","414735.244477","415502.611431","416268.528363","417035.323038","417785.216451","418568.637842","419318.918648","420084.882884","420861.994977","Mapping"
"Mixed","Male","done","41","M_done.wav","None","734.043648466","242","413969.247469","420851.985495","421618.60425","422385.147258","408535.415945","409302.346346","410068.952734","410835.445347","414735.244477","415502.611431","416268.528363","417035.323038","417785.216451","418568.637842","419318.918648","420084.882884","421628.045163","Mapping"
"Mixed","Male","done","41","M_depth.wav","space","347.369693569","242","413969.247469","420851.985495","421618.60425","422385.147258","423152.122489","409302.346346","410068.952734","410835.445347","414735.244477","415502.611431","416268.528363","417035.323038","417785.216451","418568.637842","419318.918648","420084.882884","422394.785423","Mapping"
"Mixed","Male","done","41","M_done.wav","None","731.863668305","242","413969.247469","420851.985495","421618.60425","422385.147258","423152.122489","423918.572745","410068.952734","410835.445347","414735.244477","415502.611431","416268.528363","417035.323038","417785.216451","418568.637842","419318.918648","420084.882884","423161.961926","Mapping"
"Mixed","Male","done","41","M_park.wav","space","582.057504333","242","413969.247469","420851.985495","421618.60425","422385.147258","423152.122489","423918.572745","424685.122245","410835.445347","414735.244477","415502.611431","416268.528363","417035.323038","417785.216451","418568.637842","419318.918648","420084.882884","423928.085386","Mapping"
"Mixed","Male","done","41","M_ball.wav","None","730.534532689","242","413969.247469","420851.985495","421618.60425","422385.147258","423152.122489","423918.572745","424685.122245","425451.84952","414735.244477","415502.611431","416268.528363","417035.323038","417785.216451","418568.637842","419318.918648","420084.882884","424694.707851","Mapping"
"Mixed","Female","done","46","F_priest.wav","None","730.004918878","242","428585.508496","420851.985495","421618.60425","422385.147258","423152.122489","423918.572745","424685.122245","425451.84952","414735.244477","415502.611431","416268.528363","417035.323038","417785.216451","418568.637842","419318.918648","420084.882884","425461.568071","Mapping"
"Mixed","Female","done","46","F_done.wav","None","721.255935729","242","428585.508496","420851.985495","421618.60425","422385.147258","423152.122489","423918.572745","424685.122245","425451.84952","429351.648651","415502.611431","416268.528363","417035.323038","417785.216451","418568.637842","419318.918648","420084.882884","428595.787268","Mapping"
"Mixed","Female","done","46","M_depth.wav","space","516.895233304","242","428585.508496","420851.985495","421618.60425","422385.147258","423152.122489","423918.572745","424685.122245","425451.84952","429351.648651","430118.899974","416268.528363","417035.323038","417785.216451","418568.637842","419318.918648","420084.882884","429361.159437","Mapping"
"Mixed","Female","done","46","F_done.wav","None","719.048129977","242","428585.508496","420851.985495","421618.60425","422385.147258","423152.122489","423918.572745","424685.122245","425451.84952","429351.648651","430118.899974","430885.279738","417035.323038","417785.216451","418568.637842","419318.918648","420084.882884","430129.466277","Mapping"
"Mixed","Female","done","46","M_lash.wav","space","494.100511656","242","428585.508496","420851.985495","421618.60425","422385.147258","423152.122489","423918.572745","424685.122245","425451.84952","429351.648651","430118.899974","430885.279738","431634.961986","417785.216451","418568.637842","419318.918648","420084.882884","430895.924881","Mapping"
"Mixed","Female","done","46","M_depth.wav","None","735.345885972","242","428585.508496","420851.985495","421618.60425","422385.147258","423152.122489","423918.572745","424685.122245","425451.84952","429351.648651","430118.899974","430885.279738","431634.961986","432401.681531","418568.637842","419318.918648","420084.882884","431644.674043","Mapping"
"Mixed","Female","done","46","F_greet.wav","None","735.272611957","242","428585.508496","420851.985495","421618.60425","422385.147258","423152.122489","423918.572745","424685.122245","425451.84952","429351.648651","430118.899974","430885.279738","431634.961986","432401.681531","433168.394275","419318.918648","420084.882884","432411.309185","Mapping"
"Mixed","Female","done","46","M_knife.wav","None","734.946743352","242","428585.508496","420851.985495","421618.60425","422385.147258","423152.122489","423918.572745","424685.122245","425451.84952","429351.648651","430118.899974","430885.279738","431634.961986","432401.681531","433168.394275","433934.980876","420084.882884","433178.133849","Mapping"
"Mixed","Female","done","46","F_ball.wav","None","734.790610848","242","428585.508496","420851.985495","421618.60425","422385.147258","423152.122489","423918.572745","424685.122245","425451.84952","429351.648651","430118.899974","430885.279738","431634.961986","432401.681531","433168.394275","433934.980876","434701.691146","433944.695716","Mapping"
"Mixed","Female","done","46","M_reek.wav","None","733.504141215","242","428585.508496","435468.342056","421618.60425","422385.147258","423152.122489","423918.572745","424685.122245","425451.84952","429351.648651","430118.899974","430885.279738","431634.961986","432401.681531","433168.394275","433934.980876","434701.691146","434712.367206","Mapping"
"Mixed","Female","done","46","F_done.wav","None","733.741895412","242","428585.508496","435468.342056","436234.929275","422385.147258","423152.122489","423918.572745","424685.122245","425451.84952","429351.648651","430118.899974","430885.279738","431634.961986","432401.681531","433168.394275","433934.980876","434701.691146","435478.57507","Mapping"
"Mixed","Female","done","46","M_cling.wav","space","433.25120653","242","428585.508496","435468.342056","436234.929275","437001.852875","423152.122489","423918.572745","424685.122245","425451.84952","429351.648651","430118.899974","430885.279738","431634.961986","432401.681531","433168.394275","433934.980876","434701.691146","436244.661429","Mapping"
"Mixed","Female","done","46","M_ball.wav","None","732.616505004","242","428585.508496","435468.342056","436234.929275","437001.852875","437767.957475","423918.572745","424685.122245","425451.84952","429351.648651","430118.899974","430885.279738","431634.961986","432401.681531","433168.394275","433934.980876","434701.691146","437011.570807","Mapping"
"Mixed","Female","done","46","F_park.wav","None","733.401186531","242","428585.508496","435468.342056","436234.929275","437001.852875","437767.957475","438534.84181","424685.122245","425451.84952","429351.648651","430118.899974","430885.279738","431634.961986","432401.681531","433168.394275","433934.980876","434701.691146","437777.242255","Mapping"
"Mixed","Female","done","46","F_done.wav","None","733.472296386","242","428585.508496","435468.342056","436234.929275","437001.852875","437767.957475","438534.84181","439301.801892","425451.84952","429351.648651","430118.899974","430885.279738","431634.961986","432401.681531","433168.394275","433934.980876","434701.691146","438544.005394","Mapping"
"Mixed","Female","done","46","M_dime.wav","space","341.828691424","242","428585.508496","435468.342056","436234.929275","437001.852875","437767.957475","438534.84181","439301.801892","440068.302234","429351.648651","430118.899974","430885.279738","431634.961986","432401.681531","433168.394275","433934.980876","434701.691146","439312.034289","Mapping"
"Mixed","Female","tile","33","M_lash.wav","None","731.633024989","242","443202.094772","435468.342056","436234.929275","437001.852875","437767.957475","438534.84181","439301.801892","440068.302234","429351.648651","430118.899974","430885.279738","431634.961986","432401.681531","433168.394275","433934.980876","434701.691146","440077.963278","Mapping"
"Mixed","Female","tile","33","M_priest.wav","None","720.613473793","242","443202.094772","435468.342056","436234.929275","437001.852875","437767.957475","438534.84181","439301.801892","440068.302234","443968.617684","430118.899974","430885.279738","431634.961986","432401.681531","433168.394275","433934.980876","434701.691146","443212.370453","Mapping"
"Mixed","Female","tile","33","M_dime.wav","None","720.941506675","242","443202.094772","435468.342056","436234.929275","437001.852875","437767.957475","438534.84181","439301.801892","440068.302234","443968.617684","444735.194082","430885.279738","431634.961986","432401.681531","433168.394275","433934.980876","434701.691146","443978.527612","Mapping"
"Mixed","Female","tile","33","F_tile.wav","None","720.599251916","242","443202.094772","435468.342056","436234.929275","437001.852875","437767.957475","438534.84181","439301.801892","440068.302234","443968.617684","444735.194082","445502.079963","431634.961986","432401.681531","433168.394275","433934.980876","434701.691146","444745.595905","Mapping"
"Mixed","Female","tile","33","F_gnash.wav","space","397.522533312","242","443202.094772","435468.342056","436234.929275","437001.852875","437767.957475","438534.84181","439301.801892","440068.302234","443968.617684","444735.194082","445502.079963","446268.144989","432401.681531","433168.394275","433934.980876","434701.691146","445512.236611","Mapping"
"Mixed","Female","tile","33","M_cad.wav","None","720.795886009","242","443202.094772","435468.342056","436234.929275","437001.852875","437767.957475","438534.84181","439301.801892","440068.302234","443968.617684","444735.194082","445502.079963","446268.144989","447034.758488","433168.394275","433934.980876","434701.691146","446277.376591","Mapping"
"Mixed","Female","tile","33","M_lash.wav","None","720.50309903","242","443202.094772","435468.342056","436234.929275","437001.852875","437767.957475","438534.84181","439301.801892","440068.302234","443968.617684","444735.194082","445502.079963","446268.144989","447034.758488","447802.049695","433934.980876","434701.691146","447044.2331","Mapping"
"Mixed","Female","tile","33","F_jolt.wav","None","719.367196667","242","443202.094772","435468.342056","436234.929275","437001.852875","437767.957475","438534.84181","439301.801892","440068.302234","443968.617684","444735.194082","445502.079963","446268.144989","447034.758488","447802.049695","448568.803249","434701.691146","447812.214382","Mapping"
"Mixed","Female","tile","33","F_depth.wav","None","719.661220443","242","443202.094772","435468.342056","436234.929275","437001.852875","437767.957475","438534.84181","439301.801892","440068.302234","443968.617684","444735.194082","445502.079963","446268.144989","447034.758488","447802.049695","448568.803249","449335.111595","448579.073055","Mapping"
"Mixed","Female","tile","33","F_tile.wav","None","720.007185126","242","443202.094772","450101.356559","436234.929275","437001.852875","437767.957475","438534.84181","439301.801892","440068.302234","443968.617684","444735.194082","445502.079963","446268.144989","447034.758488","447802.049695","448568.803249","449335.111595","449345.362232","Mapping"
"Mixed","Female","tile","33","F_cad.wav","space","343.00200385","242","443202.094772","450101.356559","450868.759687","437001.852875","437767.957475","438534.84181","439301.801892","440068.302234","443968.617684","444735.194082","445502.079963","446268.144989","447034.758488","447802.049695","448568.803249","449335.111595","450110.682769","Mapping"
"Mixed","Female","tile","33","M_dime.wav","None","718.516661203","242","443202.094772","450101.356559","450868.759687","451635.311351","437767.957475","438534.84181","439301.801892","440068.302234","443968.617684","444735.194082","445502.079963","446268.144989","447034.758488","447802.049695","448568.803249","449335.111595","450879.070304","Mapping"
"Mixed","Female","tile","33","F_tile.wav","None","718.545414275","242","443202.094772","450101.356559","450868.759687","451635.311351","452401.874764","438534.84181","439301.801892","440068.302234","443968.617684","444735.194082","445502.079963","446268.144989","447034.758488","447802.049695","448568.803249","449335.111595","451645.595998","Mapping"
"Mixed","Female","tile","33","M_gnash.wav","space","513.087765314","242","443202.094772","450101.356559","450868.759687","451635.311351","452401.874764","453150.960617","439301.801892","440068.302234","443968.617684","444735.194082","445502.079963","446268.144989","447034.758488","447802.049695","448568.803249","449335.111595","452412.510323","Mapping"
"Mixed","Female","tile","33","F_tile.wav","None","735.478212126","242","443202.094772","450101.356559","450868.759687","451635.311351","452401.874764","453150.960617","453918.018088","440068.302234","443968.617684","444735.194082","445502.079963","446268.144989","447034.758488","447802.049695","448568.803249","449335.111595","453160.664945","Mapping"
"Mixed","Female","tile","33","M_cave.wav","space","397.625487996","242","443202.094772","450101.356559","450868.759687","451635.311351","452401.874764","453150.960617","453918.018088","454684.753402","443968.617684","444735.194082","445502.079963","446268.144989","447034.758488","447802.049695","448568.803249","449335.111595","453927.941621","Mapping"
"Mixed","Female","done","47","F_lash.wav","None","733.484972501","242","457818.480395","450101.356559","450868.759687","451635.311351","452401.874764","453150.960617","453918.018088","454684.753402","443968.617684","444735.194082","445502.079963","446268.144989","447034.758488","447802.049695","448568.803249","449335.111595","454694.292323","Mapping"
"Mixed","Female","done","47","M_romp.wav","None","720.959747792","242","457818.480395","450101.356559","450868.759687","451635.311351","452401.874764","453150.960617","453918.018088","454684.753402","458585.128522","444735.194082","445502.079963","446268.144989","447034.758488","447802.049695","448568.803249","449335.111595","457828.65343","Mapping"
"Mixed","Female","done","47","F_tile.wav","None","721.460608416","242","457818.480395","450101.356559","450868.759687","451635.311351","452401.874764","453150.960617","453918.018088","454684.753402","458585.128522","459351.966481","445502.079963","446268.144989","447034.758488","447802.049695","448568.803249","449335.111595","458594.871806","Mapping"
"Mixed","Female","done","47","F_tile.wav","None","720.773007255","242","457818.480395","450101.356559","450868.759687","451635.311351","452401.874764","453150.960617","453918.018088","454684.753402","458585.128522","459351.966481","460118.353047","446268.144989","447034.758488","447802.049695","448568.803249","449335.111595","459362.239997","Mapping"
"Mixed","Female","done","47","F_cling.wav","None","721.630344517","242","457818.480395","450101.356559","450868.759687","451635.311351","452401.874764","453150.960617","453918.018088","454684.753402","458585.128522","459351.966481","460118.353047","460885.059607","447034.758488","447802.049695","448568.803249","449335.111595","460128.379843","Mapping"
"Mixed","Female","done","47","M_knife.wav","None","721.697125933","242","457818.480395","450101.356559","450868.759687","451635.311351","452401.874764","453150.960617","453918.018088","454684.753402","458585.128522","459351.966481","460118.353047","460885.059607","461651.193888","447802.049695","448568.803249","449335.111595","460895.026114","Mapping"
"Mixed","Female","done","47","F_done.wav","None","722.123475745","242","457818.480395","450101.356559","450868.759687","451635.311351","452401.874764","453150.960617","453918.018088","454684.753402","458585.128522","459351.966481","460118.353047","460885.059607","461651.193888","462418.148714","448568.803249","449335.111595","461661.332604","Mapping"
"Mixed","Female","done","47","M_cad.wav","space","392.893592245","242","457818.480395","450101.356559","450868.759687","451635.311351","452401.874764","453150.960617","453918.018088","454684.753402","458585.128522","459351.966481","460118.353047","460885.059607","461651.193888","462418.148714","463185.169704","449335.111595","462428.542499","Mapping"
"Mixed","Female","done","47","M_romp.wav","None","719.923399272","242","457818.480395","450101.356559","450868.759687","451635.311351","452401.874764","453150.960617","453918.018088","454684.753402","458585.128522","459351.966481","460118.353047","460885.059607","461651.193888","462418.148714","463185.169704","463952.459055","463195.174548","Mapping"
"Mixed","Female","done","47","F_done.wav","None","718.878393876","242","457818.480395","464718.208106","450868.759687","451635.311351","452401.874764","453150.960617","453918.018088","454684.753402","458585.128522","459351.966481","460118.353047","460885.059607","461651.193888","462418.148714","463185.169704","463952.459055","463962.76689","Mapping"
"Mixed","Female","done","47","M_tile.wav","space","492.98037705","242","457818.480395","464718.208106","465467.967956","451635.311351","452401.874764","453150.960617","453918.018088","454684.753402","458585.128522","459351.966481","460118.353047","460885.059607","461651.193888","462418.148714","463185.169704","463952.459055","464728.426899","Mapping"
"Mixed","Female","done","47","F_done.wav","None","734.640971059","242","457818.480395","464718.208106","465467.967956","466234.649164","452401.874764","453150.960617","453918.018088","454684.753402","458585.128522","459351.966481","460118.353047","460885.059607","461651.193888","462418.148714","463185.169704","463952.459055","465478.384619","Mapping"
"Mixed","Female","done","47","M_tile.wav","space","624.859751319","242","457818.480395","464718.208106","465467.967956","466234.649164","467001.252461","453150.960617","453918.018088","454684.753402","458585.128522","459351.966481","460118.353047","460885.059607","461651.193888","462418.148714","463185.169704","463952.459055","466244.547653","Mapping"
"Mixed","Female","done","47","M_bluff.wav","None","733.592564706","242","457818.480395","464718.208106","465467.967956","466234.649164","467001.252461","467767.717247","453918.018088","454684.753402","458585.128522","459351.966481","460118.353047","460885.059607","461651.193888","462418.148714","463185.169704","463952.459055","467010.959572","Mapping"
"Mixed","Female","done","47","F_done.wav","None","739.451396861","242","457818.480395","464718.208106","465467.967956","466234.649164","467001.252461","467767.717247","468534.039815","454684.753402","458585.128522","459351.966481","460118.353047","460885.059607","461651.193888","462418.148714","463185.169704","463952.459055","467772.018774","Mapping"
