"Condition","Talker","Target","Trial","current_stimulus","response_response","response_time_response","subject_nr","time_Audio1","time_Audio10","time_Audio11","time_Audio12","time_Audio13","time_Audio14","time_Audio15","time_Audio16","time_Audio2","time_Audio3","time_Audio4","time_Audio5","time_Audio6","time_Audio7","time_Audio8","time_Audio9","time_response","title"
"Blocked","Male","ball","2","M_depth.wav","NA","NA","333","36276.3584838","NA","NA","NA","NA","NA","NA","NA","NA","NA","NA","NA","NA","NA","NA","NA","NA","Mapping"
"Blocked","Male","ball","2","M_romp.wav","None","714.19411106","333","36276.3584838","NA","NA","NA","NA","NA","NA","NA","37026.4052465","NA","NA","NA","NA","NA","NA","NA","36292.6027528","Mapping"
"Blocked","Male","ball","2","M_jolt.wav","None","739.358026534","333","36276.3584838","NA","NA","NA","NA","NA","NA","NA","37026.4052465","37792.5927048","NA","NA","NA","NA","NA","NA","37031.168987","Mapping"
"Blocked","Male","ball","2","M_gnash.wav","None","732.596717775","333","36276.3584838","NA","NA","NA","NA","NA","NA","NA","37026.4052465","37792.5927048","38559.4563251","NA","NA","NA","NA","NA","37802.3613412","Mapping"
"Blocked","Male","ball","2","M_ball.wav","None","729.113881942","333","36276.3584838","NA","NA","NA","NA","NA","NA","NA","37026.4052465","37792.5927048","38559.4563251","39325.8583499","NA","NA","NA","NA","38569.5421733","Mapping"
"Blocked","Male","ball","2","M_romp.wav","space","516.120754182","333","36276.3584838","NA","NA","NA","NA","NA","NA","NA","37026.4052465","37792.5927048","38559.4563251","39325.8583499","40093.3288774","NA","NA","NA","39334.9928721","Mapping"
"Blocked","Male","ball","2","M_priest.wav","None","722.038452979","333","36276.3584838","NA","NA","NA","NA","NA","NA","NA","37026.4052465","37792.5927048","38559.4563251","39325.8583499","40093.3288774","40859.8780683","NA","NA","40103.829945","Mapping"
"Blocked","Male","ball","2","M_ball.wav","None","719.421301968","333","36276.3584838","NA","NA","NA","NA","NA","NA","NA","37026.4052465","37792.5927048","38559.4563251","39325.8583499","40093.3288774","40859.8780683","41609.4938433","NA","40870.025442","Mapping"
"Blocked","Male","ball","2","M_jaw.wav","space","535.793445073","333","36276.3584838","NA","NA","NA","NA","NA","NA","NA","37026.4052465","37792.5927048","38559.4563251","39325.8583499","40093.3288774","40859.8780683","41609.4938433","42376.2217364","41619.2658809","Mapping"
"Blocked","Male","ball","2","M_priest.wav","None","730.768267531","333","36276.3584838","43142.9607603","NA","NA","NA","NA","NA","NA","37026.4052465","37792.5927048","38559.4563251","39325.8583499","40093.3288774","40859.8780683","41609.4938433","42376.2217364","42385.9854261","Mapping"
"Blocked","Male","ball","2","M_ball.wav","None","727.006557398","333","36276.3584838","43142.9607603","43909.762546","NA","NA","NA","NA","NA","37026.4052465","37792.5927048","38559.4563251","39325.8583499","40093.3288774","40859.8780683","41609.4938433","42376.2217364","43153.4840884","Mapping"
"Blocked","Male","ball","2","M_lash.wav","space","347.552724183","333","36276.3584838","43142.9607603","43909.762546","44676.9174072","NA","NA","NA","NA","37026.4052465","37792.5927048","38559.4563251","39325.8583499","40093.3288774","40859.8780683","41609.4938433","42376.2217364","43919.4718208","Mapping"
"Blocked","Male","ball","2","M_greet.wav","None","720.155588351","333","36276.3584838","43142.9607603","43909.762546","44676.9174072","45426.2932637","NA","NA","NA","37026.4052465","37792.5927048","38559.4563251","39325.8583499","40093.3288774","40859.8780683","41609.4938433","42376.2217364","44687.4759812","Mapping"
"Blocked","Male","ball","2","M_ball.wav","None","735.449768137","333","36276.3584838","43142.9607603","43909.762546","44676.9174072","45426.2932637","46193.0468185","NA","NA","37026.4052465","37792.5927048","38559.4563251","39325.8583499","40093.3288774","40859.8780683","41609.4938433","42376.2217364","45435.9026761","Mapping"
"Blocked","Male","ball","2","M_reek.wav","space","272.245552856","333","36276.3584838","43142.9607603","43909.762546","44676.9174072","45426.2932637","46193.0468185","46959.1579111","NA","37026.4052465","37792.5927048","38559.4563251","39325.8583499","40093.3288774","40859.8780683","41609.4938433","42376.2217364","46202.7471275","Mapping"
"Blocked","Male","ball","2","M_romp.wav","None","733.24010754","333","36276.3584838","43142.9607603","43909.762546","44676.9174072","45426.2932637","46193.0468185","46959.1579111","47726.2200206","37026.4052465","37792.5927048","38559.4563251","39325.8583499","40093.3288774","40859.8780683","41609.4938433","42376.2217364","46968.3146938","Mapping"
"Blocked","Male","cave","7","M_gnash.wav","None","729.43604039","333","50860.0416211","43142.9607603","43909.762546","44676.9174072","45426.2932637","46193.0468185","46959.1579111","47726.2200206","37026.4052465","37792.5927048","38559.4563251","39325.8583499","40093.3288774","40859.8780683","41609.4938433","42376.2217364","47735.8891033","Mapping"
"Blocked","Male","cave","7","M_cave.wav","None","719.691828359","333","50860.0416211","43142.9607603","43909.762546","44676.9174072","45426.2932637","46193.0468185","46959.1579111","47726.2200206","51609.5266156","37792.5927048","38559.4563251","39325.8583499","40093.3288774","40859.8780683","41609.4938433","42376.2217364","50870.5800986","Mapping"
"Blocked","Male","cave","7","M_dime.wav","space","543.329232838","333","50860.0416211","43142.9607603","43909.762546","44676.9174072","45426.2932637","46193.0468185","46959.1579111","47726.2200206","51609.5266156","52376.1376417","38559.4563251","39325.8583499","40093.3288774","40859.8780683","41609.4938433","42376.2217364","51619.5447547","Mapping"
"Blocked","Male","cave","7","M_cave.wav","None","732.144706417","333","50860.0416211","43142.9607603","43909.762546","44676.9174072","45426.2932637","46193.0468185","46959.1579111","47726.2200206","51609.5266156","52376.1376417","53143.5169629","39325.8583499","40093.3288774","40859.8780683","41609.4938433","42376.2217364","52385.3108105","Mapping"
"Blocked","Male","cave","7","M_gnash.wav","space","441.955978051","333","50860.0416211","43142.9607603","43909.762546","44676.9174072","45426.2932637","46193.0468185","46959.1579111","47726.2200206","51609.5266156","52376.1376417","53143.5169629","53909.4960387","40093.3288774","40859.8780683","41609.4938433","42376.2217364","53152.8716162","Mapping"
"Blocked","Male","cave","7","M_cave.wav","None","725.686078425","333","50860.0416211","43142.9607603","43909.762546","44676.9174072","45426.2932637","46193.0468185","46959.1579111","47726.2200206","51609.5266156","52376.1376417","53143.5169629","53909.4960387","54676.3723348","40859.8780683","41609.4938433","42376.2217364","53918.983018","Mapping"
"Blocked","Male","cave","7","M_park.wav","space","412.635537796","333","50860.0416211","43142.9607603","43909.762546","44676.9174072","45426.2932637","46193.0468185","46959.1579111","47726.2200206","51609.5266156","52376.1376417","53143.5169629","53909.4960387","54676.3723348","55426.8485387","41609.4938433","42376.2217364","54686.20126","Mapping"
"Blocked","Male","cave","7","M_cling.wav","None","735.255607404","333","50860.0416211","43142.9607603","43909.762546","44676.9174072","45426.2932637","46193.0468185","46959.1579111","47726.2200206","51609.5266156","52376.1376417","53143.5169629","53909.4960387","54676.3723348","55426.8485387","56192.8242138","42376.2217364","55436.5392635","Mapping"
"Blocked","Male","cave","7","M_gnash.wav","None","733.594110236","333","50860.0416211","43142.9607603","43909.762546","44676.9174072","45426.2932637","46193.0468185","46959.1579111","47726.2200206","51609.5266156","52376.1376417","53143.5169629","53909.4960387","54676.3723348","55426.8485387","56192.8242138","56959.5691115","56202.0558165","Mapping"
"Blocked","Male","cave","7","M_cave.wav","None","729.073998518","333","50860.0416211","57726.2370251","43909.762546","44676.9174072","45426.2932637","46193.0468185","46959.1579111","47726.2200206","51609.5266156","52376.1376417","53143.5169629","53909.4960387","54676.3723348","55426.8485387","56192.8242138","56959.5691115","56970.1678781","Mapping"
"Blocked","Male","cave","7","M_lash.wav","space","282.577502541","333","50860.0416211","57726.2370251","58493.4453736","44676.9174072","45426.2932637","46193.0468185","46959.1579111","47726.2200206","51609.5266156","52376.1376417","53143.5169629","53909.4960387","54676.3723348","55426.8485387","56192.8242138","56959.5691115","57736.1760163","Mapping"
"Blocked","Male","cave","7","M_park.wav","None","722.959480248","333","50860.0416211","57726.2370251","58493.4453736","59259.8810983","45426.2932637","46193.0468185","46959.1579111","47726.2200206","51609.5266156","52376.1376417","53143.5169629","53909.4960387","54676.3723348","55426.8485387","56192.8242138","56959.5691115","58503.3457177","Mapping"
"Blocked","Male","cave","7","M_dime.wav","None","720.398598351","333","50860.0416211","57726.2370251","58493.4453736","59259.8810983","60009.4075222","46193.0468185","46959.1579111","47726.2200206","51609.5266156","52376.1376417","53143.5169629","53909.4960387","54676.3723348","55426.8485387","56192.8242138","56959.5691115","59269.7072411","Mapping"
"Blocked","Male","cave","7","M_bluff.wav","None","734.515446704","333","50860.0416211","57726.2370251","58493.4453736","59259.8810983","60009.4075222","60776.1613862","46959.1579111","47726.2200206","51609.5266156","52376.1376417","53143.5169629","53909.4960387","54676.3723348","55426.8485387","56192.8242138","56959.5691115","60019.4154587","Mapping"
"Blocked","Male","cave","7","M_dime.wav","None","731.966931839","333","50860.0416211","57726.2370251","58493.4453736","59259.8810983","60009.4075222","60776.1613862","61542.8237347","47726.2200206","51609.5266156","52376.1376417","53143.5169629","53909.4960387","54676.3723348","55426.8485387","56192.8242138","56959.5691115","60785.6799015","Mapping"
"Blocked","Male","cave","7","M_dime.wav","None","728.619204368","333","50860.0416211","57726.2370251","58493.4453736","59259.8810983","60009.4075222","60776.1613862","61542.8237347","62309.6298487","51609.5266156","52376.1376417","53143.5169629","53909.4960387","54676.3723348","55426.8485387","56192.8242138","56959.5691115","61552.6474039","Mapping"
"Blocked","Male","tile","16","M_gnash.wav","None","725.911156274","333","65426.5764663","57726.2370251","58493.4453736","59259.8810983","60009.4075222","60776.1613862","61542.8237347","62309.6298487","51609.5266156","52376.1376417","53143.5169629","53909.4960387","54676.3723348","55426.8485387","56192.8242138","56959.5691115","62319.2216381","Mapping"
"Blocked","Male","tile","16","M_tile.wav","None","719.362868462","333","65426.5764663","57726.2370251","58493.4453736","59259.8810983","60009.4075222","60776.1613862","61542.8237347","62309.6298487","66175.7176607","52376.1376417","53143.5169629","53909.4960387","54676.3723348","55426.8485387","56192.8242138","56959.5691115","65436.8193746","Mapping"
"Blocked","Male","tile","16","M_bluff.wav","space","569.799405523","333","65426.5764663","57726.2370251","58493.4453736","59259.8810983","60009.4075222","60776.1613862","61542.8237347","62309.6298487","66175.7176607","66942.8477883","53143.5169629","53909.4960387","54676.3723348","55426.8485387","56192.8242138","56959.5691115","66184.8166278","Mapping"
"Blocked","Male","tile","16","M_tile.wav","None","731.766897254","333","65426.5764663","57726.2370251","58493.4453736","59259.8810983","60009.4075222","60776.1613862","61542.8237347","62309.6298487","66175.7176607","66942.8477883","67709.4884948","53909.4960387","54676.3723348","55426.8485387","56192.8242138","56959.5691115","66952.247581","Mapping"
"Blocked","Male","tile","16","M_gnash.wav","space","363.676724955","333","65426.5764663","57726.2370251","58493.4453736","59259.8810983","60009.4075222","60776.1613862","61542.8237347","62309.6298487","66175.7176607","66942.8477883","67709.4884948","68476.1795965","54676.3723348","55426.8485387","56192.8242138","56959.5691115","67718.9105479","Mapping"
"Blocked","Male","tile","16","M_bluff.wav","None","731.073730625","333","65426.5764663","57726.2370251","58493.4453736","59259.8810983","60009.4075222","60776.1613862","61542.8237347","62309.6298487","66175.7176607","66942.8477883","67709.4884948","68476.1795965","69243.0045698","55426.8485387","56192.8242138","56959.5691115","68480.4993644","Mapping"
"Blocked","Male","tile","16","M_lash.wav","None","722.863018047","333","65426.5764663","57726.2370251","58493.4453736","59259.8810983","60009.4075222","60776.1613862","61542.8237347","62309.6298487","66175.7176607","66942.8477883","67709.4884948","68476.1795965","69243.0045698","70009.8691178","56192.8242138","56959.5691115","69252.7518733","Mapping"
"Blocked","Male","tile","16","M_tile.wav","None","719.341535587","333","65426.5764663","57726.2370251","58493.4453736","59259.8810983","60009.4075222","60776.1613862","61542.8237347","62309.6298487","66175.7176607","66942.8477883","67709.4884948","68476.1795965","69243.0045698","70009.8691178","70758.8724205","56959.5691115","70020.2820711","Mapping"
"Blocked","Male","tile","16","M_knife.wav","space","497.667133808","333","65426.5764663","57726.2370251","58493.4453736","59259.8810983","60009.4075222","60776.1613862","61542.8237347","62309.6298487","66175.7176607","66942.8477883","67709.4884948","68476.1795965","69243.0045698","70009.8691178","70758.8724205","71526.0071857","70768.9146753","Mapping"
"Blocked","Male","tile","16","M_gnash.wav","None","731.223061215","333","65426.5764663","72292.3779842","58493.4453736","59259.8810983","60009.4075222","60776.1613862","61542.8237347","62309.6298487","66175.7176607","66942.8477883","67709.4884948","68476.1795965","69243.0045698","70009.8691178","70758.8724205","71526.0071857","71535.8494055","Mapping"
"Blocked","Male","tile","16","M_priest.wav","None","729.239406064","333","65426.5764663","72292.3779842","73059.3124051","59259.8810983","60009.4075222","60776.1613862","61542.8237347","62309.6298487","66175.7176607","66942.8477883","67709.4884948","68476.1795965","69243.0045698","70009.8691178","70758.8724205","71526.0071857","72301.7474781","Mapping"
"Blocked","Male","tile","16","M_reek.wav","None","726.2048712","333","65426.5764663","72292.3779842","73059.3124051","73826.3371047","60009.4075222","60776.1613862","61542.8237347","62309.6298487","66175.7176607","66942.8477883","67709.4884948","68476.1795965","69243.0045698","70009.8691178","70758.8724205","71526.0071857","73068.7891818","Mapping"
"Blocked","Male","tile","16","M_tile.wav","None","722.363703419","333","65426.5764663","72292.3779842","73059.3124051","73826.3371047","74592.8402292","60776.1613862","61542.8237347","62309.6298487","66175.7176607","66942.8477883","67709.4884948","68476.1795965","69243.0045698","70009.8691178","70758.8724205","71526.0071857","73836.6375188","Mapping"
"Blocked","Male","tile","16","M_lash.wav","space","487.107323017","333","65426.5764663","72292.3779842","73059.3124051","73826.3371047","74592.8402292","75342.4832113","61542.8237347","62309.6298487","66175.7176607","66942.8477883","67709.4884948","68476.1795965","69243.0045698","70009.8691178","70758.8724205","71526.0071857","74603.3984935","Mapping"
"Blocked","Male","tile","16","M_romp.wav","None","734.177520033","333","65426.5764663","72292.3779842","73059.3124051","73826.3371047","74592.8402292","75342.4832113","76109.2655188","62309.6298487","66175.7176607","66942.8477883","67709.4884948","68476.1795965","69243.0045698","70009.8691178","70758.8724205","71526.0071857","75352.3863382","Mapping"
"Blocked","Male","tile","16","M_knife.wav","None","730.865656864","333","65426.5764663","72292.3779842","73059.3124051","73826.3371047","74592.8402292","75342.4832113","76109.2655188","76876.0292763","66175.7176607","66942.8477883","67709.4884948","68476.1795965","69243.0045698","70009.8691178","70758.8724205","71526.0071857","76119.6379708","Mapping"
"Blocked","Male","ball","5","M_gnash.wav","None","728.626315482","333","80009.6094124","72292.3779842","73059.3124051","73826.3371047","74592.8402292","75342.4832113","76109.2655188","76876.0292763","66175.7176607","66942.8477883","67709.4884948","68476.1795965","69243.0045698","70009.8691178","70758.8724205","71526.0071857","76885.8146081","Mapping"
"Blocked","Male","ball","5","M_depth.wav","None","719.096361194","333","80009.6094124","72292.3779842","73059.3124051","73826.3371047","74592.8402292","75342.4832113","76109.2655188","76876.0292763","80759.0910061","66942.8477883","67709.4884948","68476.1795965","69243.0045698","70009.8691178","70758.8724205","71526.0071857","80019.8034709","Mapping"
"Blocked","Male","ball","5","M_ball.wav","None","733.938838821","333","80009.6094124","72292.3779842","73059.3124051","73826.3371047","74592.8402292","75342.4832113","76109.2655188","76876.0292763","80759.0910061","81525.936076","67709.4884948","68476.1795965","69243.0045698","70009.8691178","70758.8724205","71526.0071857","80768.908801","Mapping"
"Blocked","Male","ball","5","M_cling.wav","space","274.668233935","333","80009.6094124","72292.3779842","73059.3124051","73826.3371047","74592.8402292","75342.4832113","76109.2655188","76876.0292763","80759.0910061","81525.936076","82292.5158753","68476.1795965","69243.0045698","70009.8691178","70758.8724205","71526.0071857","81535.6923454","Mapping"
"Blocked","Male","ball","5","M_ball.wav","None","728.094537742","333","80009.6094124","72292.3779842","73059.3124051","73826.3371047","74592.8402292","75342.4832113","76109.2655188","76876.0292763","80759.0910061","81525.936076","82292.5158753","83059.2233632","69243.0045698","70009.8691178","70758.8724205","71526.0071857","82302.1528041","Mapping"
"Blocked","Male","ball","5","M_reek.wav","space","437.689078506","333","80009.6094124","72292.3779842","73059.3124051","73826.3371047","74592.8402292","75342.4832113","76109.2655188","76876.0292763","80759.0910061","81525.936076","82292.5158753","83059.2233632","83826.1568565","70009.8691178","70758.8724205","71526.0071857","83068.6379964","Mapping"
"Blocked","Male","ball","5","M_ball.wav","None","721.270466689","333","80009.6094124","72292.3779842","73059.3124051","73826.3371047","74592.8402292","75342.4832113","76109.2655188","76876.0292763","80759.0910061","81525.936076","82292.5158753","83059.2233632","83826.1568565","84592.7734477","70758.8724205","71526.0071857","83836.4275903","Mapping"
"Blocked","Male","ball","5","M_cling.wav","space","439.180530142","333","80009.6094124","72292.3779842","73059.3124051","73826.3371047","74592.8402292","75342.4832113","76109.2655188","76876.0292763","80759.0910061","81525.936076","82292.5158753","83059.2233632","83826.1568565","84592.7734477","85342.366653","71526.0071857","84603.0664416","Mapping"
"Blocked","Male","ball","5","M_gnash.wav","None","732.850239612","333","80009.6094124","72292.3779842","73059.3124051","73826.3371047","74592.8402292","75342.4832113","76109.2655188","76876.0292763","80759.0910061","81525.936076","82292.5158753","83059.2233632","83826.1568565","84592.7734477","85342.366653","86109.0973285","85352.357585","Mapping"
"Blocked","Male","ball","5","M_ball.wav","None","730.778160971","333","80009.6094124","86875.6820746","73059.3124051","73826.3371047","74592.8402292","75342.4832113","76109.2655188","76876.0292763","80759.0910061","81525.936076","82292.5158753","83059.2233632","83826.1568565","84592.7734477","85342.366653","86109.0973285","86118.4025146","Mapping"
"Blocked","Male","ball","5","M_romp.wav","space","388.976058457","333","80009.6094124","86875.6820746","87642.3252546","73826.3371047","74592.8402292","75342.4832113","76109.2655188","76876.0292763","80759.0910061","81525.936076","82292.5158753","83059.2233632","83826.1568565","84592.7734477","85342.366653","86109.0973285","86885.2710817","Mapping"
"Blocked","Male","ball","5","M_depth.wav","None","724.465462845","333","80009.6094124","86875.6820746","87642.3252546","88409.5051591","74592.8402292","75342.4832113","76109.2655188","76876.0292763","80759.0910061","81525.936076","82292.5158753","83059.2233632","83826.1568565","84592.7734477","85342.366653","86109.0973285","87652.1891165","Mapping"
"Blocked","Male","ball","5","M_bluff.wav","None","720.529069658","333","80009.6094124","86875.6820746","87642.3252546","88409.5051591","89158.7180812","75342.4832113","76109.2655188","76876.0292763","80759.0910061","81525.936076","82292.5158753","83059.2233632","83826.1568565","84592.7734477","85342.366653","86109.0973285","88419.9518124","Mapping"
"Blocked","Male","ball","5","M_greet.wav","None","736.419953872","333","80009.6094124","86875.6820746","87642.3252546","88409.5051591","89158.7180812","89925.3359092","76109.2655188","76876.0292763","80759.0910061","81525.936076","82292.5158753","83059.2233632","83826.1568565","84592.7734477","85342.366653","86109.0973285","89168.0922126","Mapping"
"Blocked","Male","ball","5","M_reek.wav","None","733.521145768","333","80009.6094124","86875.6820746","87642.3252546","88409.5051591","89158.7180812","89925.3359092","90692.253944","76876.0292763","80759.0910061","81525.936076","82292.5158753","83059.2233632","83826.1568565","84592.7734477","85342.366653","86109.0973285","89934.9920065","Mapping"
"Blocked","Male","ball","5","M_lash.wav","None","730.327386409","333","80009.6094124","86875.6820746","87642.3252546","88409.5051591","89158.7180812","89925.3359092","90692.253944","91458.923094","80759.0910061","81525.936076","82292.5158753","83059.2233632","83826.1568565","84592.7734477","85342.366653","86109.0973285","90702.1978814","Mapping"
"Blocked","Male","ball","1","M_knife.wav","None","727.898521814","333","94592.5721759","86875.6820746","87642.3252546","88409.5051591","89158.7180812","89925.3359092","90692.253944","91458.923094","80759.0910061","81525.936076","82292.5158753","83059.2233632","83826.1568565","84592.7734477","85342.366653","86109.0973285","91468.5223037","Mapping"
"Blocked","Male","ball","1","M_greet.wav","None","719.892481808","333","94592.5721759","86875.6820746","87642.3252546","88409.5051591","89158.7180812","89925.3359092","90692.253944","91458.923094","95342.0577887","81525.936076","82292.5158753","83059.2233632","83826.1568565","84592.7734477","85342.366653","86109.0973285","94602.757887","Mapping"
"Blocked","Male","ball","1","M_cad.wav","None","734.994974453","333","94592.5721759","86875.6820746","87642.3252546","88409.5051591","89158.7180812","89925.3359092","90692.253944","91458.923094","95342.0577887","96108.9031678","82292.5158753","83059.2233632","83826.1568565","84592.7734477","85342.366653","86109.0973285","95351.6962635","Mapping"
"Blocked","Male","ball","1","M_lash.wav","None","731.951164547","333","94592.5721759","86875.6820746","87642.3252546","88409.5051591","89158.7180812","89925.3359092","90692.253944","91458.923094","95342.0577887","96108.9031678","96875.2844781","83059.2233632","83826.1568565","84592.7734477","85342.366653","86109.0973285","96118.7438415","Mapping"
"Blocked","Male","ball","1","M_ball.wav","None","730.087467935","333","94592.5721759","86875.6820746","87642.3252546","88409.5051591","89158.7180812","89925.3359092","90692.253944","91458.923094","95342.0577887","96108.9031678","96875.2844781","97642.1913826","83826.1568565","84592.7734477","85342.366653","86109.0973285","96884.6437694","Mapping"
"Blocked","Male","ball","1","M_park.wav","space","366.026131902","333","94592.5721759","86875.6820746","87642.3252546","88409.5051591","89158.7180812","89925.3359092","90692.253944","91458.923094","95342.0577887","96108.9031678","96875.2844781","97642.1913826","98409.1285863","84592.7734477","85342.366653","86109.0973285","97652.0394767","Mapping"
"Blocked","Male","ball","1","M_jolt.wav","None","722.150064539","333","94592.5721759","86875.6820746","87642.3252546","88409.5051591","89158.7180812","89925.3359092","90692.253944","91458.923094","95342.0577887","96108.9031678","96875.2844781","97642.1913826","98409.1285863","99175.8824498","85342.366653","86109.0973285","98420.0838292","Mapping"
"Blocked","Male","ball","1","M_ball.wav","None","719.582071993","333","94592.5721759","86875.6820746","87642.3252546","88409.5051591","89158.7180812","89925.3359092","90692.253944","91458.923094","95342.0577887","96108.9031678","96875.2844781","97642.1913826","98409.1285863","99175.8824498","99925.2626351","86109.0973285","99186.5408868","Mapping"
"Blocked","Male","ball","1","M_dime.wav","space","523.216898087","333","94592.5721759","86875.6820746","87642.3252546","88409.5051591","89158.7180812","89925.3359092","90692.253944","91458.923094","95342.0577887","96108.9031678","96875.2844781","97642.1913826","98409.1285863","99175.8824498","99925.2626351","100692.174796","99934.7656914","Mapping"
"Blocked","Male","ball","1","M_romp.wav","None","731.129691005","333","94592.5721759","101458.769744","87642.3252546","88409.5051591","89158.7180812","89925.3359092","90692.253944","91458.923094","95342.0577887","96108.9031678","96875.2844781","97642.1913826","98409.1285863","99175.8824498","99925.2626351","100692.174796","100702.373183","Mapping"
"Blocked","Male","ball","1","M_ball.wav","None","729.290110525","333","94592.5721759","101458.769744","102225.209179","88409.5051591","89158.7180812","89925.3359092","90692.253944","91458.923094","95342.0577887","96108.9031678","96875.2844781","97642.1913826","98409.1285863","99175.8824498","99925.2626351","100692.174796","101468.191488","Mapping"
"Blocked","Male","ball","1","M_cad.wav","space","479.463634081","333","94592.5721759","101458.769744","102225.209179","102992.502859","89158.7180812","89925.3359092","90692.253944","91458.923094","95342.0577887","96108.9031678","96875.2844781","97642.1913826","98409.1285863","99175.8824498","99925.2626351","100692.174796","102234.500452","Mapping"
"Blocked","Male","ball","1","M_jaw.wav","None","728.355480358","333","94592.5721759","101458.769744","102225.209179","102992.502859","103758.925599","89925.3359092","90692.253944","91458.923094","95342.0577887","96108.9031678","96875.2844781","97642.1913826","98409.1285863","99175.8824498","99925.2626351","100692.174796","102996.945987","Mapping"
"Blocked","Male","ball","1","M_dime.wav","None","720.487949438","333","94592.5721759","101458.769744","102225.209179","102992.502859","103758.925599","104508.444911","90692.253944","91458.923094","95342.0577887","96108.9031678","96875.2844781","97642.1913826","98409.1285863","99175.8824498","99925.2626351","100692.174796","103768.911893","Mapping"
"Blocked","Male","ball","1","M_ball.wav","None","735.111532733","333","94592.5721759","101458.769744","102225.209179","102992.502859","103758.925599","104508.444911","105275.456626","91458.923094","95342.0577887","96108.9031678","96875.2844781","97642.1913826","98409.1285863","99175.8824498","99925.2626351","100692.174796","104518.386066","Mapping"
"Blocked","Male","ball","1","M_depth.wav","space","420.517599676","333","94592.5721759","101458.769744","102225.209179","102992.502859","103758.925599","104508.444911","105275.456626","106041.983556","95342.0577887","96108.9031678","96875.2844781","97642.1913826","98409.1285863","99175.8824498","99925.2626351","100692.174796","105285.441683","Mapping"
"Blocked","Male","ball","4","M_jolt.wav","None","729.729136452","333","109175.959743","101458.769744","102225.209179","102992.502859","103758.925599","104508.444911","105275.456626","106041.983556","95342.0577887","96108.9031678","96875.2844781","97642.1913826","98409.1285863","99175.8824498","99925.2626351","100692.174796","106051.426015","Mapping"
"Blocked","Male","ball","4","M_cad.wav","None","719.216938596","333","109175.959743","101458.769744","102225.209179","102992.502859","103758.925599","104508.444911","105275.456626","106041.983556","109925.191525","96108.9031678","96875.2844781","97642.1913826","98409.1285863","99175.8824498","99925.2626351","100692.174796","109186.223675","Mapping"
"Blocked","Male","ball","4","M_bluff.wav","None","734.608507715","333","109175.959743","101458.769744","102225.209179","102992.502859","103758.925599","104508.444911","105275.456626","106041.983556","109925.191525","110691.592931","96875.2844781","97642.1913826","98409.1285863","99175.8824498","99925.2626351","100692.174796","109934.857516","Mapping"
"Blocked","Male","ball","4","M_jolt.wav","None","735.779346898","333","109175.959743","101458.769744","102225.209179","102992.502859","103758.925599","104508.444911","105275.456626","106041.983556","109925.191525","110691.592931","111458.684412","97642.1913826","98409.1285863","99175.8824498","99925.2626351","100692.174796","110700.805984","Mapping"
"Blocked","Male","ball","4","M_ball.wav","None","732.167585753","333","109175.959743","101458.769744","102225.209179","102992.502859","103758.925599","104508.444911","105275.456626","106041.983556","109925.191525","110691.592931","111458.684412","112225.416325","98409.1285863","99175.8824498","99925.2626351","100692.174796","111468.559404","Mapping"
"Blocked","Male","ball","4","M_cad.wav","space","406.547298655","333","109175.959743","101458.769744","102225.209179","102992.502859","103758.925599","104508.444911","105275.456626","106041.983556","109925.191525","110691.592931","111458.684412","112225.416325","112991.893169","99175.8824498","99925.2626351","100692.174796","112235.280805","Mapping"
"Blocked","Male","ball","4","M_reek.wav","None","727.301508654","333","109175.959743","101458.769744","102225.209179","102992.502859","103758.925599","104508.444911","105275.456626","106041.983556","109925.191525","110691.592931","111458.684412","112225.416325","112991.893169","113758.603131","99925.2626351","100692.174796","113001.249369","Mapping"
"Blocked","Male","ball","4","M_ball.wav","None","724.404555745","333","109175.959743","101458.769744","102225.209179","102992.502859","103758.925599","104508.444911","105275.456626","106041.983556","109925.191525","110691.592931","111458.684412","112225.416325","112991.893169","113758.603131","114525.557339","100692.174796","113768.37424","Mapping"
"Blocked","Male","ball","4","M_lash.wav","space","385.997793172","333","109175.959743","101458.769744","102225.209179","102992.502859","103758.925599","104508.444911","105275.456626","106041.983556","109925.191525","110691.592931","111458.684412","112225.416325","112991.893169","113758.603131","114525.557339","115275.431274","114535.759127","Mapping"
"Blocked","Male","ball","4","M_cling.wav","None","740.769711323","333","109175.959743","116041.905336","102225.209179","102992.502859","103758.925599","104508.444911","105275.456626","106041.983556","109925.191525","110691.592931","111458.684412","112225.416325","112991.893169","113758.603131","114525.557339","115275.431274","115279.644067","Mapping"
"Blocked","Male","ball","4","M_ball.wav","None","733.017193154","333","109175.959743","116041.905336","116808.612823","102992.502859","103758.925599","104508.444911","105275.456626","106041.983556","109925.191525","110691.592931","111458.684412","112225.416325","112991.893169","113758.603131","114525.557339","115275.431274","116051.590804","Mapping"
"Blocked","Male","ball","4","M_cling.wav","space","439.78187209","333","109175.959743","116041.905336","116808.612823","117575.212101","103758.925599","104508.444911","105275.456626","106041.983556","109925.191525","110691.592931","111458.684412","112225.416325","112991.893169","113758.603131","114525.557339","115275.431274","116817.924811","Mapping"
"Blocked","Male","ball","4","M_cling.wav","None","726.886907127","333","109175.959743","116041.905336","116808.612823","117575.212101","118341.737176","104508.444911","105275.456626","106041.983556","109925.191525","110691.592931","111458.684412","112225.416325","112991.893169","113758.603131","114525.557339","115275.431274","117585.356073","Mapping"
"Blocked","Male","ball","4","M_ball.wav","space","0.0349367037416","333","109175.959743","116041.905336","116808.612823","117575.212101","118341.737176","119108.430751","105275.456626","106041.983556","109925.191525","110691.592931","111458.684412","112225.416325","112991.893169","113758.603131","114525.557339","115275.431274","118351.030613","Mapping"
"Blocked","Male","ball","4","M_bluff.wav","None","722.066278569","333","109175.959743","116041.905336","116808.612823","117575.212101","118341.737176","119108.430751","119875.619004","106041.983556","109925.191525","110691.592931","111458.684412","112225.416325","112991.893169","113758.603131","114525.557339","115275.431274","119117.803337","Mapping"
"Blocked","Male","ball","4","M_gnash.wav","space","0.0389558263123","333","109175.959743","116041.905336","116808.612823","117575.212101","118341.737176","119108.430751","119875.619004","120625.112346","109925.191525","110691.592931","111458.684412","112225.416325","112991.893169","113758.603131","114525.557339","115275.431274","119885.694649","Mapping"
"Blocked","Male","done","20","M_priest.wav","None","733.89308108","333","123758.728037","116041.905336","116808.612823","117575.212101","118341.737176","119108.430751","119875.619004","120625.112346","109925.191525","110691.592931","111458.684412","112225.416325","112991.893169","113758.603131","114525.557339","115275.431274","120634.670745","Mapping"
"Blocked","Male","done","20","M_priest.wav","None","720.357478596","333","123758.728037","116041.905336","116808.612823","117575.212101","118341.737176","119108.430751","119875.619004","120625.112346","124508.166037","110691.592931","111458.684412","112225.416325","112991.893169","113758.603131","114525.557339","115275.431274","123768.782349","Mapping"
"Blocked","Male","done","20","M_romp.wav","None","735.018780921","333","123758.728037","116041.905336","116808.612823","117575.212101","118341.737176","119108.430751","119875.619004","120625.112346","124508.166037","125275.123955","111458.684412","112225.416325","112991.893169","113758.603131","114525.557339","115275.431274","124518.092352","Mapping"
"Blocked","Male","done","20","M_jaw.wav","None","732.502729166","333","123758.728037","116041.905336","116808.612823","117575.212101","118341.737176","119108.430751","119875.619004","120625.112346","124508.166037","125275.123955","126041.488879","112225.416325","112991.893169","113758.603131","114525.557339","115275.431274","125284.777889","Mapping"
"Blocked","Male","done","20","M_done.wav","None","730.420757085","333","123758.728037","116041.905336","116808.612823","117575.212101","118341.737176","119108.430751","119875.619004","120625.112346","124508.166037","125275.123955","126041.488879","126808.418663","112991.893169","113758.603131","114525.557339","115275.431274","126051.104475","Mapping"
"Blocked","Male","done","20","M_park.wav","space","511.838087346","333","123758.728037","116041.905336","116808.612823","117575.212101","118341.737176","119108.430751","119875.619004","120625.112346","124508.166037","125275.123955","126041.488879","126808.418663","127574.967235","113758.603131","114525.557339","115275.431274","126817.690458","Mapping"
"Blocked","Male","done","20","M_done.wav","None","725.238395855","333","123758.728037","116041.905336","116808.612823","117575.212101","118341.737176","119108.430751","119875.619004","120625.112346","124508.166037","125275.123955","126041.488879","126808.418663","127574.967235","128341.945868","114525.557339","115275.431274","127584.167611","Mapping"
"Blocked","Male","done","20","M_romp.wav","space","633.055314422","333","123758.728037","116041.905336","116808.612823","117575.212101","118341.737176","119108.430751","119875.619004","120625.112346","124508.166037","125275.123955","126041.488879","126808.418663","127574.967235","128341.945868","129092.001906","115275.431274","128352.416637","Mapping"
"Blocked","Male","done","20","M_done.wav","None","735.4027736","333","123758.728037","116041.905336","116808.612823","117575.212101","118341.737176","119108.430751","119875.619004","120625.112346","124508.166037","125275.123955","126041.488879","126808.418663","127574.967235","128341.945868","129092.001906","129857.964905","129101.540208","Mapping"
"Blocked","Male","done","20","M_lash.wav","space","566.034602933","333","123758.728037","130625.011865","116808.612823","117575.212101","118341.737176","119108.430751","119875.619004","120625.112346","124508.166037","125275.123955","126041.488879","126808.418663","127574.967235","128341.945868","129092.001906","129857.964905","129867.429933","Mapping"
"Blocked","Male","done","20","M_romp.wav","None","734.760002699","333","123758.728037","130625.011865","131391.516225","117575.212101","118341.737176","119108.430751","119875.619004","120625.112346","124508.166037","125275.123955","126041.488879","126808.418663","127574.967235","128341.945868","129092.001906","129857.964905","130629.995428","Mapping"
"Blocked","Male","done","20","M_done.wav","None","727.865749504","333","123758.728037","130625.011865","131391.516225","132158.341818","118341.737176","119108.430751","119875.619004","120625.112346","124508.166037","125275.123955","126041.488879","126808.418663","127574.967235","128341.945868","129092.001906","129857.964905","131401.152536","Mapping"
"Blocked","Male","done","20","M_lash.wav","space","497.383621987","333","123758.728037","130625.011865","131391.516225","132158.341818","132925.587267","119108.430751","119875.619004","120625.112346","124508.166037","125275.123955","126041.488879","126808.418663","127574.967235","128341.945868","129092.001906","129857.964905","132168.016775","Mapping"
"Blocked","Male","done","20","M_depth.wav","None","720.796504524","333","123758.728037","130625.011865","131391.516225","132158.341818","132925.587267","133691.957138","119875.619004","120625.112346","124508.166037","125275.123955","126041.488879","126808.418663","127574.967235","128341.945868","129092.001906","129857.964905","132936.080605","Mapping"
"Blocked","Male","done","20","M_park.wav","None","718.742048368","333","123758.728037","130625.011865","131391.516225","132158.341818","132925.587267","133691.957138","134441.391119","120625.112346","124508.166037","125275.123955","126041.488879","126808.418663","127574.967235","128341.945868","129092.001906","129857.964905","133702.278267","Mapping"
"Blocked","Male","done","20","M_dime.wav","None","733.917196747","333","123758.728037","130625.011865","131391.516225","132158.341818","132925.587267","133691.957138","134441.391119","135208.140963","124508.166037","125275.123955","126041.488879","126808.418663","127574.967235","128341.945868","129092.001906","129857.964905","134451.313105","Mapping"
"Blocked","Male","cave","10","M_park.wav","None","731.172666419","333","138341.421201","130625.011865","131391.516225","132158.341818","132925.587267","133691.957138","134441.391119","135208.140963","124508.166037","125275.123955","126041.488879","126808.418663","127574.967235","128341.945868","129092.001906","129857.964905","135218.275042","Mapping"
"Blocked","Male","cave","10","M_cave.wav","None","721.642402466","333","138341.421201","130625.011865","131391.516225","132158.341818","132925.587267","133691.957138","134441.391119","135208.140963","139091.309049","125275.123955","126041.488879","126808.418663","127574.967235","128341.945868","129092.001906","129857.964905","138350.802753","Mapping"
"Blocked","Male","cave","10","M_cling.wav","space","372.701490298","333","138341.421201","130625.011865","131391.516225","132158.341818","132925.587267","133691.957138","134441.391119","135208.140963","139091.309049","139858.249035","126041.488879","126808.418663","127574.967235","128341.945868","129092.001906","129857.964905","139100.662156","Mapping"
"Blocked","Male","cave","10","M_lash.wav","None","732.574148104","333","138341.421201","130625.011865","131391.516225","132158.341818","132925.587267","133691.957138","134441.391119","135208.140963","139091.309049","139858.249035","140624.829143","126808.418663","127574.967235","128341.945868","129092.001906","129857.964905","139867.430861","Mapping"
"Blocked","Male","cave","10","M_knife.wav","None","729.203542229","333","138341.421201","130625.011865","131391.516225","132158.341818","132925.587267","133691.957138","134441.391119","135208.140963","139091.309049","139858.249035","140624.829143","141391.386373","127574.967235","128341.945868","129092.001906","129857.964905","140634.961367","Mapping"
"Blocked","Male","cave","10","M_cad.wav","None","727.22050501","333","138341.421201","130625.011865","131391.516225","132158.341818","132925.587267","133691.957138","134441.391119","135208.140963","139091.309049","139858.249035","140624.829143","141391.386373","142158.10159","128341.945868","129092.001906","129857.964905","141401.206023","Mapping"
"Blocked","Male","cave","10","M_cave.wav","None","724.588204641","333","138341.421201","130625.011865","131391.516225","132158.341818","132925.587267","133691.957138","134441.391119","135208.140963","139091.309049","139858.249035","140624.829143","141391.386373","142158.10159","142925.128145","129092.001906","129857.964905","142168.214954","Mapping"
"Blocked","Male","cave","10","M_gnash.wav","space","489.218666684","333","138341.421201","130625.011865","131391.516225","132158.341818","132925.587267","133691.957138","134441.391119","135208.140963","139091.309049","139858.249035","140624.829143","141391.386373","142158.10159","142925.128145","143691.856038","129857.964905","142936.012587","Mapping"
"Blocked","Male","cave","10","M_cave.wav","None","686.170033645","333","138341.421201","130625.011865","131391.516225","132158.341818","132925.587267","133691.957138","134441.391119","135208.140963","139091.309049","139858.249035","140624.829143","141391.386373","142158.10159","142925.128145","143691.856038","144441.111626","143734.299644","Mapping"
"Blocked","Male","cave","10","M_dime.wav","None","734.863885213","333","138341.421201","145208.010183","131391.516225","132158.341818","132925.587267","133691.957138","134441.391119","135208.140963","139091.309049","139858.249035","140624.829143","141391.386373","142158.10159","142925.128145","143691.856038","144441.111626","144449.9614","Mapping"
"Blocked","Male","cave","10","M_dime.wav","space","303.542846814","333","138341.421201","145208.010183","145974.682734","132158.341818","132925.587267","133691.957138","134441.391119","135208.140963","139091.309049","139858.249035","140624.829143","141391.386373","142158.10159","142925.128145","143691.856038","144441.111626","145217.669063","Mapping"
"Blocked","Male","cave","10","M_jaw.wav","None","728.375575971","333","138341.421201","145208.010183","145974.682734","146741.091252","132925.587267","133691.957138","134441.391119","135208.140963","139091.309049","139858.249035","140624.829143","141391.386373","142158.10159","142925.128145","143691.856038","144441.111626","145984.173115","Mapping"
"Blocked","Male","cave","10","M_cave.wav","None","726.316791959","333","138341.421201","145208.010183","145974.682734","146741.091252","147508.539209","133691.957138","134441.391119","135208.140963","139091.309049","139858.249035","140624.829143","141391.386373","142158.10159","142925.128145","143691.856038","144441.111626","146750.310487","Mapping"
"Blocked","Male","cave","10","M_bluff.wav","space","450.858311262","333","138341.421201","145208.010183","145974.682734","146741.091252","147508.539209","148275.146525","134441.391119","135208.140963","139091.309049","139858.249035","140624.829143","141391.386373","142158.10159","142925.128145","143691.856038","144441.111626","147518.312792","Mapping"
"Blocked","Male","cave","10","M_jaw.wav","None","719.774996396","333","138341.421201","145208.010183","145974.682734","146741.091252","147508.539209","148275.146525","149024.301941","135208.140963","139091.309049","139858.249035","140624.829143","141391.386373","142158.10159","142925.128145","143691.856038","144441.111626","148284.802931","Mapping"
"Blocked","Male","cave","10","M_greet.wav","None","735.688759014","333","138341.421201","145208.010183","145974.682734","146741.091252","147508.539209","148275.146525","149024.301941","149790.796718","139091.309049","139858.249035","140624.829143","141391.386373","142158.10159","142925.128145","143691.856038","144441.111626","149033.714719","Mapping"
"Blocked","Male","cave","8","M_jolt.wav","None","734.13949227","333","152925.031064","145208.010183","145974.682734","146741.091252","147508.539209","148275.146525","149024.301941","149790.796718","139091.309049","139858.249035","140624.829143","141391.386373","142158.10159","142925.128145","143691.856038","144441.111626","149800.18167","Mapping"
"Blocked","Male","cave","8","M_park.wav","None","719.906704035","333","152925.031064","145208.010183","145974.682734","146741.091252","147508.539209","148275.146525","149024.301941","149790.796718","153674.301184","139858.249035","140624.829143","141391.386373","142158.10159","142925.128145","143691.856038","144441.111626","152934.685307","Mapping"
"Blocked","Male","cave","8","M_cave.wav","None","735.138121527","333","152925.031064","145208.010183","145974.682734","146741.091252","147508.539209","148275.146525","149024.301941","149790.796718","153674.301184","154441.1512","140624.829143","141391.386373","142158.10159","142925.128145","143691.856038","144441.111626","153683.69603","Mapping"
"Blocked","Male","cave","8","M_park.wav","space","430.656934157","333","152925.031064","145208.010183","145974.682734","146741.091252","147508.539209","148275.146525","149024.301941","149790.796718","153674.301184","154441.1512","155207.930416","141391.386373","142158.10159","142925.128145","143691.856038","144441.111626","154450.375383","Mapping"
"Blocked","Male","cave","8","M_cave.wav","None","729.485198855","333","152925.031064","145208.010183","145974.682734","146741.091252","147508.539209","148275.146525","149024.301941","149790.796718","153674.301184","154441.1512","155207.930416","155974.549481","142158.10159","142925.128145","143691.856038","144441.111626","155217.424198","Mapping"
"Blocked","Male","cave","8","M_knife.wav","space","400.82512144","333","152925.031064","145208.010183","145974.682734","146741.091252","147508.539209","148275.146525","149024.301941","149790.796718","153674.301184","154441.1512","155207.930416","155974.549481","156741.482356","142925.128145","143691.856038","144441.111626","155984.190119","Mapping"
"Blocked","Male","cave","8","M_park.wav","None","723.189504817","333","152925.031064","145208.010183","145974.682734","146741.091252","147508.539209","148275.146525","149024.301941","149790.796718","153674.301184","154441.1512","155207.930416","155974.549481","156741.482356","157508.14996","143691.856038","144441.111626","156751.56975","Mapping"
"Blocked","Male","cave","8","M_gnash.wav","None","720.900386572","333","152925.031064","145208.010183","145974.682734","146741.091252","147508.539209","148275.146525","149024.301941","149790.796718","153674.301184","154441.1512","155207.930416","155974.549481","156741.482356","157508.14996","158274.729141","144441.111626","157518.38452","Mapping"
"Blocked","Male","cave","8","M_knife.wav","None","718.664136715","333","152925.031064","145208.010183","145974.682734","146741.091252","147508.539209","148275.146525","149024.301941","149790.796718","153674.301184","154441.1512","155207.930416","155974.549481","156741.482356","157508.14996","158274.729141","159024.410152","158284.965247","Mapping"
"Blocked","Male","cave","8","M_jaw.wav","None","739.389871247","333","152925.031064","159791.017158","145974.682734","146741.091252","147508.539209","148275.146525","149024.301941","149790.796718","153674.301184","154441.1512","155207.930416","155974.549481","156741.482356","157508.14996","158274.729141","159024.410152","159028.578116","Mapping"
"Blocked","Male","cave","8","M_cave.wav","None","732.255700044","333","152925.031064","159791.017158","160557.798848","146741.091252","147508.539209","148275.146525","149024.301941","149790.796718","153674.301184","154441.1512","155207.930416","155974.549481","156741.482356","157508.14996","158274.729141","159024.410152","159800.559171","Mapping"
"Blocked","Male","cave","8","M_romp.wav","space","457.407836337","333","152925.031064","159791.017158","160557.798848","161324.397197","147508.539209","148275.146525","149024.301941","149790.796718","153674.301184","154441.1512","155207.930416","155974.549481","156741.482356","157508.14996","158274.729141","159024.410152","160567.51307","Mapping"
"Blocked","Male","cave","8","M_cling.wav","None","732.184280641","333","152925.031064","159791.017158","160557.798848","161324.397197","162091.043469","148275.146525","149024.301941","149790.796718","153674.301184","154441.1512","155207.930416","155974.549481","156741.482356","157508.14996","158274.729141","159024.410152","161328.488486","Mapping"
"Blocked","Male","cave","8","M_cad.wav","None","724.531007465","333","152925.031064","159791.017158","160557.798848","161324.397197","162091.043469","162857.878336","149024.301941","149790.796718","153674.301184","154441.1512","155207.930416","155974.549481","156741.482356","157508.14996","158274.729141","159024.410152","162100.580844","Mapping"
"Blocked","Male","cave","8","M_cave.wav","None","721.853876486","333","152925.031064","159791.017158","160557.798848","161324.397197","162091.043469","162857.878336","163624.947557","149790.796718","153674.301184","154441.1512","155207.930416","155974.549481","156741.482356","157508.14996","158274.729141","159024.410152","162867.489913","Mapping"
"Blocked","Male","cave","8","M_romp.wav","space","525.470152032","333","152925.031064","159791.017158","160557.798848","161324.397197","162091.043469","162857.878336","163624.947557","164374.378137","153674.301184","154441.1512","155207.930416","155974.549481","156741.482356","157508.14996","158274.729141","159024.410152","163635.418016","Mapping"
"Blocked","Male","cave","12","M_park.wav","None","733.271951787","333","167507.894583","159791.017158","160557.798848","161324.397197","162091.043469","162857.878336","163624.947557","164374.378137","153674.301184","154441.1512","155207.930416","155974.549481","156741.482356","157508.14996","158274.729141","159024.410152","164383.876247","Mapping"
"Blocked","Male","cave","12","M_cave.wav","None","719.653490931","333","167507.894583","159791.017158","160557.798848","161324.397197","162091.043469","162857.878336","163624.947557","164374.378137","168257.579613","154441.1512","155207.930416","155974.549481","156741.482356","157508.14996","158274.729141","159024.410152","167518.709462","Mapping"
"Blocked","Male","cave","12","M_cling.wav","space","414.025271311","333","167507.894583","159791.017158","160557.798848","161324.397197","162091.043469","162857.878336","163624.947557","164374.378137","168257.579613","169024.25","155207.930416","155974.549481","156741.482356","157508.14996","158274.729141","159024.410152","168266.729903","Mapping"
"Blocked","Male","cave","12","M_cave.wav","None","732.502420433","333","167507.894583","159791.017158","160557.798848","161324.397197","162091.043469","162857.878336","163624.947557","164374.378137","168257.579613","169024.25","169790.815577","155974.549481","156741.482356","157508.14996","158274.729141","159024.410152","169033.735434","Mapping"
"Blocked","Male","cave","12","M_romp.wav","space","360.565514769","333","167507.894583","159791.017158","160557.798848","161324.397197","162091.043469","162857.878336","163624.947557","164374.378137","168257.579613","169024.25","169790.815577","170557.587682","156741.482356","157508.14996","158274.729141","159024.410152","169800.21166","Mapping"
"Blocked","Male","cave","12","M_jolt.wav","None","727.70343395","333","167507.894583","159791.017158","160557.798848","161324.397197","162091.043469","162857.878336","163624.947557","164374.378137","168257.579613","169024.25","169790.815577","170557.587682","171324.189433","157508.14996","158274.729141","159024.410152","170567.055493","Mapping"
"Blocked","Male","cave","12","M_lash.wav","None","724.85594824","333","167507.894583","159791.017158","160557.798848","161324.397197","162091.043469","162857.878336","163624.947557","164374.378137","168257.579613","169024.25","169790.815577","170557.587682","171324.189433","172091.150134","158274.729141","159024.410152","171334.153776","Mapping"
"Blocked","Male","cave","12","M_cave.wav","None","722.198914271","333","167507.894583","159791.017158","160557.798848","161324.397197","162091.043469","162857.878336","163624.947557","164374.378137","168257.579613","169024.25","169790.815577","170557.587682","171324.189433","172091.150134","172858.026121","159024.410152","172101.187441","Mapping"
"Blocked","Male","cave","12","M_jaw.wav","space","244.676269125","333","167507.894583","159791.017158","160557.798848","161324.397197","162091.043469","162857.878336","163624.947557","164374.378137","168257.579613","169024.25","169790.815577","170557.587682","171324.189433","172091.150134","172858.026121","173607.364258","172868.046734","Mapping"
"Blocked","Male","cave","12","M_depth.wav","None","734.394250903","333","167507.894583","174373.794727","160557.798848","161324.397197","162091.043469","162857.878336","163624.947557","164374.378137","168257.579613","169024.25","169790.815577","170557.587682","171324.189433","172091.150134","172858.026121","173607.364258","173616.918329","Mapping"
"Blocked","Male","cave","12","M_depth.wav","None","735.173676629","333","167507.894583","174373.794727","175140.726675","161324.397197","162091.043469","162857.878336","163624.947557","164374.378137","168257.579613","169024.25","169790.815577","170557.587682","171324.189433","172091.150134","172858.026121","173607.364258","174382.64852","Mapping"
"Blocked","Male","cave","12","M_cad.wav","None","732.103586663","333","167507.894583","174373.794727","175140.726675","175907.515166","162091.043469","162857.878336","163624.947557","164374.378137","168257.579613","169024.25","169790.815577","170557.587682","171324.189433","172091.150134","172858.026121","173607.364258","175150.16264","Mapping"
"Blocked","Male","cave","12","M_romp.wav","space","395.50301386","333","167507.894583","174373.794727","175140.726675","175907.515166","176674.105786","162857.878336","163624.947557","164374.378137","168257.579613","169024.25","169790.815577","170557.587682","171324.189433","172091.150134","172858.026121","173607.364258","175917.168481","Mapping"
"Blocked","Male","cave","12","M_gnash.wav","None","726.51342582","333","167507.894583","174373.794727","175140.726675","175907.515166","176674.105786","177440.496372","163624.947557","164374.378137","168257.579613","169024.25","169790.815577","170557.587682","171324.189433","172091.150134","172858.026121","173607.364258","176683.667895","Mapping"
"Blocked","Male","cave","12","M_cave.wav","None","725.251999684","333","167507.894583","174373.794727","175140.726675","175907.515166","176674.105786","177440.496372","178207.789742","164374.378137","168257.579613","169024.25","169790.815577","170557.587682","171324.189433","172091.150134","172858.026121","173607.364258","177449.394685","Mapping"
"Blocked","Male","cave","12","M_cling.wav","space","423.02344786","333","167507.894583","174373.794727","175140.726675","175907.515166","176674.105786","177440.496372","178207.789742","178957.26608","168257.579613","169024.25","169790.815577","170557.587682","171324.189433","172091.150134","172858.026121","173607.364258","178217.620832","Mapping"
"Blocked","Male","tile","13","M_romp.wav","None","735.597553197","333","182091.059855","174373.794727","175140.726675","175907.515166","176674.105786","177440.496372","178207.789742","178957.26608","168257.579613","169024.25","169790.815577","170557.587682","171324.189433","172091.150134","172858.026121","173607.364258","178966.997616","Mapping"
"Blocked","Male","tile","13","M_cad.wav","None","720.135801472","333","182091.059855","174373.794727","175140.726675","175907.515166","176674.105786","177440.496372","178207.789742","178957.26608","182840.482397","169024.25","169790.815577","170557.587682","171324.189433","172091.150134","172858.026121","173607.364258","182101.060371","Mapping"
"Blocked","Male","tile","13","M_tile.wav","None","736.10366974","333","182091.059855","174373.794727","175140.726675","175907.515166","176674.105786","177440.496372","178207.789742","178957.26608","182840.482397","183607.40476","169790.815577","170557.587682","171324.189433","172091.150134","172858.026121","173607.364258","182849.640107","Mapping"
"Blocked","Male","tile","13","M_dime.wav","space","287.468004506","333","182091.059855","174373.794727","175140.726675","175907.515166","176674.105786","177440.496372","178207.789742","178957.26608","182840.482397","183607.40476","184374.059997","170557.587682","171324.189433","172091.150134","172858.026121","173607.364258","183617.055911","Mapping"
"Blocked","Male","tile","13","M_tile.wav","None","730.428486131","333","182091.059855","174373.794727","175140.726675","175907.515166","176674.105786","177440.496372","178207.789742","178957.26608","182840.482397","183607.40476","184374.059997","185140.384111","171324.189433","172091.150134","172858.026121","173607.364258","184383.518224","Mapping"
"Blocked","Male","tile","13","M_jaw.wav","space","427.252628375","333","182091.059855","174373.794727","175140.726675","175907.515166","176674.105786","177440.496372","178207.789742","178957.26608","182840.482397","183607.40476","184374.059997","185140.384111","185907.298745","172091.150134","172858.026121","173607.364258","185149.239449","Mapping"
"Blocked","Male","tile","13","M_jolt.wav","None","725.515105762","333","182091.059855","174373.794727","175140.726675","175907.515166","176674.105786","177440.496372","178207.789742","178957.26608","182840.482397","183607.40476","184374.059997","185140.384111","185907.298745","186674.288508","172858.026121","173607.364258","185916.558482","Mapping"
"Blocked","Male","tile","13","M_tile.wav","None","722.045254894","333","182091.059855","174373.794727","175140.726675","175907.515166","176674.105786","177440.496372","178207.789742","178957.26608","182840.482397","183607.40476","184374.059997","185140.384111","185907.298745","186674.288508","187440.870162","173607.364258","186684.620458","Mapping"
"Blocked","Male","tile","13","M_priest.wav","space","422.073667869","333","182091.059855","174373.794727","175140.726675","175907.515166","176674.105786","177440.496372","178207.789742","178957.26608","182840.482397","183607.40476","184374.059997","185140.384111","185907.298745","186674.288508","187440.870162","188190.373398","187450.365799","Mapping"
"Blocked","Male","tile","13","M_reek.wav","None","735.306311864","333","182091.059855","188957.365634","175140.726675","175907.515166","176674.105786","177440.496372","178207.789742","178957.26608","182840.482397","183607.40476","184374.059997","185140.384111","185907.298745","186674.288508","187440.870162","188190.373398","188199.553059","Mapping"
"Blocked","Male","tile","13","M_priest.wav","None","733.079337515","333","182091.059855","188957.365634","189723.908951","175907.515166","176674.105786","177440.496372","178207.789742","178957.26608","182840.482397","183607.40476","184374.059997","185140.384111","185907.298745","186674.288508","187440.870162","188190.373398","188966.324546","Mapping"
"Blocked","Male","tile","13","M_greet.wav","None","730.063352734","333","182091.059855","188957.365634","189723.908951","190490.262127","176674.105786","177440.496372","178207.789742","178957.26608","182840.482397","183607.40476","184374.059997","185140.384111","185907.298745","186674.288508","187440.870162","188190.373398","189733.884734","Mapping"
"Blocked","Male","tile","13","M_gnash.wav","None","729.013091419","333","182091.059855","188957.365634","189723.908951","190490.262127","191257.267348","177440.496372","178207.789742","178957.26608","182840.482397","183607.40476","184374.059997","185140.384111","185907.298745","186674.288508","187440.870162","188190.373398","190499.253192","Mapping"
"Blocked","Male","tile","13","M_dime.wav","None","726.063269656","333","182091.059855","188957.365634","189723.908951","190490.262127","191257.267348","192024.278135","178207.789742","178957.26608","182840.482397","183607.40476","184374.059997","185140.384111","185907.298745","186674.288508","187440.870162","188190.373398","191266.720628","Mapping"
"Blocked","Male","tile","13","M_tile.wav","None","722.839829978","333","182091.059855","188957.365634","189723.908951","190490.262127","191257.267348","192024.278135","192790.907711","178957.26608","182840.482397","183607.40476","184374.059997","185140.384111","185907.298745","186674.288508","187440.870162","188190.373398","192034.465701","Mapping"
"Blocked","Male","tile","13","M_depth.wav","space","279.953240883","333","182091.059855","188957.365634","189723.908951","190490.262127","191257.267348","192024.278135","192790.907711","193540.43599","182840.482397","183607.40476","184374.059997","185140.384111","185907.298745","186674.288508","187440.870162","188190.373398","192800.369957","Mapping"
"Blocked","Male","cave","11","M_cling.wav","None","735.704527237","333","196674.126501","188957.365634","189723.908951","190490.262127","191257.267348","192024.278135","192790.907711","193540.43599","182840.482397","183607.40476","184374.059997","185140.384111","185907.298745","186674.288508","187440.870162","188190.373398","193549.885869","Mapping"
"Blocked","Male","cave","11","M_depth.wav","None","719.61113438","333","196674.126501","188957.365634","189723.908951","190490.262127","191257.267348","192024.278135","192790.907711","193540.43599","197423.644268","183607.40476","184374.059997","185140.384111","185907.298745","186674.288508","187440.870162","188190.373398","196684.037975","Mapping"
"Blocked","Male","cave","11","M_cave.wav","None","735.592606012","333","196674.126501","188957.365634","189723.908951","190490.262127","191257.267348","192024.278135","192790.907711","193540.43599","197423.644268","198190.471096","184374.059997","185140.384111","185907.298745","186674.288508","187440.870162","188190.373398","197432.733032","Mapping"
"Blocked","Male","cave","11","M_reek.wav","space","296.429390088","333","196674.126501","188957.365634","189723.908951","190490.262127","191257.267348","192024.278135","192790.907711","193540.43599","197423.644268","198190.471096","198956.989061","185140.384111","185907.298745","186674.288508","187440.870162","188190.373398","198199.826987","Mapping"
"Blocked","Male","cave","11","M_bluff.wav","None","729.985131882","333","196674.126501","188957.365634","189723.908951","190490.262127","191257.267348","192024.278135","192790.907711","193540.43599","197423.644268","198190.471096","198956.989061","199723.759002","185907.298745","186674.288508","187440.870162","188190.373398","198966.3904","Mapping"
"Blocked","Male","cave","11","M_bluff.wav","None","727.775470819","333","196674.126501","188957.365634","189723.908951","190490.262127","191257.267348","192024.278135","192790.907711","193540.43599","197423.644268","198190.471096","198956.989061","199723.759002","200490.129182","186674.288508","187440.870162","188190.373398","199733.457456","Mapping"
"Blocked","Male","cave","11","M_cave.wav","None","726.979968138","333","196674.126501","188957.365634","189723.908951","190490.262127","191257.267348","192024.278135","192790.907711","193540.43599","197423.644268","198190.471096","198956.989061","199723.759002","200490.129182","201257.39009","187440.870162","188190.373398","200499.195377","Mapping"
"Blocked","Male","cave","11","M_jolt.wav","space","524.644350633","333","196674.126501","188957.365634","189723.908951","190490.262127","191257.267348","192024.278135","192790.907711","193540.43599","197423.644268","198190.471096","198956.989061","199723.759002","200490.129182","201257.39009","202024.034197","188190.373398","201267.556941","Mapping"
"Blocked","Male","cave","11","M_bluff.wav","None","720.159298275","333","196674.126501","188957.365634","189723.908951","190490.262127","191257.267348","192024.278135","192790.907711","193540.43599","197423.644268","198190.471096","198956.989061","199723.759002","200490.129182","201257.39009","202024.034197","202773.962546","202034.245261","Mapping"
"Blocked","Male","cave","11","M_cave.wav","None","735.962995328","333","196674.126501","203540.208129","189723.908951","190490.262127","191257.267348","192024.278135","192790.907711","193540.43599","197423.644268","198190.471096","198956.989061","199723.759002","200490.129182","201257.39009","202024.034197","202773.962546","202783.094595","Mapping"
"Blocked","Male","cave","11","M_priest.wav","space","410.517701413","333","196674.126501","203540.208129","204306.950554","190490.262127","191257.267348","192024.278135","192790.907711","193540.43599","197423.644268","198190.471096","198956.989061","199723.759002","200490.129182","201257.39009","202024.034197","202773.962546","203549.666356","Mapping"
"Blocked","Male","cave","11","M_reek.wav","None","730.831029825","333","196674.126501","203540.208129","204306.950554","205073.610738","191257.267348","192024.278135","192790.907711","193540.43599","197423.644268","198190.471096","198956.989061","199723.759002","200490.129182","201257.39009","202024.034197","202773.962546","204316.200397","Mapping"
"Blocked","Male","cave","11","M_cave.wav","None","728.683203459","333","196674.126501","203540.208129","204306.950554","205073.610738","205839.787994","192024.278135","192790.907711","193540.43599","197423.644268","198190.471096","198956.989061","199723.759002","200490.129182","201257.39009","202024.034197","202773.962546","205083.040211","Mapping"
"Blocked","Male","cave","11","M_park.wav","space","375.368109439","333","196674.126501","203540.208129","204306.950554","205073.610738","205839.787994","206606.558862","192790.907711","193540.43599","197423.644268","198190.471096","198956.989061","199723.759002","200490.129182","201257.39009","202024.034197","202773.962546","205848.67054","Mapping"
"Blocked","Male","cave","11","M_greet.wav","None","727.525658906","333","196674.126501","203540.208129","204306.950554","205073.610738","205839.787994","206606.558862","207373.592528","193540.43599","197423.644268","198190.471096","198956.989061","199723.759002","200490.129182","201257.39009","202024.034197","202773.962546","206615.582082","Mapping"
"Blocked","Male","cave","11","M_cad.wav","None","724.670753814","333","196674.126501","203540.208129","204306.950554","205073.610738","205839.787994","206606.558862","207373.592528","208140.622792","197423.644268","198190.471096","198956.989061","199723.759002","200490.129182","201257.39009","202024.034197","202773.962546","207383.006542","Mapping"
"Blocked","Male","ball","3","M_gnash.wav","None","722.06596937","333","211257.336294","203540.208129","204306.950554","205073.610738","205839.787994","206606.558862","207373.592528","208140.622792","197423.644268","198190.471096","198956.989061","199723.759002","200490.129182","201257.39009","202024.034197","202773.962546","208150.586517","Mapping"
"Blocked","Male","ball","3","M_ball.wav","None","720.458578318","333","211257.336294","203540.208129","204306.950554","205073.610738","205839.787994","206606.558862","207373.592528","208140.622792","212023.676484","198190.471096","198956.989061","199723.759002","200490.129182","201257.39009","202024.034197","202773.962546","211267.20603","Mapping"
"Blocked","Male","ball","3","M_priest.wav","space","447.070321534","333","211257.336294","203540.208129","204306.950554","205073.610738","205839.787994","206606.558862","207373.592528","208140.622792","212023.676484","212773.488584","198956.989061","199723.759002","200490.129182","201257.39009","202024.034197","202773.962546","212032.934675","Mapping"
"Blocked","Male","ball","3","M_park.wav","None","733.119839337","333","211257.336294","203540.208129","204306.950554","205073.610738","205839.787994","206606.558862","207373.592528","208140.622792","212023.676484","212773.488584","213540.186796","199723.759002","200490.129182","201257.39009","202024.034197","202773.962546","212782.851276","Mapping"
"Blocked","Male","ball","3","M_ball.wav","None","730.698703323","333","211257.336294","203540.208129","204306.950554","205073.610738","205839.787994","206606.558862","207373.592528","208140.622792","212023.676484","212773.488584","213540.186796","214306.807407","200490.129182","201257.39009","202024.034197","202773.962546","213549.963471","Mapping"
"Blocked","Male","ball","3","M_priest.wav","space","443.621493876","333","211257.336294","203540.208129","204306.950554","205073.610738","205839.787994","206606.558862","207373.592528","208140.622792","212023.676484","212773.488584","213540.186796","214306.807407","215073.112969","201257.39009","202024.034197","202773.962546","214316.346946","Mapping"
"Blocked","Male","ball","3","M_gnash.wav","None","726.810850203","333","211257.336294","203540.208129","204306.950554","205073.610738","205839.787994","206606.558862","207373.592528","208140.622792","212023.676484","212773.488584","213540.186796","214306.807407","215073.112969","215840.464156","202024.034197","202773.962546","215082.332514","Mapping"
"Blocked","Male","ball","3","M_ball.wav","None","723.49063959","333","211257.336294","203540.208129","204306.950554","205073.610738","205839.787994","206606.558862","207373.592528","208140.622792","212023.676484","212773.488584","213540.186796","214306.807407","215073.112969","215840.464156","216607.15062","202773.962546","215850.433755","Mapping"
"Blocked","Male","ball","3","M_bluff.wav","space","678.8936425","333","211257.336294","203540.208129","204306.950554","205073.610738","205839.787994","206606.558862","207373.592528","208140.622792","212023.676484","212773.488584","213540.186796","214306.807407","215073.112969","215840.464156","216607.15062","217356.335407","216617.025611","Mapping"
"Blocked","Male","ball","3","M_knife.wav","None","736.540530808","333","211257.336294","218123.015997","204306.950554","205073.610738","205839.787994","206606.558862","207373.592528","208140.622792","212023.676484","212773.488584","213540.186796","214306.807407","215073.112969","215840.464156","216607.15062","217356.335407","217365.596381","Mapping"
"Blocked","Male","ball","3","M_ball.wav","None","734.853991773","333","211257.336294","218123.015997","218889.984736","205073.610738","205839.787994","206606.558862","207373.592528","208140.622792","212023.676484","212773.488584","213540.186796","214306.807407","215073.112969","215840.464156","216607.15062","217356.335407","218132.059313","Mapping"
"Blocked","Male","ball","3","M_lash.wav","space","404.102975968","333","211257.336294","218123.015997","218889.984736","219656.760242","205839.787994","206606.558862","207373.592528","208140.622792","212023.676484","212773.488584","213540.186796","214306.807407","215073.112969","215840.464156","216607.15062","217356.335407","218899.790473","Mapping"
"Blocked","Male","ball","3","M_jolt.wav","None","729.052974842","333","211257.336294","218123.015997","218889.984736","219656.760242","220423.347462","206606.558862","207373.592528","208140.622792","212023.676484","212773.488584","213540.186796","214306.807407","215073.112969","215840.464156","216607.15062","217356.335407","219666.079959","Mapping"
"Blocked","Male","ball","3","M_gnash.wav","None","727.078903932","333","211257.336294","218123.015997","218889.984736","219656.760242","220423.347462","221190.004554","207373.592528","208140.622792","212023.676484","212773.488584","213540.186796","214306.807407","215073.112969","215840.464156","216607.15062","217356.335407","220432.855465","Mapping"
"Blocked","Male","ball","3","M_bluff.wav","None","725.436266512","333","211257.336294","218123.015997","218889.984736","219656.760242","220423.347462","221190.004554","221957.059553","208140.622792","212023.676484","212773.488584","213540.186796","214306.807407","215073.112969","215840.464156","216607.15062","217356.335407","221199.494625","Mapping"
"Blocked","Male","ball","3","M_priest.wav","None","722.069679759","333","211257.336294","218123.015997","218889.984736","219656.760242","220423.347462","221190.004554","221957.059553","222723.736123","212023.676484","212773.488584","213540.186796","214306.807407","215073.112969","215840.464156","216607.15062","217356.335407","221967.762819","Mapping"
"Blocked","Male","tile","17","M_cling.wav","None","720.967167988","333","225840.260411","218123.015997","218889.984736","219656.760242","220423.347462","221190.004554","221957.059553","222723.736123","212023.676484","212773.488584","213540.186796","214306.807407","215073.112969","215840.464156","216607.15062","217356.335407","222733.753026","Mapping"
"Blocked","Male","tile","17","M_reek.wav","None","720.367681235","333","225840.260411","218123.015997","218889.984736","219656.760242","220423.347462","221190.004554","221957.059553","222723.736123","226606.829698","212773.488584","213540.186796","214306.807407","215073.112969","215840.464156","216607.15062","217356.335407","225850.292772","Mapping"
"Blocked","Male","tile","17","M_cad.wav","None","718.509550206","333","225840.260411","218123.015997","218889.984736","219656.760242","220423.347462","221190.004554","221957.059553","222723.736123","226606.829698","227356.143102","213540.186796","214306.807407","215073.112969","215840.464156","216607.15062","217356.335407","226617.11991","Mapping"
"Blocked","Male","tile","17","M_cling.wav","None","735.37340248","333","225840.260411","218123.015997","218889.984736","219656.760242","220423.347462","221190.004554","221957.059553","222723.736123","226606.829698","227356.143102","228122.802358","214306.807407","215073.112969","215840.464156","216607.15062","217356.335407","227365.231557","Mapping"
"Blocked","Male","tile","17","M_priest.wav","None","734.273364302","333","225840.260411","218123.015997","218889.984736","219656.760242","220423.347462","221190.004554","221957.059553","222723.736123","226606.829698","227356.143102","228122.802358","228889.844681","215073.112969","215840.464156","216607.15062","217356.335407","228131.743029","Mapping"
"Blocked","Male","tile","17","M_tile.wav","None","731.80739861","333","225840.260411","218123.015997","218889.984736","219656.760242","220423.347462","221190.004554","221957.059553","222723.736123","226606.829698","227356.143102","228122.802358","228889.844681","229656.15921","215840.464156","216607.15062","217356.335407","228899.313728","Mapping"
"Blocked","Male","tile","17","M_bluff.wav","space","526.359024923","333","225840.260411","218123.015997","218889.984736","219656.760242","220423.347462","221190.004554","221957.059553","222723.736123","226606.829698","227356.143102","228122.802358","228889.844681","229656.15921","230423.128258","216607.15062","217356.335407","229665.389884","Mapping"
"Blocked","Male","tile","17","M_tile.wav","None","726.73664894","333","225840.260411","218123.015997","218889.984736","219656.760242","220423.347462","221190.004554","221957.059553","222723.736123","226606.829698","227356.143102","228122.802358","228889.844681","229656.15921","230423.128258","231189.753196","217356.335407","230433.049007","Mapping"
"Blocked","Male","tile","17","M_jolt.wav","space","480.349414982","333","225840.260411","218123.015997","218889.984736","219656.760242","220423.347462","221190.004554","221957.059553","222723.736123","226606.829698","227356.143102","228122.802358","228889.844681","229656.15921","230423.128258","231189.753196","231956.863228","231199.303248","Mapping"
"Blocked","Male","tile","17","M_depth.wav","None","721.555215772","333","225840.260411","232723.29586","218889.984736","219656.760242","220423.347462","221190.004554","221957.059553","222723.736123","226606.829698","227356.143102","228122.802358","228889.844681","229656.15921","230423.128258","231189.753196","231956.863228","231966.712867","Mapping"
"Blocked","Male","tile","17","M_jaw.wav","None","719.690282363","333","225840.260411","232723.29586","233473.403839","219656.760242","220423.347462","221190.004554","221957.059553","222723.736123","226606.829698","227356.143102","228122.802358","228889.844681","229656.15921","230423.128258","231189.753196","231956.863228","232733.668931","Mapping"
"Blocked","Male","tile","17","M_tile.wav","None","735.544993542","333","225840.260411","232723.29586","233473.403839","234239.604902","220423.347462","221190.004554","221957.059553","222723.736123","226606.829698","227356.143102","228122.802358","228889.844681","229656.15921","230423.128258","231189.753196","231956.863228","233482.75942","Mapping"
"Blocked","Male","tile","17","M_gnash.wav","space","550.561412238","333","225840.260411","232723.29586","233473.403839","234239.604902","235006.299713","221190.004554","221957.059553","222723.736123","226606.829698","227356.143102","228122.802358","228889.844681","229656.15921","230423.128258","231189.753196","231956.863228","234249.026336","Mapping"
"Blocked","Male","tile","17","M_reek.wav","None","731.222134084","333","225840.260411","232723.29586","233473.403839","234239.604902","235006.299713","235773.112011","221957.059553","222723.736123","226606.829698","227356.143102","228122.802358","228889.844681","229656.15921","230423.128258","231189.753196","231956.863228","235015.773708","Mapping"
"Blocked","Male","tile","17","M_tile.wav","None","729.705021251","333","225840.260411","232723.29586","233473.403839","234239.604902","235006.299713","235773.112011","236539.593493","222723.736123","226606.829698","227356.143102","228122.802358","228889.844681","229656.15921","230423.128258","231189.753196","231956.863228","235782.372985","Mapping"
"Blocked","Male","tile","17","M_knife.wav","space","522.53795322","333","225840.260411","232723.29586","233473.403839","234239.604902","235006.299713","235773.112011","236539.593493","237306.338391","226606.829698","227356.143102","228122.802358","228889.844681","229656.15921","230423.128258","231189.753196","231956.863228","236549.001634","Mapping"
"Blocked","Male","done","23","M_dime.wav","None","724.967560265","333","240439.801969","232723.29586","233473.403839","234239.604902","235006.299713","235773.112011","236539.593493","237306.338391","226606.829698","227356.143102","228122.802358","228889.844681","229656.15921","230423.128258","231189.753196","231956.863228","237315.910084","Mapping"
"Blocked","Male","done","23","M_jaw.wav","None","720.199490897","333","240439.801969","232723.29586","233473.403839","234239.604902","235006.299713","235773.112011","236539.593493","237306.338391","241206.333537","227356.143102","228122.802358","228889.844681","229656.15921","230423.128258","231189.753196","231956.863228","240449.970057","Mapping"
"Blocked","Male","done","23","M_done.wav","None","718.355272897","333","240439.801969","232723.29586","233473.403839","234239.604902","235006.299713","235773.112011","236539.593493","237306.338391","241206.333537","241956.159549","228122.802358","228889.844681","229656.15921","230423.128258","231189.753196","231956.863228","241216.842643","Mapping"
"Blocked","Male","done","23","M_depth.wav","space","585.745940451","333","240439.801969","232723.29586","233473.403839","234239.604902","235006.299713","235773.112011","236539.593493","237306.338391","241206.333537","241956.159549","242723.024406","228889.844681","229656.15921","230423.128258","231189.753196","231956.863228","241965.760614","Mapping"
"Blocked","Male","done","23","M_done.wav","None","731.374556664","333","240439.801969","232723.29586","233473.403839","234239.604902","235006.299713","235773.112011","236539.593493","237306.338391","241206.333537","241956.159549","242723.024406","243489.480846","229656.15921","230423.128258","231189.753196","231956.863228","242732.61836","Mapping"
"Blocked","Male","done","23","M_greet.wav","space","485.033079982","333","240439.801969","232723.29586","233473.403839","234239.604902","235006.299713","235773.112011","236539.593493","237306.338391","241206.333537","241956.159549","242723.024406","243489.480846","244256.347867","230423.128258","231189.753196","231956.863228","243498.426772","Mapping"
"Blocked","Male","done","23","M_cling.wav","None","727.251422592","333","240439.801969","232723.29586","233473.403839","234239.604902","235006.299713","235773.112011","236539.593493","237306.338391","241206.333537","241956.159549","242723.024406","243489.480846","244256.347867","245022.871397","231189.753196","231956.863228","244265.461984","Mapping"
"Blocked","Male","done","23","M_done.wav","None","725.360519253","333","240439.801969","232723.29586","233473.403839","234239.604902","235006.299713","235773.112011","236539.593493","237306.338391","241206.333537","241956.159549","242723.024406","243489.480846","244256.347867","245022.871397","245789.902589","231956.863228","245032.350647","Mapping"
"Blocked","Male","done","23","M_cad.wav","space","535.530647729","333","240439.801969","232723.29586","233473.403839","234239.604902","235006.299713","235773.112011","236539.593493","237306.338391","241206.333537","241956.159549","242723.024406","243489.480846","244256.347867","245022.871397","245789.902589","246556.61997","245799.862604","Mapping"
"Blocked","Male","done","23","M_knife.wav","None","719.240744598","333","240439.801969","247323.043637","233473.403839","234239.604902","235006.299713","235773.112011","236539.593493","237306.338391","241206.333537","241956.159549","242723.024406","243489.480846","244256.347867","245022.871397","245789.902589","246556.61997","246567.281499","Mapping"
"Blocked","Male","done","23","M_depth.wav","None","718.322500121","333","240439.801969","247323.043637","248072.735778","234239.604902","235006.299713","235773.112011","236539.593493","237306.338391","241206.333537","241956.159549","242723.024406","243489.480846","244256.347867","245022.871397","245789.902589","246556.61997","247333.31468","Mapping"
"Blocked","Male","done","23","M_jaw.wav","None","734.591812361","333","240439.801969","247323.043637","248072.735778","248839.098538","235006.299713","235773.112011","236539.593493","237306.338391","241206.333537","241956.159549","242723.024406","243489.480846","244256.347867","245022.871397","245789.902589","246556.61997","248082.064461","Mapping"
"Blocked","Male","done","23","M_done.wav","None","733.856598847","333","240439.801969","247323.043637","248072.735778","248839.098538","249605.769543","235773.112011","236539.593493","237306.338391","241206.333537","241956.159549","242723.024406","243489.480846","244256.347867","245022.871397","245789.902589","246556.61997","248847.905645","Mapping"
"Blocked","Male","done","23","M_jaw.wav","space","512.108304538","333","240439.801969","247323.043637","248072.735778","248839.098538","249605.769543","250372.450133","236539.593493","237306.338391","241206.333537","241956.159549","242723.024406","243489.480846","244256.347867","245022.871397","245789.902589","246556.61997","249615.23148","Mapping"
"Blocked","Male","done","23","M_romp.wav","None","729.107080027","333","240439.801969","247323.043637","248072.735778","248839.098538","249605.769543","250372.450133","251139.396302","237306.338391","241206.333537","241956.159549","242723.024406","243489.480846","244256.347867","245022.871397","245789.902589","246556.61997","250381.326186","Mapping"
"Blocked","Male","done","23","M_reek.wav","None","726.728301495","333","240439.801969","247323.043637","248072.735778","248839.098538","249605.769543","250372.450133","251139.396302","251906.102553","241206.333537","241956.159549","242723.024406","243489.480846","244256.347867","245022.871397","245789.902589","246556.61997","251148.799805","Mapping"
"Blocked","Male","done","24","M_greet.wav","None","725.092465989","333","255023.208396","247323.043637","248072.735778","248839.098538","249605.769543","250372.450133","251139.396302","251906.102553","241206.333537","241956.159549","242723.024406","243489.480846","244256.347867","245022.871397","245789.902589","246556.61997","251915.356108","Mapping"
"Blocked","Male","done","24","M_done.wav","None","719.490865711","333","255023.208396","247323.043637","248072.735778","248839.098538","249605.769543","250372.450133","251139.396302","251906.102553","255772.726781","241956.159549","242723.024406","243489.480846","244256.347867","245022.871397","245789.902589","246556.61997","255033.281877","Mapping"
"Blocked","Male","done","24","M_lash.wav","space","585.374623537","333","255023.208396","247323.043637","248072.735778","248839.098538","249605.769543","250372.450133","251139.396302","251906.102553","255772.726781","256539.254639","242723.024406","243489.480846","244256.347867","245022.871397","245789.902589","246556.61997","255781.848009","Mapping"
"Blocked","Male","done","24","M_gnash.wav","None","732.072360348","333","255023.208396","247323.043637","248072.735778","248839.098538","249605.769543","250372.450133","251139.396302","251906.102553","255772.726781","256539.254639","257305.606887","243489.480846","244256.347867","245022.871397","245789.902589","246556.61997","256549.10768","Mapping"
"Blocked","Male","done","24","M_done.wav","None","731.790084857","333","255023.208396","247323.043637","248072.735778","248839.098538","249605.769543","250372.450133","251139.396302","251906.102553","255772.726781","256539.254639","257305.606887","258072.671161","244256.347867","245022.871397","245789.902589","246556.61997","257314.467791","Mapping"
"Blocked","Male","done","24","M_bluff.wav","space","661.060841288","333","255023.208396","247323.043637","248072.735778","248839.098538","249605.769543","250372.450133","251139.396302","251906.102553","255772.726781","256539.254639","257305.606887","258072.671161","258839.31836","245022.871397","245789.902589","246556.61997","258082.116402","Mapping"
"Blocked","Male","done","24","M_done.wav","None","726.058013737","333","255023.208396","247323.043637","248072.735778","248839.098538","249605.769543","250372.450133","251139.396302","251906.102553","255772.726781","256539.254639","257305.606887","258072.671161","258839.31836","259606.380778","245789.902589","246556.61997","258848.742268","Mapping"
"Blocked","Male","done","24","M_cling.wav","space","518.484074622","333","255023.208396","247323.043637","248072.735778","248839.098538","249605.769543","250372.450133","251139.396302","251906.102553","255772.726781","256539.254639","257305.606887","258072.671161","258839.31836","259606.380778","260373.091358","246556.61997","259616.665734","Mapping"
"Blocked","Male","done","24","M_romp.wav","None","720.286368858","333","255023.208396","247323.043637","248072.735778","248839.098538","249605.769543","250372.450133","251139.396302","251906.102553","255772.726781","256539.254639","257305.606887","258072.671161","258839.31836","259606.380778","260373.091358","261139.765146","260383.144434","Mapping"
"Blocked","Male","done","24","M_bluff.wav","None","718.841602094","333","255023.208396","261889.043922","248072.735778","248839.098538","249605.769543","250372.450133","251139.396302","251906.102553","255772.726781","256539.254639","257305.606887","258072.671161","258839.31836","259606.380778","260373.091358","261139.765146","261149.626534","Mapping"
"Blocked","Male","done","24","M_bluff.wav","None","735.447913408","333","255023.208396","261889.043922","262655.967213","248839.098538","249605.769543","250372.450133","251139.396302","251906.102553","255772.726781","256539.254639","257305.606887","258072.671161","258839.31836","259606.380778","260373.091358","261139.765146","261898.048901","Mapping"
"Blocked","Male","done","24","M_gnash.wav","None","733.027087059","333","255023.208396","261889.043922","262655.967213","263422.596789","249605.769543","250372.450133","251139.396302","251906.102553","255772.726781","256539.254639","257305.606887","258072.671161","258839.31836","259606.380778","260373.091358","261139.765146","262665.449246","Mapping"
"Blocked","Male","done","24","M_jaw.wav","None","730.99334538","333","255023.208396","261889.043922","262655.967213","263422.596789","264189.123102","250372.450133","251139.396302","251906.102553","255772.726781","256539.254639","257305.606887","258072.671161","258839.31836","259606.380778","260373.091358","261139.765146","263432.480438","Mapping"
"Blocked","Male","done","24","M_cling.wav","None","729.936900549","333","255023.208396","261889.043922","262655.967213","263422.596789","264189.123102","264955.510904","251139.396302","251906.102553","255772.726781","256539.254639","257305.606887","258072.671161","258839.31836","259606.380778","260373.091358","261139.765146","264198.551647","Mapping"
"Blocked","Male","done","24","M_done.wav","None","728.753695264","333","255023.208396","261889.043922","262655.967213","263422.596789","264189.123102","264955.510904","265722.57054","251906.102553","255772.726781","256539.254639","257305.606887","258072.671161","258839.31836","259606.380778","260373.091358","261139.765146","264964.717464","Mapping"
"Blocked","Male","done","24","M_priest.wav","space","426.846374758","333","255023.208396","261889.043922","262655.967213","263422.596789","264189.123102","264955.510904","265722.57054","266489.403862","255772.726781","256539.254639","257305.606887","258072.671161","258839.31836","259606.380778","260373.091358","261139.765146","265732.20716","Mapping"
"Blocked","Male","done","21","M_greet.wav","None","722.961644642","333","269605.691941","261889.043922","262655.967213","263422.596789","264189.123102","264955.510904","265722.57054","266489.403862","255772.726781","256539.254639","257305.606887","258072.671161","258839.31836","259606.380778","260373.091358","261139.765146","266499.059031","Mapping"
"Blocked","Male","done","21","M_bluff.wav","None","723.935849033","333","269605.691941","261889.043922","262655.967213","263422.596789","264189.123102","264955.510904","265722.57054","266489.403862","270372.523407","256539.254639","257305.606887","258072.671161","258839.31836","259606.380778","260373.091358","261139.765146","269614.659818","Mapping"
"Blocked","Male","done","21","M_done.wav","None","721.626634244","333","269605.691941","261889.043922","262655.967213","263422.596789","264189.123102","264955.510904","265722.57054","266489.403862","270372.523407","271139.381462","257305.606887","258072.671161","258839.31836","259606.380778","260373.091358","261139.765146","270381.989053","Mapping"
"Blocked","Male","done","21","M_greet.wav","space","449.548653327","333","269605.691941","261889.043922","262655.967213","263422.596789","264189.123102","264955.510904","265722.57054","266489.403862","270372.523407","271139.381462","271889.010841","258072.671161","258839.31836","259606.380778","260373.091358","261139.765146","271149.413823","Mapping"
"Blocked","Male","done","21","M_reek.wav","None","733.806203585","333","269605.691941","261889.043922","262655.967213","263422.596789","264189.123102","264955.510904","265722.57054","266489.403862","270372.523407","271139.381462","271889.010841","272655.820047","258839.31836","259606.380778","260373.091358","261139.765146","271898.518844","Mapping"
"Blocked","Male","done","21","M_knife.wav","None","732.077306602","333","269605.691941","261889.043922","262655.967213","263422.596789","264189.123102","264955.510904","265722.57054","266489.403862","270372.523407","271139.381462","271889.010841","272655.820047","273422.427671","259606.380778","260373.091358","261139.765146","272665.237771","Mapping"
"Blocked","Male","done","21","M_priest.wav","None","730.630685575","333","269605.691941","261889.043922","262655.967213","263422.596789","264189.123102","264955.510904","265722.57054","266489.403862","270372.523407","271139.381462","271889.010841","272655.820047","273422.427671","274188.900188","260373.091358","261139.765146","273431.903211","Mapping"
"Blocked","Male","done","21","M_done.wav","None","729.832400568","333","269605.691941","261889.043922","262655.967213","263422.596789","264189.123102","264955.510904","265722.57054","266489.403862","270372.523407","271139.381462","271889.010841","272655.820047","273422.427671","274188.900188","274955.825024","261139.765146","274197.853843","Mapping"
"Blocked","Male","done","21","M_priest.wav","space","601.626003627","333","269605.691941","261889.043922","262655.967213","263422.596789","264189.123102","264955.510904","265722.57054","266489.403862","270372.523407","271139.381462","271889.010841","272655.820047","273422.427671","274188.900188","274955.825024","275722.441306","274965.262227","Mapping"
"Blocked","Male","done","21","M_romp.wav","None","724.010359496","333","269605.691941","276489.087887","262655.967213","263422.596789","264189.123102","264955.510904","265722.57054","266489.403862","270372.523407","271139.381462","271889.010841","272655.820047","273422.427671","274188.900188","274955.825024","275722.441306","275732.456044","Mapping"
"Blocked","Male","done","21","M_lash.wav","None","722.890843637","333","269605.691941","276489.087887","277256.133301","263422.596789","264189.123102","264955.510904","265722.57054","266489.403862","270372.523407","271139.381462","271889.010841","272655.820047","273422.427671","274188.900188","274955.825024","275722.441306","276498.729762","Mapping"
"Blocked","Male","done","21","M_done.wav","None","720.595541876","333","269605.691941","276489.087887","277256.133301","278022.250268","264189.123102","264955.510904","265722.57054","266489.403862","270372.523407","271139.381462","271889.010841","272655.820047","273422.427671","274188.900188","274955.825024","275722.441306","277266.17401","Mapping"
"Blocked","Male","done","21","M_reek.wav","space","631.377431564","333","269605.691941","276489.087887","277256.133301","278022.250268","278772.295484","264955.510904","265722.57054","266489.403862","270372.523407","271139.381462","271889.010841","272655.820047","273422.427671","274188.900188","274955.825024","275722.441306","278031.423127","Mapping"
"Blocked","Male","done","21","M_depth.wav","None","733.749315608","333","269605.691941","276489.087887","277256.133301","278022.250268","278772.295484","279538.85055","265722.57054","266489.403862","270372.523407","271139.381462","271889.010841","272655.820047","273422.427671","274188.900188","274955.825024","275722.441306","278781.595105","Mapping"
"Blocked","Male","done","21","M_done.wav","None","732.017945964","333","269605.691941","276489.087887","277256.133301","278022.250268","278772.295484","279538.85055","280305.514135","266489.403862","270372.523407","271139.381462","271889.010841","272655.820047","273422.427671","274188.900188","274955.825024","275722.441306","279548.3972","Mapping"
"Blocked","Male","done","21","M_reek.wav","space","635.431310162","333","269605.691941","276489.087887","277256.133301","278022.250268","278772.295484","279538.85055","280305.514135","281072.23399","270372.523407","271139.381462","271889.010841","272655.820047","273422.427671","274188.900188","274955.825024","275722.441306","280315.352336","Mapping"
"Blocked","Male","ball","6","M_reek.wav","None","727.299035061","333","284205.749508","276489.087887","277256.133301","278022.250268","278772.295484","279538.85055","280305.514135","281072.23399","270372.523407","271139.381462","271889.010841","272655.820047","273422.427671","274188.900188","274955.825024","275722.441306","281081.637493","Mapping"
"Blocked","Male","ball","6","M_knife.wav","None","719.52734841","333","284205.749508","276489.087887","277256.133301","278022.250268","278772.295484","279538.85055","280305.514135","281072.23399","284955.682804","271139.381462","271889.010841","272655.820047","273422.427671","274188.900188","274955.825024","275722.441306","284215.858545","Mapping"
"Blocked","Male","ball","6","M_ball.wav","None","735.498926602","333","284205.749508","276489.087887","277256.133301","278022.250268","278772.295484","279538.85055","280305.514135","281072.23399","284955.682804","285722.149446","271889.010841","272655.820047","273422.427671","274188.900188","274955.825024","275722.441306","284965.21245","Mapping"
"Blocked","Male","ball","6","M_jolt.wav","space","410.610144027","333","284205.749508","276489.087887","277256.133301","278022.250268","278772.295484","279538.85055","280305.514135","281072.23399","284955.682804","285722.149446","286488.834983","272655.820047","273422.427671","274188.900188","274955.825024","275722.441306","285732.073288","Mapping"
"Blocked","Male","ball","6","M_romp.wav","None","731.688058004","333","284205.749508","276489.087887","277256.133301","278022.250268","278772.295484","279538.85055","280305.514135","281072.23399","284955.682804","285722.149446","286488.834983","287255.426531","273422.427671","274188.900188","274955.825024","275722.441306","286497.936423","Mapping"
"Blocked","Male","ball","6","M_ball.wav","None","729.958542623","333","284205.749508","276489.087887","277256.133301","278022.250268","278772.295484","279538.85055","280305.514135","281072.23399","284955.682804","285722.149446","286488.834983","287255.426531","288022.17823","274188.900188","274955.825024","275722.441306","287265.030996","Mapping"
"Blocked","Male","ball","6","M_lash.wav","space","406.962827779","333","284205.749508","276489.087887","277256.133301","278022.250268","278772.295484","279538.85055","280305.514135","281072.23399","284955.682804","285722.149446","286488.834983","287255.426531","288022.17823","288788.289632","274955.825024","275722.441306","288031.663664","Mapping"
"Blocked","Male","ball","6","M_ball.wav","None","726.410780568","333","284205.749508","276489.087887","277256.133301","278022.250268","278772.295484","279538.85055","280305.514135","281072.23399","284955.682804","285722.149446","286488.834983","287255.426531","288022.17823","288788.289632","289555.785821","275722.441306","288797.504849","Mapping"
"Blocked","Male","ball","6","M_reek.wav","space","656.966769602","333","284205.749508","276489.087887","277256.133301","278022.250268","278772.295484","279538.85055","280305.514135","281072.23399","284955.682804","285722.149446","286488.834983","287255.426531","288022.17823","288788.289632","289555.785821","290322.47043","289565.628968","Mapping"
"Blocked","Male","ball","6","M_jaw.wav","None","720.139820129","333","284205.749508","291088.976028","277256.133301","278022.250268","278772.295484","279538.85055","280305.514135","281072.23399","284955.682804","285722.149446","286488.834983","287255.426531","288022.17823","288788.289632","289555.785821","290322.47043","290332.503719","Mapping"
"Blocked","Male","ball","6","M_jaw.wav","None","718.866645359","333","284205.749508","291088.976028","291838.325605","278022.250268","278772.295484","279538.85055","280305.514135","281072.23399","284955.682804","285722.149446","286488.834983","287255.426531","288022.17823","288788.289632","289555.785821","290322.47043","291099.042398","Mapping"
"Blocked","Male","ball","6","M_park.wav","None","735.589205287","333","284205.749508","291088.976028","291838.325605","292604.989808","278772.295484","279538.85055","280305.514135","281072.23399","284955.682804","285722.149446","286488.834983","287255.426531","288022.17823","288788.289632","289555.785821","290322.47043","291847.915539","Mapping"
"Blocked","Male","ball","6","M_greet.wav","None","734.631387051","333","284205.749508","291088.976028","291838.325605","292604.989808","293372.051917","279538.85055","280305.514135","281072.23399","284955.682804","285722.149446","286488.834983","287255.426531","288022.17823","288788.289632","289555.785821","290322.47043","292614.118456","Mapping"
"Blocked","Male","ball","6","M_gnash.wav","None","732.367002405","333","284205.749508","291088.976028","291838.325605","292604.989808","293372.051917","294138.453942","280305.514135","281072.23399","284955.682804","285722.149446","286488.834983","287255.426531","288022.17823","288788.289632","289555.785821","290322.47043","293381.559303","Mapping"
