"Condition","Talker","Target","Trial","current_stimulus","response_response","response_time_response","subject_nr","time_Audio1","time_Audio10","time_Audio11","time_Audio12","time_Audio13","time_Audio14","time_Audio15","time_Audio16","time_Audio2","time_Audio3","time_Audio4","time_Audio5","time_Audio6","time_Audio7","time_Audio8","time_Audio9","time_response","title"
"Blocked","Female","ball","3","F_park.wav","NA","NA","130","1162647.71538","NA","NA","NA","NA","NA","NA","NA","NA","NA","NA","NA","NA","NA","NA","NA","NA","Mapping"
"Blocked","Female","ball","3","F_romp.wav","None","717.574919574","130","1162647.71538","NA","NA","NA","NA","NA","NA","NA","1163414.43864","NA","NA","NA","NA","NA","NA","NA","1162662.63237","Mapping"
"Blocked","Female","ball","3","F_ball.wav","None","722.101524356","130","1162647.71538","NA","NA","NA","NA","NA","NA","NA","1163414.43864","1164180.93712","NA","NA","NA","NA","NA","NA","1163424.21778","Mapping"
"Blocked","Female","ball","3","F_depth.wav","space","527.078161715","130","1162647.71538","NA","NA","NA","NA","NA","NA","NA","1163414.43864","1164180.93712","1164947.4925","NA","NA","NA","NA","NA","1164190.98865","Mapping"
"Blocked","Female","ball","3","F_greet.wav","None","720.452394569","130","1162647.71538","NA","NA","NA","NA","NA","NA","NA","1163414.43864","1164180.93712","1164947.4925","1165713.94986","NA","NA","NA","NA","1164957.99975","Mapping"
"Blocked","Female","ball","3","F_gnash.wav","None","721.119281137","130","1162647.71538","NA","NA","NA","NA","NA","NA","NA","1163414.43864","1164180.93712","1164947.4925","1165713.94986","1166480.91026","NA","NA","NA","1165723.3141","Mapping"
"Blocked","Female","ball","3","F_priest.wav","None","719.727074262","130","1162647.71538","NA","NA","NA","NA","NA","NA","NA","1163414.43864","1164180.93712","1164947.4925","1165713.94986","1166480.91026","1167247.36113","NA","NA","1166490.82451","Mapping"
"Blocked","Female","ball","3","F_lash.wav","None","720.922647044","130","1162647.71538","NA","NA","NA","NA","NA","NA","NA","1163414.43864","1164180.93712","1164947.4925","1165713.94986","1166480.91026","1167247.36113","1168014.35429","NA","1167256.5646","Mapping"
"Blocked","Female","ball","3","F_gnash.wav","None","719.173035934","130","1162647.71538","NA","NA","NA","NA","NA","NA","NA","1163414.43864","1164180.93712","1164947.4925","1165713.94986","1166480.91026","1167247.36113","1168014.35429","1168763.91256","1168024.58762","Mapping"
"Blocked","Female","ball","3","F_jolt.wav","None","733.888752759","130","1162647.71538","1169530.36065","NA","NA","NA","NA","NA","NA","1163414.43864","1164180.93712","1164947.4925","1165713.94986","1166480.91026","1167247.36113","1168014.35429","1168763.91256","1168773.0375","Mapping"
"Blocked","Female","ball","3","F_ball.wav","None","733.261440299","130","1162647.71538","1169530.36065","1170297.02331","NA","NA","NA","NA","NA","1163414.43864","1164180.93712","1164947.4925","1165713.94986","1166480.91026","1167247.36113","1168014.35429","1168763.91256","1169539.84238","Mapping"
"Blocked","Female","ball","3","F_knife.wav","space","403.495759587","130","1162647.71538","1169530.36065","1170297.02331","1171063.48717","NA","NA","NA","NA","1163414.43864","1164180.93712","1164947.4925","1165713.94986","1166480.91026","1167247.36113","1168014.35429","1168763.91256","1170306.47288","Mapping"
"Blocked","Female","ball","3","F_ball.wav","None","729.539613356","130","1162647.71538","1169530.36065","1170297.02331","1171063.48717","1171830.05306","NA","NA","NA","1163414.43864","1164180.93712","1164947.4925","1165713.94986","1166480.91026","1167247.36113","1168014.35429","1168763.91256","1171072.94725","Mapping"
"Blocked","Female","ball","3","F_tile.wav","space","582.979149767","130","1162647.71538","1169530.36065","1170297.02331","1171063.48717","1171830.05306","1172596.80167","NA","NA","1163414.43864","1164180.93712","1164947.4925","1165713.94986","1166480.91026","1167247.36113","1168014.35429","1168763.91256","1171838.96065","Mapping"
"Blocked","Female","ball","3","F_ball.wav","None","725.703392178","130","1162647.71538","1169530.36065","1170297.02331","1171063.48717","1171830.05306","1172596.80167","1173364.08452","NA","1163414.43864","1164180.93712","1164947.4925","1165713.94986","1166480.91026","1167247.36113","1168014.35429","1168763.91256","1172605.95659","Mapping"
"Blocked","Female","ball","3","F_park.wav","space","455.830743653","130","1162647.71538","1169530.36065","1170297.02331","1171063.48717","1171830.05306","1172596.80167","1173364.08452","1174113.51974","1163414.43864","1164180.93712","1164947.4925","1165713.94986","1166480.91026","1167247.36113","1168014.35429","1168763.91256","1173374.11627","Mapping"
"Blocked","Female","ball","6","F_reek.wav","None","735.063610831","130","1177264.07132","1169530.36065","1170297.02331","1171063.48717","1171830.05306","1172596.80167","1173364.08452","1174113.51974","1163414.43864","1164180.93712","1164947.4925","1165713.94986","1166480.91026","1167247.36113","1168014.35429","1168763.91256","1174122.91737","Mapping"
"Blocked","Female","ball","6","F_depth.wav","None","723.431587568","130","1177264.07132","1169530.36065","1170297.02331","1171063.48717","1171830.05306","1172596.80167","1173364.08452","1174113.51974","1178030.58898","1164180.93712","1164947.4925","1165713.94986","1166480.91026","1167247.36113","1168014.35429","1168763.91256","1177273.96703","Mapping"
"Blocked","Female","ball","6","F_dime.wav","None","720.921719447","130","1177264.07132","1169530.36065","1170297.02331","1171063.48717","1171830.05306","1172596.80167","1173364.08452","1174113.51974","1178030.58898","1178797.36046","1164947.4925","1165713.94986","1166480.91026","1167247.36113","1168014.35429","1168763.91256","1178039.86046","Mapping"
"Blocked","Female","ball","6","F_ball.wav","None","719.681007438","130","1177264.07132","1169530.36065","1170297.02331","1171063.48717","1171830.05306","1172596.80167","1173364.08452","1174113.51974","1178030.58898","1178797.36046","1179547.1265","1165713.94986","1166480.91026","1167247.36113","1168014.35429","1168763.91256","1178807.41107","Mapping"
"Blocked","Female","ball","6","F_priest.wav","space","417.392167263","130","1177264.07132","1169530.36065","1170297.02331","1171063.48717","1171830.05306","1172596.80167","1173364.08452","1174113.51974","1178030.58898","1178797.36046","1179547.1265","1180313.43484","1166480.91026","1167247.36113","1168014.35429","1168763.91256","1179556.46353","Mapping"
"Blocked","Female","ball","6","F_depth.wav","None","730.714471429","130","1177264.07132","1169530.36065","1170297.02331","1171063.48717","1171830.05306","1172596.80167","1173364.08452","1174113.51974","1178030.58898","1178797.36046","1179547.1265","1180313.43484","1181080.27589","1167247.36113","1168014.35429","1168763.91256","1180322.41045","Mapping"
"Blocked","Female","ball","6","F_ball.wav","None","726.949669421","130","1177264.07132","1169530.36065","1170297.02331","1171063.48717","1171830.05306","1172596.80167","1173364.08452","1174113.51974","1178030.58898","1178797.36046","1179547.1265","1180313.43484","1181080.27589","1181847.25174","1168014.35429","1168763.91256","1181089.41722","Mapping"
"Blocked","Female","ball","6","F_reek.wav","space","540.186796221","130","1177264.07132","1169530.36065","1170297.02331","1171063.48717","1171830.05306","1172596.80167","1173364.08452","1174113.51974","1178030.58898","1178797.36046","1179547.1265","1180313.43484","1181080.27589","1181847.25174","1182613.73477","1168763.91256","1181857.55772","Mapping"
"Blocked","Female","ball","6","F_gnash.wav","None","718.691034941","130","1177264.07132","1169530.36065","1170297.02331","1171063.48717","1171830.05306","1172596.80167","1173364.08452","1174113.51974","1178030.58898","1178797.36046","1179547.1265","1180313.43484","1181080.27589","1181847.25174","1182613.73477","1183363.66312","1182623.94398","Mapping"
"Blocked","Female","ball","6","F_ball.wav","None","733.259276021","130","1177264.07132","1184130.0772","1170297.02331","1171063.48717","1171830.05306","1172596.80167","1173364.08452","1174113.51974","1178030.58898","1178797.36046","1179547.1265","1180313.43484","1181080.27589","1181847.25174","1182613.73477","1183363.66312","1183372.6984","Mapping"
"Blocked","Female","ball","6","F_depth.wav","space","426.07993423","130","1177264.07132","1184130.0772","1184896.75779","1171063.48717","1171830.05306","1172596.80167","1173364.08452","1174113.51974","1178030.58898","1178797.36046","1179547.1265","1180313.43484","1181080.27589","1181847.25174","1182613.73477","1183363.66312","1184139.65075","Mapping"
"Blocked","Female","ball","6","F_lash.wav","None","725.742038921","130","1177264.07132","1184130.0772","1184896.75779","1185663.99489","1171830.05306","1172596.80167","1173364.08452","1174113.51974","1178030.58898","1178797.36046","1179547.1265","1180313.43484","1181080.27589","1181847.25174","1182613.73477","1183363.66312","1184906.60403","Mapping"
"Blocked","Female","ball","6","F_ball.wav","None","721.809974173","130","1177264.07132","1184130.0772","1184896.75779","1185663.99489","1186430.09949","1172596.80167","1173364.08452","1174113.51974","1178030.58898","1178797.36046","1179547.1265","1180313.43484","1181080.27589","1181847.25174","1182613.73477","1183363.66312","1185673.90451","Mapping"
"Blocked","Female","ball","6","F_reek.wav","space","478.200043086","130","1177264.07132","1184130.0772","1184896.75779","1185663.99489","1186430.09949","1187180.17192","1173364.08452","1174113.51974","1178030.58898","1178797.36046","1179547.1265","1180313.43484","1181080.27589","1181847.25174","1182613.73477","1183363.66312","1186439.49434","Mapping"
"Blocked","Female","ball","6","F_greet.wav","None","732.898780028","130","1177264.07132","1184130.0772","1184896.75779","1185663.99489","1186430.09949","1187180.17192","1187946.44409","1174113.51974","1178030.58898","1178797.36046","1179547.1265","1180313.43484","1181080.27589","1181847.25174","1182613.73477","1183363.66312","1187189.51111","Mapping"
"Blocked","Female","ball","6","F_romp.wav","None","730.320275645","130","1177264.07132","1184130.0772","1184896.75779","1185663.99489","1186430.09949","1187180.17192","1187946.44409","1188713.58535","1178030.58898","1178797.36046","1179547.1265","1180313.43484","1181080.27589","1181847.25174","1182613.73477","1183363.66312","1187955.45618","Mapping"
"Blocked","Female","ball","1","F_romp.wav","None","726.321738679","130","1191830.26299","1184130.0772","1184896.75779","1185663.99489","1186430.09949","1187180.17192","1187946.44409","1188713.58535","1178030.58898","1178797.36046","1179547.1265","1180313.43484","1181080.27589","1181847.25174","1182613.73477","1183363.66312","1188722.63268","Mapping"
"Blocked","Female","ball","1","F_ball.wav","None","718.925078982","130","1191830.26299","1184130.0772","1184896.75779","1185663.99489","1186430.09949","1187180.17192","1187946.44409","1188713.58535","1192579.94121","1178797.36046","1179547.1265","1180313.43484","1181080.27589","1181847.25174","1182613.73477","1183363.66312","1191840.66203","Mapping"
"Blocked","Female","ball","1","F_gnash.wav","space","552.238985896","130","1191830.26299","1184130.0772","1184896.75779","1185663.99489","1186430.09949","1187180.17192","1187946.44409","1188713.58535","1192579.94121","1193346.5946","1179547.1265","1180313.43484","1181080.27589","1181847.25174","1182613.73477","1183363.66312","1192589.29958","Mapping"
"Blocked","Female","ball","1","F_tile.wav","None","729.708731058","130","1191830.26299","1184130.0772","1184896.75779","1185663.99489","1186430.09949","1187180.17192","1187946.44409","1188713.58535","1192579.94121","1193346.5946","1194113.52252","1180313.43484","1181080.27589","1181847.25174","1182613.73477","1183363.66312","1193355.99624","Mapping"
"Blocked","Female","ball","1","F_jolt.wav","None","725.95629585","130","1191830.26299","1184130.0772","1184896.75779","1185663.99489","1186430.09949","1187180.17192","1187946.44409","1188713.58535","1192579.94121","1193346.5946","1194113.52252","1194880.26804","1181080.27589","1181847.25174","1182613.73477","1183363.66312","1194122.87718","Mapping"
"Blocked","Female","ball","1","F_ball.wav","None","721.785858623","130","1191830.26299","1184130.0772","1184896.75779","1185663.99489","1186430.09949","1187180.17192","1187946.44409","1188713.58535","1192579.94121","1193346.5946","1194113.52252","1194880.26804","1195630.63882","1181847.25174","1182613.73477","1183363.66312","1194890.28896","Mapping"
"Blocked","Female","ball","1","F_depth.wav","space","405.612668488","130","1191830.26299","1184130.0772","1184896.75779","1185663.99489","1186430.09949","1187180.17192","1187946.44409","1188713.58535","1192579.94121","1193346.5946","1194113.52252","1194880.26804","1195630.63882","1196396.608","1182613.73477","1183363.66312","1195639.91494","Mapping"
"Blocked","Female","ball","1","F_jaw.wav","None","732.080089394","130","1191830.26299","1184130.0772","1184896.75779","1185663.99489","1186430.09949","1187180.17192","1187946.44409","1188713.58535","1192579.94121","1193346.5946","1194113.52252","1194880.26804","1195630.63882","1196396.608","1197163.41782","1183363.66312","1196406.33892","Mapping"
"Blocked","Female","ball","1","F_priest.wav","None","732.181498315","130","1191830.26299","1184130.0772","1184896.75779","1185663.99489","1186430.09949","1187180.17192","1187946.44409","1188713.58535","1192579.94121","1193346.5946","1194113.52252","1194880.26804","1195630.63882","1196396.608","1197163.41782","1197929.87859","1197172.54925","Mapping"
"Blocked","Female","ball","1","F_priest.wav","None","728.689077776","130","1191830.26299","1198696.01689","1184896.75779","1185663.99489","1186430.09949","1187180.17192","1187946.44409","1188713.58535","1192579.94121","1193346.5946","1194113.52252","1194880.26804","1195630.63882","1196396.608","1197163.41782","1197929.87859","1197939.36001","Mapping"
"Blocked","Female","ball","1","F_ball.wav","None","727.174747502","130","1191830.26299","1198696.01689","1199463.57831","1185663.99489","1186430.09949","1187180.17192","1187946.44409","1188713.58535","1192579.94121","1193346.5946","1194113.52252","1194880.26804","1195630.63882","1196396.608","1197163.41782","1197929.87859","1198705.12297","Mapping"
"Blocked","Female","ball","1","F_park.wav","space","459.429829032","130","1191830.26299","1198696.01689","1199463.57831","1200230.04898","1186430.09949","1187180.17192","1187946.44409","1188713.58535","1192579.94121","1193346.5946","1194113.52252","1194880.26804","1195630.63882","1196396.608","1197163.41782","1197929.87859","1199474.0058","Mapping"
"Blocked","Female","ball","1","F_ball.wav","None","719.264860381","130","1191830.26299","1198696.01689","1199463.57831","1200230.04898","1200979.83851","1187180.17192","1187946.44409","1188713.58535","1192579.94121","1193346.5946","1194113.52252","1194880.26804","1195630.63882","1196396.608","1197163.41782","1197929.87859","1200239.8306","Mapping"
"Blocked","Female","ball","1","F_cad.wav","space","728.125145892","130","1191830.26299","1198696.01689","1199463.57831","1200230.04898","1200979.83851","1201746.4418","1187946.44409","1188713.58535","1192579.94121","1193346.5946","1194113.52252","1194880.26804","1195630.63882","1196396.608","1197163.41782","1197929.87859","1200989.30477","Mapping"
"Blocked","Female","ball","1","F_lash.wav","None","733.10901795","130","1191830.26299","1198696.01689","1199463.57831","1200230.04898","1200979.83851","1201746.4418","1202513.36478","1188713.58535","1192579.94121","1193346.5946","1194113.52252","1194880.26804","1195630.63882","1196396.608","1197163.41782","1197929.87859","1201755.42699","Mapping"
"Blocked","Female","ball","1","F_greet.wav","None","729.278980289","130","1191830.26299","1198696.01689","1199463.57831","1200230.04898","1200979.83851","1201746.4418","1202513.36478","1203280.22717","1192579.94121","1193346.5946","1194113.52252","1194880.26804","1195630.63882","1196396.608","1197163.41782","1197929.87859","1202522.51755","Mapping"
"Blocked","Female","tile","14","F_greet.wav","None","725.542931352","130","1206396.69642","1198696.01689","1199463.57831","1200230.04898","1200979.83851","1201746.4418","1202513.36478","1203280.22717","1192579.94121","1193346.5946","1194113.52252","1194880.26804","1195630.63882","1196396.608","1197163.41782","1197929.87859","1203289.74661","Mapping"
"Blocked","Female","tile","14","F_tile.wav","None","719.535386888","130","1206396.69642","1198696.01689","1199463.57831","1200230.04898","1200979.83851","1201746.4418","1202513.36478","1203280.22717","1207146.27077","1193346.5946","1194113.52252","1194880.26804","1195630.63882","1196396.608","1197163.41782","1197929.87859","1206406.76898","Mapping"
"Blocked","Female","tile","14","F_greet.wav","space","593.588737189","130","1206396.69642","1198696.01689","1199463.57831","1200230.04898","1200979.83851","1201746.4418","1202513.36478","1203280.22717","1207146.27077","1207913.28094","1194113.52252","1194880.26804","1195630.63882","1196396.608","1197163.41782","1197929.87859","1207155.70643","Mapping"
"Blocked","Female","tile","14","F_jolt.wav","None","729.978639283","130","1206396.69642","1198696.01689","1199463.57831","1200230.04898","1200979.83851","1201746.4418","1202513.36478","1203280.22717","1207146.27077","1207913.28094","1208679.62669","1194880.26804","1195630.63882","1196396.608","1197163.41782","1197929.87859","1207922.76297","Mapping"
"Blocked","Female","tile","14","F_park.wav","None","727.058189223","130","1206396.69642","1198696.01689","1199463.57831","1200230.04898","1200979.83851","1201746.4418","1202513.36478","1203280.22717","1207146.27077","1207913.28094","1208679.62669","1209446.84246","1195630.63882","1196396.608","1197163.41782","1197929.87859","1208689.13284","Mapping"
"Blocked","Female","tile","14","F_tile.wav","None","723.294932977","130","1206396.69642","1198696.01689","1199463.57831","1200230.04898","1200979.83851","1201746.4418","1202513.36478","1203280.22717","1207146.27077","1207913.28094","1208679.62669","1209446.84246","1210213.30972","1196396.608","1197163.41782","1197929.87859","1209456.20917","Mapping"
"Blocked","Female","tile","14","F_dime.wav","space","486.052114866","130","1206396.69642","1198696.01689","1199463.57831","1200230.04898","1200979.83851","1201746.4418","1202513.36478","1203280.22717","1207146.27077","1207913.28094","1208679.62669","1209446.84246","1210213.30972","1210963.04329","1197163.41782","1197929.87859","1210223.20821","Mapping"
"Blocked","Female","tile","14","F_tile.wav","None","733.836502302","130","1206396.69642","1198696.01689","1199463.57831","1200230.04898","1200979.83851","1201746.4418","1202513.36478","1203280.22717","1207146.27077","1207913.28094","1208679.62669","1209446.84246","1210213.30972","1210963.04329","1211729.60299","1197929.87859","1210972.32931","Mapping"
"Blocked","Female","tile","14","F_bluff.wav","space","498.112961417","130","1206396.69642","1198696.01689","1199463.57831","1200230.04898","1200979.83851","1201746.4418","1202513.36478","1203280.22717","1207146.27077","1207913.28094","1208679.62669","1209446.84246","1210213.30972","1210963.04329","1211729.60299","1212496.23659","1211739.13171","Mapping"
"Blocked","Female","tile","14","F_tile.wav","None","727.981689502","130","1206396.69642","1213262.82195","1199463.57831","1200230.04898","1200979.83851","1201746.4418","1202513.36478","1203280.22717","1207146.27077","1207913.28094","1208679.62669","1209446.84246","1210213.30972","1210963.04329","1211729.60299","1212496.23659","1212507.80956","Mapping"
"Blocked","Female","tile","14","F_cave.wav","space","333.12020998","130","1206396.69642","1213262.82195","1214029.26974","1200230.04898","1200979.83851","1201746.4418","1202513.36478","1203280.22717","1207146.27077","1207913.28094","1208679.62669","1209446.84246","1210213.30972","1210963.04329","1211729.60299","1212496.23659","1213272.06994","Mapping"
"Blocked","Female","tile","14","F_ball.wav","None","727.051696507","130","1206396.69642","1213262.82195","1214029.26974","1214796.58444","1200979.83851","1201746.4418","1202513.36478","1203280.22717","1207146.27077","1207913.28094","1208679.62669","1209446.84246","1210213.30972","1210963.04329","1211729.60299","1212496.23659","1214038.2339","Mapping"
"Blocked","Female","tile","14","F_done.wav","None","722.620317014","130","1206396.69642","1213262.82195","1214029.26974","1214796.58444","1215563.2842","1201746.4418","1202513.36478","1203280.22717","1207146.27077","1207913.28094","1208679.62669","1209446.84246","1210213.30972","1210963.04329","1211729.60299","1212496.23659","1214806.28444","Mapping"
"Blocked","Female","tile","14","F_jaw.wav","None","722.024231101","130","1206396.69642","1213262.82195","1214029.26974","1214796.58444","1215563.2842","1216329.99911","1202513.36478","1203280.22717","1207146.27077","1207913.28094","1208679.62669","1209446.84246","1210213.30972","1210963.04329","1211729.60299","1212496.23659","1215573.70828","Mapping"
"Blocked","Female","tile","14","F_greet.wav","None","719.474788872","130","1206396.69642","1213262.82195","1214029.26974","1214796.58444","1215563.2842","1216329.99911","1217079.47112","1203280.22717","1207146.27077","1207913.28094","1208679.62669","1209446.84246","1210213.30972","1210963.04329","1211729.60299","1212496.23659","1216340.00952","Mapping"
"Blocked","Female","tile","14","F_greet.wav","None","734.328706167","130","1206396.69642","1213262.82195","1214029.26974","1214796.58444","1215563.2842","1216329.99911","1217079.47112","1217845.95878","1207146.27077","1207913.28094","1208679.62669","1209446.84246","1210213.30972","1210963.04329","1211729.60299","1212496.23659","1217088.79825","Mapping"
"Blocked","Female","ball","5","F_priest.wav","None","731.5925234","130","1220979.80728","1213262.82195","1214029.26974","1214796.58444","1215563.2842","1216329.99911","1217079.47112","1217845.95878","1207146.27077","1207913.28094","1208679.62669","1209446.84246","1210213.30972","1210963.04329","1211729.60299","1212496.23659","1217855.07042","Mapping"
"Blocked","Female","ball","5","F_bluff.wav","None","719.148920383","130","1220979.80728","1213262.82195","1214029.26974","1214796.58444","1215563.2842","1216329.99911","1217079.47112","1217845.95878","1221729.47902","1207913.28094","1208679.62669","1209446.84246","1210213.30972","1210963.04329","1211729.60299","1212496.23659","1220989.94878","Mapping"
"Blocked","Female","ball","5","F_park.wav","None","733.665529639","130","1220979.80728","1213262.82195","1214029.26974","1214796.58444","1215563.2842","1216329.99911","1217079.47112","1217845.95878","1221729.47902","1222495.96359","1208679.62669","1209446.84246","1210213.30972","1210963.04329","1211729.60299","1212496.23659","1221738.92147","Mapping"
"Blocked","Female","ball","5","F_ball.wav","None","731.000147527","130","1220979.80728","1213262.82195","1214029.26974","1214796.58444","1215563.2842","1216329.99911","1217079.47112","1217845.95878","1221729.47902","1222495.96359","1223262.83648","1209446.84246","1210213.30972","1210963.04329","1211729.60299","1212496.23659","1222505.05452","Mapping"
"Blocked","Female","ball","5","F_knife.wav","space","356.91510688","130","1220979.80728","1213262.82195","1214029.26974","1214796.58444","1215563.2842","1216329.99911","1217079.47112","1217845.95878","1221729.47902","1222495.96359","1223262.83648","1224029.84634","1210213.30972","1210963.04329","1211729.60299","1212496.23659","1223272.09468","Mapping"
"Blocked","Female","ball","5","F_depth.wav","None","722.429866437","130","1220979.80728","1213262.82195","1214029.26974","1214796.58444","1215563.2842","1216329.99911","1217079.47112","1217845.95878","1221729.47902","1222495.96359","1223262.83648","1224029.84634","1224796.5022","1210963.04329","1211729.60299","1212496.23659","1224040.03113","Mapping"
"Blocked","Female","ball","5","F_done.wav","None","719.916597474","130","1220979.80728","1213262.82195","1214029.26974","1214796.58444","1215563.2842","1216329.99911","1217079.47112","1217845.95878","1221729.47902","1222495.96359","1223262.83648","1224029.84634","1224796.5022","1225546.01749","1211729.60299","1212496.23659","1224806.10326","Mapping"
"Blocked","Female","ball","5","F_cad.wav","None","734.265325707","130","1220979.80728","1213262.82195","1214029.26974","1214796.58444","1215563.2842","1216329.99911","1217079.47112","1217845.95878","1221729.47902","1222495.96359","1223262.83648","1224029.84634","1224796.5022","1225546.01749","1226312.91358","1212496.23659","1225555.31155","Mapping"
"Blocked","Female","ball","5","F_ball.wav","None","730.79269228","130","1220979.80728","1213262.82195","1214029.26974","1214796.58444","1215563.2842","1216329.99911","1217079.47112","1217845.95878","1221729.47902","1222495.96359","1223262.83648","1224029.84634","1224796.5022","1225546.01749","1226312.91358","1227079.43031","1226322.29575","Mapping"
"Blocked","Female","ball","5","F_bluff.wav","space","603.932126542","130","1220979.80728","1227846.30258","1214029.26974","1214796.58444","1215563.2842","1216329.99911","1217079.47112","1217845.95878","1221729.47902","1222495.96359","1223262.83648","1224029.84634","1224796.5022","1225546.01749","1226312.91358","1227079.43031","1227089.04899","Mapping"
"Blocked","Female","ball","5","F_ball.wav","None","723.5172285","130","1220979.80728","1227846.30258","1228613.05799","1214796.58444","1215563.2842","1216329.99911","1217079.47112","1217845.95878","1221729.47902","1222495.96359","1223262.83648","1224029.84634","1224796.5022","1225546.01749","1226312.91358","1227079.43031","1227856.27064","Mapping"
"Blocked","Female","ball","5","F_reek.wav","space","533.859257586","130","1220979.80728","1227846.30258","1228613.05799","1229362.3377","1215563.2842","1216329.99911","1217079.47112","1217845.95878","1221729.47902","1222495.96359","1223262.83648","1224029.84634","1224796.5022","1225546.01749","1226312.91358","1227079.43031","1228623.001","Mapping"
"Blocked","Female","ball","5","F_ball.wav","None","734.879961936","130","1220979.80728","1227846.30258","1228613.05799","1229362.3377","1230128.77991","1216329.99911","1217079.47112","1217845.95878","1221729.47902","1222495.96359","1223262.83648","1224029.84634","1224796.5022","1225546.01749","1226312.91358","1227079.43031","1229371.42028","Mapping"
"Blocked","Female","ball","5","F_greet.wav","space","635.324645787","130","1220979.80728","1227846.30258","1228613.05799","1229362.3377","1230128.77991","1230895.74154","1217079.47112","1217845.95878","1221729.47902","1222495.96359","1223262.83648","1224029.84634","1224796.5022","1225546.01749","1226312.91358","1227079.43031","1230137.57311","Mapping"
"Blocked","Female","ball","5","F_dime.wav","None","729.940301739","130","1220979.80728","1227846.30258","1228613.05799","1229362.3377","1230128.77991","1230895.74154","1231662.70472","1217845.95878","1221729.47902","1222495.96359","1223262.83648","1224029.84634","1224796.5022","1225546.01749","1226312.91358","1227079.43031","1230904.86586","Mapping"
"Blocked","Female","ball","5","F_jaw.wav","None","726.388829178","130","1220979.80728","1227846.30258","1228613.05799","1229362.3377","1230128.77991","1230895.74154","1231662.70472","1232429.5705","1221729.47902","1222495.96359","1223262.83648","1224029.84634","1224796.5022","1225546.01749","1226312.91358","1227079.43031","1231671.92519","Mapping"
"Blocked","Female","done","24","F_dime.wav","None","722.491082619","130","1235546.28215","1227846.30258","1228613.05799","1229362.3377","1230128.77991","1230895.74154","1231662.70472","1232429.5705","1221729.47902","1222495.96359","1223262.83648","1224029.84634","1224796.5022","1225546.01749","1226312.91358","1227079.43031","1232439.35521","Mapping"
"Blocked","Female","done","24","F_ball.wav","None","719.737895299","130","1235546.28215","1227846.30258","1228613.05799","1229362.3377","1230128.77991","1230895.74154","1231662.70472","1232429.5705","1236295.7152","1222495.96359","1223262.83648","1224029.84634","1224796.5022","1225546.01749","1226312.91358","1227079.43031","1235556.4289","Mapping"
"Blocked","Female","done","24","F_reek.wav","None","734.818436438","130","1235546.28215","1227846.30258","1228613.05799","1229362.3377","1230128.77991","1230895.74154","1231662.70472","1232429.5705","1236295.7152","1237062.74485","1223262.83648","1224029.84634","1224796.5022","1225546.01749","1226312.91358","1227079.43031","1236305.10263","Mapping"
"Blocked","Female","done","24","F_greet.wav","None","731.198327499","130","1235546.28215","1227846.30258","1228613.05799","1229362.3377","1230128.77991","1230895.74154","1231662.70472","1232429.5705","1236295.7152","1237062.74485","1237829.15274","1224029.84634","1224796.5022","1225546.01749","1226312.91358","1227079.43031","1237072.19813","Mapping"
"Blocked","Female","done","24","F_bluff.wav","None","728.156681522","130","1235546.28215","1227846.30258","1228613.05799","1229362.3377","1230128.77991","1230895.74154","1231662.70472","1232429.5705","1236295.7152","1237062.74485","1237829.15274","1238595.88002","1224796.5022","1225546.01749","1226312.91358","1227079.43031","1237838.75752","Mapping"
"Blocked","Female","done","24","F_ball.wav","None","724.942517001","130","1235546.28215","1227846.30258","1228613.05799","1229362.3377","1230128.77991","1230895.74154","1231662.70472","1232429.5705","1236295.7152","1237062.74485","1237829.15274","1238595.88002","1239363.05931","1225546.01749","1226312.91358","1227079.43031","1238605.64124","Mapping"
"Blocked","Female","done","24","F_done.wav","None","721.02869337","130","1235546.28215","1227846.30258","1228613.05799","1229362.3377","1230128.77991","1230895.74154","1231662.70472","1232429.5705","1236295.7152","1237062.74485","1237829.15274","1238595.88002","1239363.05931","1240112.67384","1226312.91358","1227079.43031","1239373.12784","Mapping"
"Blocked","Female","done","24","F_romp.wav","space","530.590060167","130","1235546.28215","1227846.30258","1228613.05799","1229362.3377","1230128.77991","1230895.74154","1231662.70472","1232429.5705","1236295.7152","1237062.74485","1237829.15274","1238595.88002","1239363.05931","1240112.67384","1240879.18532","1227079.43031","1240122.14413","Mapping"
"Blocked","Female","done","24","F_dime.wav","None","732.054428081","130","1235546.28215","1227846.30258","1228613.05799","1229362.3377","1230128.77991","1230895.74154","1231662.70472","1232429.5705","1236295.7152","1237062.74485","1237829.15274","1238595.88002","1239363.05931","1240112.67384","1240879.18532","1241645.78583","1240888.71527","Mapping"
"Blocked","Female","done","24","F_cave.wav","None","728.915701853","130","1235546.28215","1242412.5196","1228613.05799","1229362.3377","1230128.77991","1230895.74154","1231662.70472","1232429.5705","1236295.7152","1237062.74485","1237829.15274","1238595.88002","1239363.05931","1240112.67384","1240879.18532","1241645.78583","1241655.43327","Mapping"
"Blocked","Female","done","24","F_done.wav","None","726.307825884","130","1235546.28215","1242412.5196","1243179.42774","1229362.3377","1230128.77991","1230895.74154","1231662.70472","1232429.5705","1236295.7152","1237062.74485","1237829.15274","1238595.88002","1239363.05931","1240112.67384","1240879.18532","1241645.78583","1242421.74965","Mapping"
"Blocked","Female","done","24","F_bluff.wav","space","367.03650991","130","1235546.28215","1242412.5196","1243179.42774","1243946.05917","1230128.77991","1230895.74154","1231662.70472","1232429.5705","1236295.7152","1237062.74485","1237829.15274","1238595.88002","1239363.05931","1240112.67384","1240879.18532","1241645.78583","1243189.59768","Mapping"
"Blocked","Female","done","24","F_done.wav","None","718.827998615","130","1235546.28215","1242412.5196","1243179.42774","1243946.05917","1244695.56302","1230895.74154","1231662.70472","1232429.5705","1236295.7152","1237062.74485","1237829.15274","1238595.88002","1239363.05931","1240112.67384","1240879.18532","1241645.78583","1243956.0569","Mapping"
"Blocked","Female","done","24","F_ball.wav","space","643.310898682","130","1235546.28215","1242412.5196","1243179.42774","1243946.05917","1244695.56302","1245462.5565","1231662.70472","1232429.5705","1236295.7152","1237062.74485","1237829.15274","1238595.88002","1239363.05931","1240112.67384","1240879.18532","1241645.78583","1244705.37556","Mapping"
"Blocked","Female","done","24","F_done.wav","None","729.671011912","130","1235546.28215","1242412.5196","1243179.42774","1243946.05917","1244695.56302","1245462.5565","1246228.71273","1232429.5705","1236295.7152","1237062.74485","1237829.15274","1238595.88002","1239363.05931","1240112.67384","1240879.18532","1241645.78583","1245471.76862","Mapping"
"Blocked","Female","done","24","F_priest.wav","None","726.909476798","130","1235546.28215","1242412.5196","1243179.42774","1243946.05917","1244695.56302","1245462.5565","1246228.71273","1246996.00826","1236295.7152","1237062.74485","1237829.15274","1238595.88002","1239363.05931","1240112.67384","1240879.18532","1241645.78583","1246238.01761","Mapping"
"Blocked","Female","tile","17","F_reek.wav","space","0.0327723100781","130","1250112.82101","1242412.5196","1243179.42774","1243946.05917","1244695.56302","1245462.5565","1246228.71273","1246996.00826","1236295.7152","1237062.74485","1237829.15274","1238595.88002","1239363.05931","1240112.67384","1240879.18532","1241645.78583","1247007.0272","Mapping"
"Blocked","Female","tile","17","F_jaw.wav","None","719.576197793","130","1250112.82101","1242412.5196","1243179.42774","1243946.05917","1244695.56302","1245462.5565","1246228.71273","1246996.00826","1250862.24757","1237062.74485","1237829.15274","1238595.88002","1239363.05931","1240112.67384","1240879.18532","1241645.78583","1250122.5374","Mapping"
"Blocked","Female","tile","17","F_cave.wav","None","733.996035764","130","1250112.82101","1242412.5196","1243179.42774","1243946.05917","1244695.56302","1245462.5565","1246228.71273","1246996.00826","1250862.24757","1251628.86602","1237829.15274","1238595.88002","1239363.05931","1240112.67384","1240879.18532","1241645.78583","1250871.83318","Mapping"
"Blocked","Female","tile","17","F_depth.wav","None","731.45772377","130","1250112.82101","1242412.5196","1243179.42774","1243946.05917","1244695.56302","1245462.5565","1246228.71273","1246996.00826","1250862.24757","1251628.86602","1252395.58371","1238595.88002","1239363.05931","1240112.67384","1240879.18532","1241645.78583","1251638.1678","Mapping"
"Blocked","Female","tile","17","F_cad.wav","None","727.976124501","130","1250112.82101","1242412.5196","1243179.42774","1243946.05917","1244695.56302","1245462.5565","1246228.71273","1246996.00826","1250862.24757","1251628.86602","1252395.58371","1253162.28532","1239363.05931","1240112.67384","1240879.18532","1241645.78583","1252405.36378","Mapping"
"Blocked","Female","tile","17","F_tile.wav","None","725.512632285","130","1250112.82101","1242412.5196","1243179.42774","1243946.05917","1244695.56302","1245462.5565","1246228.71273","1246996.00826","1250862.24757","1251628.86602","1252395.58371","1253162.28532","1253929.19594","1240112.67384","1240879.18532","1241645.78583","1253171.49343","Mapping"
"Blocked","Female","tile","17","F_knife.wav","space","561.381855863","130","1250112.82101","1242412.5196","1243179.42774","1243946.05917","1244695.56302","1245462.5565","1246228.71273","1246996.00826","1250862.24757","1251628.86602","1252395.58371","1253162.28532","1253929.19594","1254678.89735","1240879.18532","1241645.78583","1253939.08082","Mapping"
"Blocked","Female","tile","17","F_tile.wav","None","735.531080631","130","1250112.82101","1242412.5196","1243179.42774","1243946.05917","1244695.56302","1245462.5565","1246228.71273","1246996.00826","1250862.24757","1251628.86602","1252395.58371","1253162.28532","1253929.19594","1254678.89735","1255445.45984","1241645.78583","1254688.36176","Mapping"
"Blocked","Female","tile","17","F_depth.wav","None","733.06202353","130","1250112.82101","1242412.5196","1243179.42774","1243946.05917","1244695.56302","1245462.5565","1246228.71273","1246996.00826","1250862.24757","1251628.86602","1252395.58371","1253162.28532","1253929.19594","1254678.89735","1255445.45984","1256212.19917","1255454.54706","Mapping"
"Blocked","Female","tile","17","F_jolt.wav","space","0.0336999073625","130","1250112.82101","1256978.55915","1243179.42774","1243946.05917","1244695.56302","1245462.5565","1246228.71273","1246996.00826","1250862.24757","1251628.86602","1252395.58371","1253162.28532","1253929.19594","1254678.89735","1255445.45984","1256212.19917","1256221.87846","Mapping"
"Blocked","Female","tile","17","F_depth.wav","None","726.951833582","130","1250112.82101","1256978.55915","1257746.0238","1243946.05917","1244695.56302","1245462.5565","1246228.71273","1246996.00826","1250862.24757","1251628.86602","1252395.58371","1253162.28532","1253929.19594","1254678.89735","1255445.45984","1256212.19917","1256987.60123","Mapping"
"Blocked","Female","tile","17","F_tile.wav","None","723.117776797","130","1250112.82101","1256978.55915","1257746.0238","1258511.97072","1244695.56302","1245462.5565","1246228.71273","1246996.00826","1250862.24757","1251628.86602","1252395.58371","1253162.28532","1253929.19594","1254678.89735","1255445.45984","1256212.19917","1257755.40041","Mapping"
"Blocked","Female","tile","17","F_greet.wav","space","603.036761051","130","1250112.82101","1256978.55915","1257746.0238","1258511.97072","1259262.27163","1245462.5565","1246228.71273","1246996.00826","1250862.24757","1251628.86602","1252395.58371","1253162.28532","1253929.19594","1254678.89735","1255445.45984","1256212.19917","1258521.34331","Mapping"
"Blocked","Female","tile","17","F_tile.wav","None","733.4308672","130","1250112.82101","1256978.55915","1257746.0238","1258511.97072","1259262.27163","1260028.41796","1246228.71273","1246996.00826","1250862.24757","1251628.86602","1252395.58371","1253162.28532","1253929.19594","1254678.89735","1255445.45984","1256212.19917","1259271.96884","Mapping"
"Blocked","Female","tile","17","F_priest.wav","space","382.917809649","130","1250112.82101","1256978.55915","1257746.0238","1258511.97072","1259262.27163","1260028.41796","1260795.39103","1246996.00826","1250862.24757","1251628.86602","1252395.58371","1253162.28532","1253929.19594","1254678.89735","1255445.45984","1256212.19917","1260037.46468","Mapping"
"Blocked","Female","tile","17","F_cling.wav","None","727.346647764","130","1250112.82101","1256978.55915","1257746.0238","1258511.97072","1259262.27163","1260028.41796","1260795.39103","1261562.16406","1250862.24757","1251628.86602","1252395.58371","1253162.28532","1253929.19594","1254678.89735","1255445.45984","1256212.19917","1260804.74692","Mapping"
"Blocked","Female","cave","8","F_jaw.wav","None","728.70206309","130","1264695.59487","1256978.55915","1257746.0238","1258511.97072","1259262.27163","1260028.41796","1260795.39103","1261562.16406","1250862.24757","1251628.86602","1252395.58371","1253162.28532","1253929.19594","1254678.89735","1255445.45984","1256212.19917","1261571.34063","Mapping"
"Blocked","Female","cave","8","F_cave.wav","None","719.437688123","130","1264695.59487","1256978.55915","1257746.0238","1258511.97072","1259262.27163","1260028.41796","1260795.39103","1261562.16406","1265445.30896","1251628.86602","1252395.58371","1253162.28532","1253929.19594","1254678.89735","1255445.45984","1256212.19917","1264705.73142","Mapping"
"Blocked","Female","cave","8","F_lash.wav","space","621.457918664","130","1264695.59487","1256978.55915","1257746.0238","1258511.97072","1259262.27163","1260028.41796","1260795.39103","1261562.16406","1265445.30896","1266212.14878","1252395.58371","1253162.28532","1253929.19594","1254678.89735","1255445.45984","1256212.19917","1265454.80089","Mapping"
"Blocked","Female","cave","8","F_cad.wav","None","730.50887126","130","1264695.59487","1256978.55915","1257746.0238","1258511.97072","1259262.27163","1260028.41796","1260795.39103","1261562.16406","1265445.30896","1266212.14878","1266978.4429","1253162.28532","1253929.19594","1254678.89735","1255445.45984","1256212.19917","1266221.70841","Mapping"
"Blocked","Female","cave","8","F_cave.wav","None","728.117725812","130","1264695.59487","1256978.55915","1257746.0238","1258511.97072","1259262.27163","1260028.41796","1260795.39103","1261562.16406","1265445.30896","1266212.14878","1266978.4429","1267745.63888","1253929.19594","1254678.89735","1255445.45984","1256212.19917","1266987.66213","Mapping"
"Blocked","Female","cave","8","F_jolt.wav","space","584.969606716","130","1264695.59487","1256978.55915","1257746.0238","1258511.97072","1259262.27163","1260028.41796","1260795.39103","1261562.16406","1265445.30896","1266212.14878","1266978.4429","1267745.63888","1268512.49292","1254678.89735","1255445.45984","1256212.19917","1267755.25107","Mapping"
"Blocked","Female","cave","8","F_cad.wav","None","720.163008431","130","1264695.59487","1256978.55915","1257746.0238","1258511.97072","1259262.27163","1260028.41796","1260795.39103","1261562.16406","1265445.30896","1266212.14878","1266978.4429","1267745.63888","1268512.49292","1269261.88269","1255445.45984","1256212.19917","1268522.27392","Mapping"
"Blocked","Female","cave","8","F_dime.wav","None","735.000848654","130","1264695.59487","1256978.55915","1257746.0238","1258511.97072","1259262.27163","1260028.41796","1260795.39103","1261562.16406","1265445.30896","1266212.14878","1266978.4429","1267745.63888","1268512.49292","1269261.88269","1270028.54751","1256212.19917","1269271.11027","Mapping"
"Blocked","Female","cave","8","F_cave.wav","None","731.403927668","130","1264695.59487","1256978.55915","1257746.0238","1258511.97072","1259262.27163","1260028.41796","1260795.39103","1261562.16406","1265445.30896","1266212.14878","1266978.4429","1267745.63888","1268512.49292","1269261.88269","1270028.54751","1270795.39721","1270038.37025","Mapping"
"Blocked","Female","cave","8","F_romp.wav","space","519.274630118","130","1264695.59487","1271562.1452","1257746.0238","1258511.97072","1259262.27163","1260028.41796","1260795.39103","1261562.16406","1265445.30896","1266212.14878","1266978.4429","1267745.63888","1268512.49292","1269261.88269","1270028.54751","1270795.39721","1270804.8236","Mapping"
"Blocked","Female","cave","8","F_cave.wav","None","725.259110332","130","1264695.59487","1271562.1452","1272328.51508","1258511.97072","1259262.27163","1260028.41796","1260795.39103","1261562.16406","1265445.30896","1266212.14878","1266978.4429","1267745.63888","1268512.49292","1269261.88269","1270028.54751","1270795.39721","1271571.24665","Mapping"
"Blocked","Female","cave","8","F_jolt.wav","space","682.026494294","130","1264695.59487","1271562.1452","1272328.51508","1273078.40601","1259262.27163","1260028.41796","1260795.39103","1261562.16406","1265445.30896","1266212.14878","1266978.4429","1267745.63888","1268512.49292","1269261.88269","1270028.54751","1270795.39721","1272338.10532","Mapping"
"Blocked","Female","cave","8","F_knife.wav","None","735.535409185","130","1264695.59487","1271562.1452","1272328.51508","1273078.40601","1273844.99818","1260028.41796","1260795.39103","1261562.16406","1265445.30896","1266212.14878","1266978.4429","1267745.63888","1268512.49292","1269261.88269","1270028.54751","1270795.39721","1273087.73346","Mapping"
"Blocked","Female","cave","8","F_tile.wav","None","732.641857117","130","1264695.59487","1271562.1452","1272328.51508","1273078.40601","1273844.99818","1274612.03185","1260795.39103","1261562.16406","1265445.30896","1266212.14878","1266978.4429","1267745.63888","1268512.49292","1269261.88269","1270028.54751","1270795.39721","1273854.32284","Mapping"
"Blocked","Female","cave","8","F_tile.wav","None","729.606394656","130","1264695.59487","1271562.1452","1272328.51508","1273078.40601","1273844.99818","1274612.03185","1275378.16953","1261562.16406","1265445.30896","1266212.14878","1266978.4429","1267745.63888","1268512.49292","1269261.88269","1270028.54751","1270795.39721","1274621.01611","Mapping"
"Blocked","Female","cave","8","F_knife.wav","None","727.409409941","130","1264695.59487","1271562.1452","1272328.51508","1273078.40601","1273844.99818","1274612.03185","1275378.16953","1276145.46475","1265445.30896","1266212.14878","1266978.4429","1267745.63888","1268512.49292","1269261.88269","1270028.54751","1270795.39721","1275386.99982","Mapping"
"Blocked","Female","tile","13","F_done.wav","None","723.219803884","130","1279262.3248","1271562.1452","1272328.51508","1273078.40601","1273844.99818","1274612.03185","1275378.16953","1276145.46475","1265445.30896","1266212.14878","1266978.4429","1267745.63888","1268512.49292","1269261.88269","1270028.54751","1270795.39721","1276154.98451","Mapping"
"Blocked","Female","tile","13","F_cad.wav","None","718.790588668","130","1279262.3248","1271562.1452","1272328.51508","1273078.40601","1273844.99818","1274612.03185","1275378.16953","1276145.46475","1280011.75136","1266212.14878","1266978.4429","1267745.63888","1268512.49292","1269261.88269","1270028.54751","1270795.39721","1279272.14012","Mapping"
"Blocked","Female","tile","13","F_jolt.wav","None","733.811459388","130","1279262.3248","1271562.1452","1272328.51508","1273078.40601","1273844.99818","1274612.03185","1275378.16953","1276145.46475","1280011.75136","1280778.11289","1266978.4429","1267745.63888","1268512.49292","1269261.88269","1270028.54751","1270795.39721","1280021.01296","Mapping"
"Blocked","Female","tile","13","F_reek.wav","None","731.750820065","130","1279262.3248","1271562.1452","1272328.51508","1273078.40601","1273844.99818","1274612.03185","1275378.16953","1276145.46475","1280011.75136","1280778.11289","1281544.73381","1267745.63888","1268512.49292","1269261.88269","1270028.54751","1270795.39721","1280787.13673","Mapping"
"Blocked","Female","tile","13","F_tile.wav","None","729.295675526","130","1279262.3248","1271562.1452","1272328.51508","1273078.40601","1273844.99818","1274612.03185","1275378.16953","1276145.46475","1280011.75136","1280778.11289","1281544.73381","1282311.50313","1268512.49292","1269261.88269","1270028.54751","1270795.39721","1281553.65036","Mapping"
"Blocked","Female","tile","13","F_gnash.wav","space","563.451152062","130","1279262.3248","1271562.1452","1272328.51508","1273078.40601","1273844.99818","1274612.03185","1275378.16953","1276145.46475","1280011.75136","1280778.11289","1281544.73381","1282311.50313","1283078.61192","1269261.88269","1270028.54751","1270795.39721","1282320.50811","Mapping"
"Blocked","Female","tile","13","F_gnash.wav","None","721.282833838","130","1279262.3248","1271562.1452","1272328.51508","1273078.40601","1273844.99818","1274612.03185","1275378.16953","1276145.46475","1280011.75136","1280778.11289","1281544.73381","1282311.50313","1283078.61192","1283828.5378","1270028.54751","1270795.39721","1283088.55833","Mapping"
"Blocked","Female","tile","13","F_cad.wav","None","735.754922032","130","1279262.3248","1271562.1452","1272328.51508","1273078.40601","1273844.99818","1274612.03185","1275378.16953","1276145.46475","1280011.75136","1280778.11289","1281544.73381","1282311.50313","1283078.61192","1283828.5378","1284594.84553","1270795.39721","1283837.93728","Mapping"
"Blocked","Female","tile","13","F_tile.wav","None","733.364394866","130","1279262.3248","1271562.1452","1272328.51508","1273078.40601","1273844.99818","1274612.03185","1275378.16953","1276145.46475","1280011.75136","1280778.11289","1281544.73381","1282311.50313","1283078.61192","1283828.5378","1284594.84553","1285361.90516","1284604.24965","Mapping"
"Blocked","Female","tile","13","F_ball.wav","None","730.153940502","130","1279262.3248","1286127.86507","1272328.51508","1273078.40601","1273844.99818","1274612.03185","1275378.16953","1276145.46475","1280011.75136","1280778.11289","1281544.73381","1282311.50313","1283078.61192","1283828.5378","1284594.84553","1285361.90516","1285371.26012","Mapping"
"Blocked","Female","tile","13","F_tile.wav","space","0.0225696712732","130","1279262.3248","1286127.86507","1286894.72498","1273078.40601","1273844.99818","1274612.03185","1275378.16953","1276145.46475","1280011.75136","1280778.11289","1281544.73381","1282311.50313","1283078.61192","1283828.5378","1284594.84553","1285361.90516","1286136.80296","Mapping"
"Blocked","Female","tile","13","F_cad.wav","None","725.461309659","130","1279262.3248","1286127.86507","1286894.72498","1287661.89004","1273844.99818","1274612.03185","1275378.16953","1276145.46475","1280011.75136","1280778.11289","1281544.73381","1282311.50313","1283078.61192","1283828.5378","1284594.84553","1285361.90516","1286903.91824","Mapping"
"Blocked","Female","tile","13","F_tile.wav","space","11.7662043776","130","1279262.3248","1286127.86507","1286894.72498","1287661.89004","1288411.37999","1274612.03185","1275378.16953","1276145.46475","1280011.75136","1280778.11289","1281544.73381","1282311.50313","1283078.61192","1283828.5378","1284594.84553","1285361.90516","1287672.08287","Mapping"
"Blocked","Female","tile","13","F_jolt.wav","None","735.613320838","130","1279262.3248","1286127.86507","1286894.72498","1287661.89004","1288411.37999","1289178.27885","1275378.16953","1276145.46475","1280011.75136","1280778.11289","1281544.73381","1282311.50313","1283078.61192","1283828.5378","1284594.84553","1285361.90516","1288420.81441","Mapping"
"Blocked","Female","tile","13","F_knife.wav","space","296.098883497","130","1279262.3248","1286127.86507","1286894.72498","1287661.89004","1288411.37999","1289178.27885","1289944.84907","1276145.46475","1280011.75136","1280778.11289","1281544.73381","1282311.50313","1283078.61192","1283828.5378","1284594.84553","1285361.90516","1289187.71358","Mapping"
"Blocked","Female","tile","13","F_ball.wav","None","729.258574778","130","1279262.3248","1286127.86507","1286894.72498","1287661.89004","1288411.37999","1289178.27885","1289944.84907","1290711.56243","1280011.75136","1280778.11289","1281544.73381","1282311.50313","1283078.61192","1283828.5378","1284594.84553","1285361.90516","1289954.13477","Mapping"
"Blocked","Female","cave","10","F_dime.wav","None","726.463030791","130","1293828.71774","1286127.86507","1286894.72498","1287661.89004","1288411.37999","1289178.27885","1289944.84907","1290711.56243","1280011.75136","1280778.11289","1281544.73381","1282311.50313","1283078.61192","1283828.5378","1284594.84553","1285361.90516","1290720.82062","Mapping"
"Blocked","Female","cave","10","F_depth.wav","None","719.089559163","130","1293828.71774","1286127.86507","1286894.72498","1287661.89004","1288411.37999","1289178.27885","1289944.84907","1290711.56243","1294578.03114","1280778.11289","1281544.73381","1282311.50313","1283078.61192","1283828.5378","1284594.84553","1285361.90516","1293838.62612","Mapping"
"Blocked","Female","cave","10","F_jolt.wav","None","734.196380014","130","1293828.71774","1286127.86507","1286894.72498","1287661.89004","1288411.37999","1289178.27885","1289944.84907","1290711.56243","1294578.03114","1295344.91053","1281544.73381","1282311.50313","1283078.61192","1283828.5378","1284594.84553","1285361.90516","1294587.40682","Mapping"
"Blocked","Female","cave","10","F_cave.wav","None","731.295717065","130","1293828.71774","1286127.86507","1286894.72498","1287661.89004","1288411.37999","1289178.27885","1289944.84907","1290711.56243","1294578.03114","1295344.91053","1296111.57133","1282311.50313","1283078.61192","1283828.5378","1284594.84553","1285361.90516","1295354.34742","Mapping"
"Blocked","Female","cave","10","F_lash.wav","space","410.796575481","130","1293828.71774","1286127.86507","1286894.72498","1287661.89004","1288411.37999","1289178.27885","1289944.84907","1290711.56243","1294578.03114","1295344.91053","1296111.57133","1296878.11496","1283078.61192","1283828.5378","1284594.84553","1285361.90516","1296120.9028","Mapping"
"Blocked","Female","cave","10","F_cave.wav","None","724.880682421","130","1293828.71774","1286127.86507","1286894.72498","1287661.89004","1288411.37999","1289178.27885","1289944.84907","1290711.56243","1294578.03114","1295344.91053","1296111.57133","1296878.11496","1297645.19778","1283828.5378","1284594.84553","1285361.90516","1296887.57813","Mapping"
"Blocked","Female","cave","10","F_cling.wav","space","492.370687425","130","1293828.71774","1286127.86507","1286894.72498","1287661.89004","1288411.37999","1289178.27885","1289944.84907","1290711.56243","1294578.03114","1295344.91053","1296111.57133","1296878.11496","1297645.19778","1298394.39308","1284594.84553","1285361.90516","1297655.2926","Mapping"
"Blocked","Female","cave","10","F_jolt.wav","None","735.892195022","130","1293828.71774","1286127.86507","1286894.72498","1287661.89004","1288411.37999","1289178.27885","1289944.84907","1290711.56243","1294578.03114","1295344.91053","1296111.57133","1296878.11496","1297645.19778","1298394.39308","1299161.40943","1285361.90516","1298403.62252","Mapping"
"Blocked","Female","cave","10","F_jaw.wav","None","732.71729541","130","1293828.71774","1286127.86507","1286894.72498","1287661.89004","1288411.37999","1289178.27885","1289944.84907","1290711.56243","1294578.03114","1295344.91053","1296111.57133","1296878.11496","1297645.19778","1298394.39308","1299161.40943","1299928.0455","1299170.78882","Mapping"
"Blocked","Female","cave","10","F_tile.wav","None","729.720170493","130","1293828.71774","1300694.66642","1286894.72498","1287661.89004","1288411.37999","1289178.27885","1289944.84907","1290711.56243","1294578.03114","1295344.91053","1296111.57133","1296878.11496","1297645.19778","1298394.39308","1299161.40943","1299928.0455","1299937.66203","Mapping"
"Blocked","Female","cave","10","F_park.wav","None","727.058498305","130","1293828.71774","1300694.66642","1301461.56158","1287661.89004","1288411.37999","1289178.27885","1289944.84907","1290711.56243","1294578.03114","1295344.91053","1296111.57133","1296878.11496","1297645.19778","1298394.39308","1299161.40943","1299928.0455","1300704.16144","Mapping"
"Blocked","Female","cave","10","F_cave.wav","None","724.954265519","130","1293828.71774","1300694.66642","1301461.56158","1302228.4051","1288411.37999","1289178.27885","1289944.84907","1290711.56243","1294578.03114","1295344.91053","1296111.57133","1296878.11496","1297645.19778","1298394.39308","1299161.40943","1299928.0455","1301470.83214","Mapping"
"Blocked","Female","cave","10","F_cling.wav","space","333.740411326","130","1293828.71774","1300694.66642","1301461.56158","1302228.4051","1302977.67089","1289178.27885","1289944.84907","1290711.56243","1294578.03114","1295344.91053","1296111.57133","1296878.11496","1297645.19778","1298394.39308","1299161.40943","1299928.0455","1302237.85622","Mapping"
"Blocked","Female","cave","10","F_cave.wav","None","735.715038725","130","1293828.71774","1300694.66642","1301461.56158","1302228.4051","1302977.67089","1303744.62325","1289944.84907","1290711.56243","1294578.03114","1295344.91053","1296111.57133","1296878.11496","1297645.19778","1298394.39308","1299161.40943","1299928.0455","1302987.14705","Mapping"
"Blocked","Female","cave","10","F_priest.wav","space","553.430848639","130","1293828.71774","1300694.66642","1301461.56158","1302228.4051","1302977.67089","1303744.62325","1304511.11122","1290711.56243","1294578.03114","1295344.91053","1296111.57133","1296878.11496","1297645.19778","1298394.39308","1299161.40943","1299928.0455","1303754.16619","Mapping"
"Blocked","Female","cave","10","F_romp.wav","None","729.078326956","130","1293828.71774","1300694.66642","1301461.56158","1302228.4051","1302977.67089","1303744.62325","1304511.11122","1305277.87127","1294578.03114","1295344.91053","1296111.57133","1296878.11496","1297645.19778","1298394.39308","1299161.40943","1299928.0455","1304520.49092","Mapping"
"Blocked","Female","cave","9","F_depth.wav","None","726.356056868","130","1308394.99906","1300694.66642","1301461.56158","1302228.4051","1302977.67089","1303744.62325","1304511.11122","1305277.87127","1294578.03114","1295344.91053","1296111.57133","1296878.11496","1297645.19778","1298394.39308","1299161.40943","1299928.0455","1305287.11091","Mapping"
"Blocked","Female","cave","9","F_park.wav","None","719.30196113","130","1308394.99906","1300694.66642","1301461.56158","1302228.4051","1302977.67089","1303744.62325","1304511.11122","1305277.87127","1309144.45438","1295344.91053","1296111.57133","1296878.11496","1297645.19778","1298394.39308","1299161.40943","1299928.0455","1308405.08089","Mapping"
"Blocked","Female","cave","9","F_cave.wav","None","734.713626793","130","1308394.99906","1300694.66642","1301461.56158","1302228.4051","1302977.67089","1303744.62325","1304511.11122","1305277.87127","1309144.45438","1309911.37581","1296111.57133","1296878.11496","1297645.19778","1298394.39308","1299161.40943","1299928.0455","1309153.63929","Mapping"
"Blocked","Female","cave","9","F_priest.wav","space","634.497298393","130","1308394.99906","1300694.66642","1301461.56158","1302228.4051","1302977.67089","1303744.62325","1304511.11122","1305277.87127","1309144.45438","1309911.37581","1310677.95932","1296878.11496","1297645.19778","1298394.39308","1299161.40943","1299928.0455","1309920.93514","Mapping"
"Blocked","Female","cave","9","F_jaw.wav","None","727.804224123","130","1308394.99906","1300694.66642","1301461.56158","1302228.4051","1302977.67089","1303744.62325","1304511.11122","1305277.87127","1309144.45438","1309911.37581","1310677.95932","1311444.56107","1297645.19778","1298394.39308","1299161.40943","1299928.0455","1310687.32881","Mapping"
"Blocked","Female","cave","9","F_cave.wav","None","725.094939349","130","1308394.99906","1300694.66642","1301461.56158","1302228.4051","1302977.67089","1303744.62325","1304511.11122","1305277.87127","1309144.45438","1309911.37581","1310677.95932","1311444.56107","1312211.67914","1298394.39308","1299161.40943","1299928.0455","1311454.00384","Mapping"
"Blocked","Female","cave","9","F_park.wav","space","453.597585787","130","1308394.99906","1300694.66642","1301461.56158","1302228.4051","1302977.67089","1303744.62325","1304511.11122","1305277.87127","1309144.45438","1309911.37581","1310677.95932","1311444.56107","1312211.67914","1312960.75541","1299161.40943","1299928.0455","1312221.83641","Mapping"
"Blocked","Female","cave","9","F_cave.wav","None","736.00689834","130","1308394.99906","1300694.66642","1301461.56158","1302228.4051","1302977.67089","1303744.62325","1304511.11122","1305277.87127","1309144.45438","1309911.37581","1310677.95932","1311444.56107","1312211.67914","1312960.75541","1313727.82741","1299928.0455","1312969.99721","Mapping"
"Blocked","Female","cave","9","F_greet.wav","None","732.657315908","130","1308394.99906","1300694.66642","1301461.56158","1302228.4051","1302977.67089","1303744.62325","1304511.11122","1305277.87127","1309144.45438","1309911.37581","1310677.95932","1311444.56107","1312211.67914","1312960.75541","1313727.82741","1314494.4372","1313737.29646","Mapping"
"Blocked","Female","cave","9","F_priest.wav","space","139.475759701","130","1308394.99906","1315261.13016","1301461.56158","1302228.4051","1302977.67089","1303744.62325","1304511.11122","1305277.87127","1309144.45438","1309911.37581","1310677.95932","1311444.56107","1312211.67914","1312960.75541","1313727.82741","1314494.4372","1314503.93067","Mapping"
"Blocked","Female","cave","9","F_cave.wav","None","726.167770335","130","1308394.99906","1315261.13016","1316028.2068","1302228.4051","1302977.67089","1303744.62325","1304511.11122","1305277.87127","1309144.45438","1309911.37581","1310677.95932","1311444.56107","1312211.67914","1312960.75541","1313727.82741","1314494.4372","1315270.8753","Mapping"
"Blocked","Female","cave","9","F_knife.wav","space","429.001311888","130","1308394.99906","1315261.13016","1316028.2068","1316794.72384","1302977.67089","1303744.62325","1304511.11122","1305277.87127","1309144.45438","1309911.37581","1310677.95932","1311444.56107","1312211.67914","1312960.75541","1313727.82741","1314494.4372","1316038.29759","Mapping"
"Blocked","Female","cave","9","F_knife.wav","None","719.742223737","130","1308394.99906","1315261.13016","1316028.2068","1316794.72384","1317544.21254","1303744.62325","1304511.11122","1305277.87127","1309144.45438","1309911.37581","1310677.95932","1311444.56107","1312211.67914","1312960.75541","1313727.82741","1314494.4372","1316804.70858","Mapping"
"Blocked","Female","cave","9","F_cling.wav","None","735.321461223","130","1308394.99906","1315261.13016","1316028.2068","1316794.72384","1317544.21254","1318310.80934","1304511.11122","1305277.87127","1309144.45438","1309911.37581","1310677.95932","1311444.56107","1312211.67914","1312960.75541","1313727.82741","1314494.4372","1317553.45404","Mapping"
"Blocked","Female","cave","9","F_priest.wav","None","732.795825461","130","1308394.99906","1315261.13016","1316028.2068","1316794.72384","1317544.21254","1318310.80934","1319077.75706","1305277.87127","1309144.45438","1309911.37581","1310677.95932","1311444.56107","1312211.67914","1312960.75541","1313727.82741","1314494.4372","1318320.17296","Mapping"
"Blocked","Female","cave","9","F_cad.wav","None","729.410069762","130","1308394.99906","1315261.13016","1316028.2068","1316794.72384","1317544.21254","1318310.80934","1319077.75706","1319844.30532","1309144.45438","1309911.37581","1310677.95932","1311444.56107","1312211.67914","1312960.75541","1313727.82741","1314494.4372","1319087.55445","Mapping"
"Blocked","Female","done","21","F_reek.wav","None","727.204118972","130","1322978.08333","1315261.13016","1316028.2068","1316794.72384","1317544.21254","1318310.80934","1319077.75706","1319844.30532","1309144.45438","1309911.37581","1310677.95932","1311444.56107","1312211.67914","1312960.75541","1313727.82741","1314494.4372","1319853.84332","Mapping"
"Blocked","Female","done","21","F_knife.wav","None","719.676679117","130","1322978.08333","1315261.13016","1316028.2068","1316794.72384","1317544.21254","1318310.80934","1319077.75706","1319844.30532","1323727.49505","1309911.37581","1310677.95932","1311444.56107","1312211.67914","1312960.75541","1313727.82741","1314494.4372","1322987.67326","Mapping"
"Blocked","Female","done","21","F_romp.wav","None","734.359932714","130","1322978.08333","1315261.13016","1316028.2068","1316794.72384","1317544.21254","1318310.80934","1319077.75706","1319844.30532","1323727.49505","1324494.11164","1310677.95932","1311444.56107","1312211.67914","1312960.75541","1313727.82741","1314494.4372","1323737.08962","Mapping"
"Blocked","Female","done","21","F_jaw.wav","None","732.315061032","130","1322978.08333","1315261.13016","1316028.2068","1316794.72384","1317544.21254","1318310.80934","1319077.75706","1319844.30532","1323727.49505","1324494.11164","1325260.44627","1311444.56107","1312211.67914","1312960.75541","1313727.82741","1314494.4372","1324503.11229","Mapping"
"Blocked","Female","done","21","F_tile.wav","None","731.937560602","130","1322978.08333","1315261.13016","1316028.2068","1316794.72384","1317544.21254","1318310.80934","1319077.75706","1319844.30532","1323727.49505","1324494.11164","1325260.44627","1326027.65833","1312211.67914","1312960.75541","1313727.82741","1314494.4372","1325269.24905","Mapping"
"Blocked","Female","done","21","F_romp.wav","None","728.2191345","130","1322978.08333","1315261.13016","1316028.2068","1316794.72384","1317544.21254","1318310.80934","1319077.75706","1319844.30532","1323727.49505","1324494.11164","1325260.44627","1326027.65833","1326794.23132","1312960.75541","1313727.82741","1314494.4372","1326037.09151","Mapping"
"Blocked","Female","done","21","F_done.wav","None","726.059250534","130","1322978.08333","1315261.13016","1316028.2068","1316794.72384","1317544.21254","1318310.80934","1319077.75706","1319844.30532","1323727.49505","1324494.11164","1325260.44627","1326027.65833","1326794.23132","1327561.38959","1313727.82741","1314494.4372","1326803.58041","Mapping"
"Blocked","Female","done","21","F_cave.wav","space","503.823390463","130","1322978.08333","1315261.13016","1316028.2068","1316794.72384","1317544.21254","1318310.80934","1319077.75706","1319844.30532","1323727.49505","1324494.11164","1325260.44627","1326027.65833","1326794.23132","1327561.38959","1328328.09151","1314494.4372","1327571.30848","Mapping"
"Blocked","Female","done","21","F_done.wav","None","719.706359552","130","1322978.08333","1315261.13016","1316028.2068","1316794.72384","1317544.21254","1318310.80934","1319077.75706","1319844.30532","1323727.49505","1324494.11164","1325260.44627","1326027.65833","1326794.23132","1327561.38959","1328328.09151","1329077.40491","1328337.7541","Mapping"
"Blocked","Female","done","21","F_ball.wav","space","684.415166383","130","1322978.08333","1329843.95781","1316028.2068","1316794.72384","1317544.21254","1318310.80934","1319077.75706","1319844.30532","1323727.49505","1324494.11164","1325260.44627","1326027.65833","1326794.23132","1327561.38959","1328328.09151","1329077.40491","1329086.72927","Mapping"
"Blocked","Female","done","21","F_done.wav","None","731.518321671","130","1322978.08333","1329843.95781","1330610.53267","1316794.72384","1317544.21254","1318310.80934","1319077.75706","1319844.30532","1323727.49505","1324494.11164","1325260.44627","1326027.65833","1326794.23132","1327561.38959","1328328.09151","1329077.40491","1329853.06265","Mapping"
"Blocked","Female","done","21","F_park.wav","space","543.492166908","130","1322978.08333","1329843.95781","1330610.53267","1331377.49398","1317544.21254","1318310.80934","1319077.75706","1319844.30532","1323727.49505","1324494.11164","1325260.44627","1326027.65833","1326794.23132","1327561.38959","1328328.09151","1329077.40491","1330619.58155","Mapping"
"Blocked","Female","done","21","F_bluff.wav","None","725.084427395","130","1322978.08333","1329843.95781","1330610.53267","1331377.49398","1332144.57403","1318310.80934","1319077.75706","1319844.30532","1323727.49505","1324494.11164","1325260.44627","1326027.65833","1326794.23132","1327561.38959","1328328.09151","1329077.40491","1331386.97849","Mapping"
"Blocked","Female","done","21","F_done.wav","None","721.531718271","130","1322978.08333","1329843.95781","1330610.53267","1331377.49398","1332144.57403","1332910.62699","1319077.75706","1319844.30532","1323727.49505","1324494.11164","1325260.44627","1326027.65833","1326794.23132","1327561.38959","1328328.09151","1329077.40491","1332154.57052","Mapping"
"Blocked","Female","done","21","F_cling.wav","space","434.9912334","130","1322978.08333","1329843.95781","1330610.53267","1331377.49398","1332144.57403","1332910.62699","1333660.20598","1319844.30532","1323727.49505","1324494.11164","1325260.44627","1326027.65833","1326794.23132","1327561.38959","1328328.09151","1329077.40491","1332920.01504","Mapping"
"Blocked","Female","done","21","F_reek.wav","None","733.569685952","130","1322978.08333","1329843.95781","1330610.53267","1331377.49398","1332144.57403","1332910.62699","1333660.20598","1334427.52099","1323727.49505","1324494.11164","1325260.44627","1326027.65833","1326794.23132","1327561.38959","1328328.09151","1329077.40491","1333669.61535","Mapping"
"Blocked","Female","tile","18","F_gnash.wav","None","730.416119331","130","1337561.11349","1329843.95781","1330610.53267","1331377.49398","1332144.57403","1332910.62699","1333660.20598","1334427.52099","1323727.49505","1324494.11164","1325260.44627","1326027.65833","1326794.23132","1327561.38959","1328328.09151","1329077.40491","1334436.93284","Mapping"
"Blocked","Female","tile","18","F_depth.wav","None","719.280628255","130","1337561.11349","1329843.95781","1330610.53267","1331377.49398","1332144.57403","1332910.62699","1333660.20598","1334427.52099","1338310.69093","1324494.11164","1325260.44627","1326027.65833","1326794.23132","1327561.38959","1328328.09151","1329077.40491","1337570.94984","Mapping"
"Blocked","Female","tile","18","F_lash.wav","None","734.482674394","130","1337561.11349","1329843.95781","1330610.53267","1331377.49398","1332144.57403","1332910.62699","1333660.20598","1334427.52099","1338310.69093","1339077.47448","1325260.44627","1326027.65833","1326794.23132","1327561.38959","1328328.09151","1329077.40491","1338319.97015","Mapping"
"Blocked","Female","tile","18","F_jolt.wav","None","730.047275661","130","1337561.11349","1329843.95781","1330610.53267","1331377.49398","1332144.57403","1332910.62699","1333660.20598","1334427.52099","1338310.69093","1339077.47448","1339843.98718","1326027.65833","1326794.23132","1327561.38959","1328328.09151","1329077.40491","1339088.6143","Mapping"
"Blocked","Female","tile","18","F_tile.wav","None","729.443769553","130","1337561.11349","1329843.95781","1330610.53267","1331377.49398","1332144.57403","1332910.62699","1333660.20598","1334427.52099","1338310.69093","1339077.47448","1339843.98718","1340610.65139","1326794.23132","1327561.38959","1328328.09151","1329077.40491","1339853.48035","Mapping"
"Blocked","Female","tile","18","F_depth.wav","space","582.92226179","130","1337561.11349","1329843.95781","1330610.53267","1331377.49398","1332144.57403","1332910.62699","1333660.20598","1334427.52099","1338310.69093","1339077.47448","1339843.98718","1340610.65139","1341377.34002","1327561.38959","1328328.09151","1329077.40491","1340619.95997","Mapping"
"Blocked","Female","tile","18","F_tile.wav","None","723.675216082","130","1337561.11349","1329843.95781","1330610.53267","1331377.49398","1332144.57403","1332910.62699","1333660.20598","1334427.52099","1338310.69093","1339077.47448","1339843.98718","1340610.65139","1341377.34002","1342144.44417","1328328.09151","1329077.40491","1341386.56667","Mapping"
"Blocked","Female","tile","18","F_done.wav","space","616.973670432","130","1337561.11349","1329843.95781","1330610.53267","1331377.49398","1332144.57403","1332910.62699","1333660.20598","1334427.52099","1338310.69093","1339077.47448","1339843.98718","1340610.65139","1341377.34002","1342144.44417","1342893.85558","1329077.40491","1342153.91075","Mapping"
"Blocked","Female","tile","18","F_done.wav","None","734.401670983","130","1337561.11349","1329843.95781","1330610.53267","1331377.49398","1332144.57403","1332910.62699","1333660.20598","1334427.52099","1338310.69093","1339077.47448","1339843.98718","1340610.65139","1341377.34002","1342144.44417","1342893.85558","1343660.81227","1342903.23126","Mapping"
"Blocked","Female","tile","18","F_cad.wav","None","732.05597396","130","1337561.11349","1344427.23222","1330610.53267","1331377.49398","1332144.57403","1332910.62699","1333660.20598","1334427.52099","1338310.69093","1339077.47448","1339843.98718","1340610.65139","1341377.34002","1342144.44417","1342893.85558","1343660.81227","1343669.86795","Mapping"
"Blocked","Female","tile","18","F_park.wav","None","729.278980289","130","1337561.11349","1344427.23222","1345193.85376","1331377.49398","1332144.57403","1332910.62699","1333660.20598","1334427.52099","1338310.69093","1339077.47448","1339843.98718","1340610.65139","1341377.34002","1342144.44417","1342893.85558","1343660.81227","1344436.87843","Mapping"
"Blocked","Female","tile","18","F_greet.wav","None","727.359323879","130","1337561.11349","1344427.23222","1345193.85376","1345960.72449","1332144.57403","1332910.62699","1333660.20598","1334427.52099","1338310.69093","1339077.47448","1339843.98718","1340610.65139","1341377.34002","1342144.44417","1342893.85558","1343660.81227","1345203.15833","Mapping"
"Blocked","Female","tile","18","F_tile.wav","None","724.901706097","130","1337561.11349","1344427.23222","1345193.85376","1345960.72449","1346727.65768","1332910.62699","1333660.20598","1334427.52099","1338310.69093","1339077.47448","1339843.98718","1340610.65139","1341377.34002","1342144.44417","1342893.85558","1343660.81227","1345969.92332","Mapping"
"Blocked","Female","tile","18","F_cave.wav","space","721.552123665","130","1337561.11349","1344427.23222","1345193.85376","1345960.72449","1346727.65768","1347494.24335","1333660.20598","1334427.52099","1338310.69093","1339077.47448","1339843.98718","1340610.65139","1341377.34002","1342144.44417","1342893.85558","1343660.81227","1346737.24019","Mapping"
"Blocked","Female","tile","18","F_tile.wav","None","719.78210716","130","1337561.11349","1344427.23222","1345193.85376","1345960.72449","1346727.65768","1347494.24335","1348243.71876","1334427.52099","1338310.69093","1339077.47448","1339843.98718","1340610.65139","1341377.34002","1342144.44417","1342893.85558","1343660.81227","1347503.90779","Mapping"
"Blocked","Female","tile","18","F_jaw.wav","None","735.130701447","130","1337561.11349","1344427.23222","1345193.85376","1345960.72449","1346727.65768","1347494.24335","1348243.71876","1349010.50169","1338310.69093","1339077.47448","1339843.98718","1340610.65139","1341377.34002","1342144.44417","1342893.85558","1343660.81227","1348252.91388","Mapping"
"Blocked","Female","cave","7","F_done.wav","space","422.850311035","130","1352144.13222","1344427.23222","1345193.85376","1345960.72449","1346727.65768","1347494.24335","1348243.71876","1349010.50169","1338310.69093","1339077.47448","1339843.98718","1340610.65139","1341377.34002","1342144.44417","1342893.85558","1343660.81227","1349019.88973","Mapping"
"Blocked","Female","cave","7","F_tile.wav","None","719.699557871","130","1352144.13222","1344427.23222","1345193.85376","1345960.72449","1346727.65768","1347494.24335","1348243.71876","1349010.50169","1352893.65215","1339077.47448","1339843.98718","1340610.65139","1341377.34002","1342144.44417","1342893.85558","1343660.81227","1352154.01865","Mapping"
"Blocked","Female","cave","7","F_cave.wav","None","734.457013081","130","1352144.13222","1344427.23222","1345193.85376","1345960.72449","1346727.65768","1347494.24335","1348243.71876","1349010.50169","1352893.65215","1353660.62058","1339843.98718","1340610.65139","1341377.34002","1342144.44417","1342893.85558","1343660.81227","1352903.55435","Mapping"
"Blocked","Female","cave","7","F_knife.wav","space","484.953622567","130","1352144.13222","1344427.23222","1345193.85376","1345960.72449","1346727.65768","1347494.24335","1348243.71876","1349010.50169","1352893.65215","1353660.62058","1354426.64819","1340610.65139","1341377.34002","1342144.44417","1342893.85558","1343660.81227","1353669.70656","Mapping"
"Blocked","Female","cave","7","F_cave.wav","None","729.811067344","130","1352144.13222","1344427.23222","1345193.85376","1345960.72449","1346727.65768","1347494.24335","1348243.71876","1349010.50169","1352893.65215","1353660.62058","1354426.64819","1355193.71927","1341377.34002","1342144.44417","1342893.85558","1343660.81227","1354435.39192","Mapping"
"Blocked","Female","cave","7","F_jolt.wav","space","391.566311591","130","1352144.13222","1344427.23222","1345193.85376","1345960.72449","1346727.65768","1347494.24335","1348243.71876","1349010.50169","1352893.65215","1353660.62058","1354426.64819","1355193.71927","1355960.86269","1342144.44417","1342893.85558","1343660.81227","1355203.05908","Mapping"
"Blocked","Female","cave","7","F_cave.wav","None","721.226564259","130","1352144.13222","1344427.23222","1345193.85376","1345960.72449","1346727.65768","1347494.24335","1348243.71876","1349010.50169","1352893.65215","1353660.62058","1354426.64819","1355193.71927","1355960.86269","1356727.41745","1342893.85558","1343660.81227","1355971.156","Mapping"
"Blocked","Female","cave","7","F_tile.wav","space","473.500610446","130","1352144.13222","1344427.23222","1345193.85376","1345960.72449","1346727.65768","1347494.24335","1348243.71876","1349010.50169","1352893.65215","1353660.62058","1354426.64819","1355193.71927","1355960.86269","1356727.41745","1357476.98345","1343660.81227","1356737.13909","Mapping"
"Blocked","Female","cave","7","F_park.wav","None","733.241343987","130","1352144.13222","1344427.23222","1345193.85376","1345960.72449","1346727.65768","1347494.24335","1348243.71876","1349010.50169","1352893.65215","1353660.62058","1354426.64819","1355193.71927","1355960.86269","1356727.41745","1357476.98345","1358243.46276","1357486.25493","Mapping"
"Blocked","Female","cave","7","F_greet.wav","None","731.327561894","130","1352144.13222","1359009.99526","1345193.85376","1345960.72449","1346727.65768","1347494.24335","1348243.71876","1349010.50169","1352893.65215","1353660.62058","1354426.64819","1355193.71927","1355960.86269","1356727.41745","1357476.98345","1358243.46276","1358252.55215","Mapping"
"Blocked","Female","cave","7","F_reek.wav","None","728.714739205","130","1352144.13222","1359009.99526","1359776.93927","1345960.72449","1346727.65768","1347494.24335","1348243.71876","1349010.50169","1352893.65215","1353660.62058","1354426.64819","1355193.71927","1355960.86269","1356727.41745","1357476.98345","1358243.46276","1359019.26273","Mapping"
"Blocked","Female","cave","7","F_cling.wav","None","725.919195102","130","1352144.13222","1359009.99526","1359776.93927","1360543.86348","1346727.65768","1347494.24335","1348243.71876","1349010.50169","1352893.65215","1353660.62058","1354426.64819","1355193.71927","1355960.86269","1356727.41745","1357476.98345","1358243.46276","1359786.3641","Mapping"
"Blocked","Female","cave","7","F_done.wav","None","722.51488897","130","1352144.13222","1359009.99526","1359776.93927","1360543.86348","1361310.82078","1347494.24335","1348243.71876","1349010.50169","1352893.65215","1353660.62058","1354426.64819","1355193.71927","1355960.86269","1356727.41745","1357476.98345","1358243.46276","1360553.98952","Mapping"
"Blocked","Female","cave","7","F_cave.wav","None","720.44342861","130","1352144.13222","1359009.99526","1359776.93927","1360543.86348","1361310.82078","1362060.09523","1348243.71876","1349010.50169","1352893.65215","1353660.62058","1354426.64819","1355193.71927","1355960.86269","1356727.41745","1357476.98345","1358243.46276","1361320.5684","Mapping"
"Blocked","Female","cave","7","F_cad.wav","space","476.787739899","130","1352144.13222","1359009.99526","1359776.93927","1360543.86348","1361310.82078","1362060.09523","1362826.66545","1349010.50169","1352893.65215","1353660.62058","1354426.64819","1355193.71927","1355960.86269","1356727.41745","1357476.98345","1358243.46276","1362069.74453","Mapping"
"Blocked","Female","cave","7","F_greet.wav","None","732.468101778","130","1352144.13222","1359009.99526","1359776.93927","1360543.86348","1361310.82078","1362060.09523","1362826.66545","1363593.54391","1352893.65215","1353660.62058","1354426.64819","1355193.71927","1355960.86269","1356727.41745","1357476.98345","1358243.46276","1362835.8179","Mapping"
"Blocked","Female","done","22","F_cave.wav","None","729.71305938","130","1366727.2171","1359009.99526","1359776.93927","1360543.86348","1361310.82078","1362060.09523","1362826.66545","1363593.54391","1352893.65215","1353660.62058","1354426.64819","1355193.71927","1355960.86269","1356727.41745","1357476.98345","1358243.46276","1363602.98729","Mapping"
"Blocked","Female","done","22","F_done.wav","None","719.633085653","130","1366727.2171","1359009.99526","1359776.93927","1360543.86348","1361310.82078","1362060.09523","1362826.66545","1363593.54391","1367476.67644","1353660.62058","1354426.64819","1355193.71927","1355960.86269","1356727.41745","1357476.98345","1358243.46276","1366736.97801","Mapping"
"Blocked","Female","done","22","F_park.wav","None","734.695694642","130","1366727.2171","1359009.99526","1359776.93927","1360543.86348","1361310.82078","1362060.09523","1362826.66545","1363593.54391","1367476.67644","1368243.6832","1354426.64819","1355193.71927","1355960.86269","1356727.41745","1357476.98345","1358243.46276","1367486.11179","Mapping"
"Blocked","Female","done","22","F_done.wav","space","0.0349365873262","130","1366727.2171","1359009.99526","1359776.93927","1360543.86348","1361310.82078","1362060.09523","1362826.66545","1363593.54391","1367476.67644","1368243.6832","1369010.28403","1355193.71927","1355960.86269","1356727.41745","1357476.98345","1358243.46276","1368253.41876","Mapping"
"Blocked","Female","done","22","F_cling.wav","space","534.689078457","130","1366727.2171","1359009.99526","1359776.93927","1360543.86348","1361310.82078","1362060.09523","1362826.66545","1363593.54391","1367476.67644","1368243.6832","1369010.28403","1369776.57382","1355960.86269","1356727.41745","1357476.98345","1358243.46276","1369019.70577","Mapping"
"Blocked","Female","done","22","F_done.wav","None","725.392054766","130","1366727.2171","1359009.99526","1359776.93927","1360543.86348","1361310.82078","1362060.09523","1362826.66545","1363593.54391","1367476.67644","1368243.6832","1369010.28403","1369776.57382","1370543.49711","1356727.41745","1357476.98345","1358243.46276","1369785.77296","Mapping"
"Blocked","Female","done","22","F_romp.wav","space","345.434269286","130","1366727.2171","1359009.99526","1359776.93927","1360543.86348","1361310.82078","1362060.09523","1362826.66545","1363593.54391","1367476.67644","1368243.6832","1369010.28403","1369776.57382","1370543.49711","1371293.60633","1357476.98345","1358243.46276","1370560.91562","Mapping"
"Blocked","Female","done","22","F_depth.wav","None","735.263955081","130","1366727.2171","1359009.99526","1359776.93927","1360543.86348","1361310.82078","1362060.09523","1362826.66545","1363593.54391","1367476.67644","1368243.6832","1369010.28403","1369776.57382","1370543.49711","1371293.60633","1372060.07544","1358243.46276","1371303.40403","Mapping"
"Blocked","Female","done","22","F_dime.wav","None","733.219392714","130","1366727.2171","1359009.99526","1359776.93927","1360543.86348","1361310.82078","1362060.09523","1362826.66545","1363593.54391","1367476.67644","1368243.6832","1369010.28403","1369776.57382","1370543.49711","1371293.60633","1372060.07544","1372826.6234","1372069.9053","Mapping"
"Blocked","Female","done","22","F_jaw.wav","None","731.0282822","130","1366727.2171","1373593.33367","1359776.93927","1360543.86348","1361310.82078","1362060.09523","1362826.66545","1363593.54391","1367476.67644","1368243.6832","1369010.28403","1369776.57382","1370543.49711","1371293.60633","1372060.07544","1372826.6234","1372836.51941","Mapping"
"Blocked","Female","done","22","F_tile.wav","None","728.964860202","130","1366727.2171","1373593.33367","1374360.27551","1360543.86348","1361310.82078","1362060.09523","1362826.66545","1363593.54391","1367476.67644","1368243.6832","1369010.28403","1369776.57382","1370543.49711","1371293.60633","1372060.07544","1372826.6234","1373603.22969","Mapping"
"Blocked","Female","done","22","F_done.wav","None","725.122764939","130","1366727.2171","1373593.33367","1374360.27551","1375126.84573","1361310.82078","1362060.09523","1362826.66545","1363593.54391","1367476.67644","1368243.6832","1369010.28403","1369776.57382","1370543.49711","1371293.60633","1372060.07544","1372826.6234","1374371.39554","Mapping"
"Blocked","Female","done","22","F_greet.wav","space","433.176077553","130","1366727.2171","1373593.33367","1374360.27551","1375126.84573","1375893.71491","1362060.09523","1362826.66545","1363593.54391","1367476.67644","1368243.6832","1369010.28403","1369776.57382","1370543.49711","1371293.60633","1372060.07544","1372826.6234","1375137.16067","Mapping"
"Blocked","Female","done","22","F_greet.wav","None","719.650708488","130","1366727.2171","1373593.33367","1374360.27551","1375126.84573","1375893.71491","1376643.25525","1362826.66545","1363593.54391","1367476.67644","1368243.6832","1369010.28403","1369776.57382","1370543.49711","1371293.60633","1372060.07544","1372826.6234","1375904.1764","Mapping"
"Blocked","Female","done","22","F_bluff.wav","None","735.296109109","130","1366727.2171","1373593.33367","1374360.27551","1375126.84573","1375893.71491","1376643.25525","1377410.14453","1363593.54391","1367476.67644","1368243.6832","1369010.28403","1369776.57382","1370543.49711","1371293.60633","1372060.07544","1372826.6234","1376652.89743","Mapping"
"Blocked","Female","done","22","F_knife.wav","None","732.553124428","130","1366727.2171","1373593.33367","1374360.27551","1375126.84573","1375893.71491","1376643.25525","1377410.14453","1378176.61674","1367476.67644","1368243.6832","1369010.28403","1369776.57382","1370543.49711","1371293.60633","1372060.07544","1372826.6234","1377419.98489","Mapping"
"Blocked","Female","ball","2","F_depth.wav","None","729.700074182","130","1381310.58581","1373593.33367","1374360.27551","1375126.84573","1375893.71491","1376643.25525","1377410.14453","1378176.61674","1367476.67644","1368243.6832","1369010.28403","1369776.57382","1370543.49711","1371293.60633","1372060.07544","1372826.6234","1378187.23313","Mapping"
"Blocked","Female","ball","2","F_park.wav","None","719.264241983","130","1381310.58581","1373593.33367","1374360.27551","1375126.84573","1375893.71491","1376643.25525","1377410.14453","1378176.61674","1382059.50131","1368243.6832","1369010.28403","1369776.57382","1370543.49711","1371293.60633","1372060.07544","1372826.6234","1381320.22707","Mapping"
"Blocked","Female","ball","2","F_lash.wav","None","734.77638897","130","1381310.58581","1373593.33367","1374360.27551","1375126.84573","1375893.71491","1376643.25525","1377410.14453","1378176.61674","1382059.50131","1382826.70286","1369010.28403","1369776.57382","1370543.49711","1371293.60633","1372060.07544","1372826.6234","1382069.11134","Mapping"
"Blocked","Female","ball","2","F_bluff.wav","None","731.895822217","130","1381310.58581","1373593.33367","1374360.27551","1375126.84573","1375893.71491","1376643.25525","1377410.14453","1378176.61674","1382059.50131","1382826.70286","1383593.1797","1369776.57382","1370543.49711","1371293.60633","1372060.07544","1372826.6234","1382836.48695","Mapping"
"Blocked","Female","ball","2","F_ball.wav","None","730.161051382","130","1381310.58581","1373593.33367","1374360.27551","1375126.84573","1375893.71491","1376643.25525","1377410.14453","1378176.61674","1382059.50131","1382826.70286","1383593.1797","1384359.83618","1370543.49711","1371293.60633","1372060.07544","1372826.6234","1383602.73594","Mapping"
"Blocked","Female","ball","2","F_tile.wav","space","488.652570639","130","1381310.58581","1373593.33367","1374360.27551","1375126.84573","1375893.71491","1376643.25525","1377410.14453","1378176.61674","1382059.50131","1382826.70286","1383593.1797","1384359.83618","1385126.45555","1371293.60633","1372060.07544","1372826.6234","1384369.50773","Mapping"
"Blocked","Female","ball","2","F_park.wav","None","724.522968871","130","1381310.58581","1373593.33367","1374360.27551","1375126.84573","1375893.71491","1376643.25525","1377410.14453","1378176.61674","1382059.50131","1382826.70286","1383593.1797","1384359.83618","1385126.45555","1385893.51147","1372060.07544","1372826.6234","1385136.1945","Mapping"
"Blocked","Female","ball","2","F_ball.wav","None","721.344668418","130","1381310.58581","1373593.33367","1374360.27551","1375126.84573","1375893.71491","1376643.25525","1377410.14453","1378176.61674","1382059.50131","1382826.70286","1383593.1797","1384359.83618","1385126.45555","1385893.51147","1386660.36087","1372826.6234","1385903.86754","Mapping"
"Blocked","Female","ball","2","F_romp.wav","space","690.95263374","130","1381310.58581","1373593.33367","1374360.27551","1375126.84573","1375893.71491","1376643.25525","1377410.14453","1378176.61674","1382059.50131","1382826.70286","1383593.1797","1384359.83618","1385126.45555","1385893.51147","1386660.36087","1387410.01282","1386671.10341","Mapping"
"Blocked","Female","ball","2","F_ball.wav","None","732.853950001","130","1381310.58581","1388176.54439","1374360.27551","1375126.84573","1375893.71491","1376643.25525","1377410.14453","1378176.61674","1382059.50131","1382826.70286","1383593.1797","1384359.83618","1385126.45555","1385893.51147","1386660.36087","1387410.01282","1387419.79815","Mapping"
"Blocked","Female","ball","2","F_priest.wav","space","439.378710231","130","1381310.58581","1388176.54439","1388943.12666","1375126.84573","1375893.71491","1376643.25525","1377410.14453","1378176.61674","1382059.50131","1382826.70286","1383593.1797","1384359.83618","1385126.45555","1385893.51147","1386660.36087","1387410.01282","1388186.62807","Mapping"
"Blocked","Female","ball","2","F_reek.wav","None","727.38684027","130","1381310.58581","1388176.54439","1388943.12666","1389709.92721","1375893.71491","1376643.25525","1377410.14453","1378176.61674","1382059.50131","1382826.70286","1383593.1797","1384359.83618","1385126.45555","1385893.51147","1386660.36087","1387410.01282","1388952.58798","Mapping"
"Blocked","Female","ball","2","F_cad.wav","None","724.870788865","130","1381310.58581","1388176.54439","1388943.12666","1389709.92721","1390476.86689","1376643.25525","1377410.14453","1378176.61674","1382059.50131","1382826.70286","1383593.1797","1384359.83618","1385126.45555","1385893.51147","1386660.36087","1387410.01282","1389719.48994","Mapping"
"Blocked","Female","ball","2","F_jaw.wav","None","719.661220326","130","1381310.58581","1388176.54439","1388943.12666","1389709.92721","1390476.86689","1391243.47389","1377410.14453","1378176.61674","1382059.50131","1382826.70286","1383593.1797","1384359.83618","1385126.45555","1385893.51147","1386660.36087","1387410.01282","1390489.15034","Mapping"
"Blocked","Female","ball","2","F_ball.wav","None","719.151084544","130","1381310.58581","1388176.54439","1388943.12666","1389709.92721","1390476.86689","1391243.47389","1391992.95209","1378176.61674","1382059.50131","1382826.70286","1383593.1797","1384359.83618","1385126.45555","1385893.51147","1386660.36087","1387410.01282","1391254.35184","Mapping"
"Blocked","Female","ball","2","F_cave.wav","space","503.04210966","130","1381310.58581","1388176.54439","1388943.12666","1389709.92721","1390476.86689","1391243.47389","1391992.95209","1392759.77861","1382059.50131","1382826.70286","1383593.1797","1384359.83618","1385126.45555","1385893.51147","1386660.36087","1387410.01282","1392002.91179","Mapping"
"Blocked","Female","cave","12","F_ball.wav","None","731.364971842","130","1395893.48921","1388176.54439","1388943.12666","1389709.92721","1390476.86689","1391243.47389","1391992.95209","1392759.77861","1382059.50131","1382826.70286","1383593.1797","1384359.83618","1385126.45555","1385893.51147","1386660.36087","1387410.01282","1392769.56703","Mapping"
"Blocked","Female","cave","12","F_cave.wav","None","718.904364388","130","1395893.48921","1388176.54439","1388943.12666","1389709.92721","1390476.86689","1391243.47389","1391992.95209","1392759.77861","1396642.866","1382826.70286","1383593.1797","1384359.83618","1385126.45555","1385893.51147","1386660.36087","1387410.01282","1395904.05026","Mapping"
"Blocked","Female","cave","12","F_reek.wav","None","734.942724113","130","1395893.48921","1388176.54439","1388943.12666","1389709.92721","1390476.86689","1391243.47389","1391992.95209","1392759.77861","1396642.866","1397409.85452","1383593.1797","1384359.83618","1385126.45555","1385893.51147","1386660.36087","1387410.01282","1396652.55765","Mapping"
"Blocked","Female","cave","12","F_ball.wav","None","732.710802811","130","1395893.48921","1388176.54439","1388943.12666","1389709.92721","1390476.86689","1391243.47389","1391992.95209","1392759.77861","1396642.866","1397409.85452","1398176.30973","1384359.83618","1385126.45555","1385893.51147","1386660.36087","1387410.01282","1397419.30286","Mapping"
"Blocked","Female","cave","12","F_cave.wav","None","730.758992489","130","1395893.48921","1388176.54439","1388943.12666","1389709.92721","1390476.86689","1391243.47389","1391992.95209","1392759.77861","1396642.866","1397409.85452","1398176.30973","1398942.95198","1385126.45555","1385893.51147","1386660.36087","1387410.01282","1398185.83659","Mapping"
"Blocked","Female","cave","12","F_cling.wav","None","728.379595443","130","1395893.48921","1388176.54439","1388943.12666","1389709.92721","1390476.86689","1391243.47389","1391992.95209","1392759.77861","1396642.866","1397409.85452","1398176.30973","1398942.95198","1399709.7247","1385893.51147","1386660.36087","1387410.01282","1398952.656","Mapping"
"Blocked","Female","cave","12","F_ball.wav","space","218.404276762","130","1395893.48921","1388176.54439","1388943.12666","1389709.92721","1390476.86689","1391243.47389","1391992.95209","1392759.77861","1396642.866","1397409.85452","1398176.30973","1398942.95198","1399709.7247","1400476.56977","1386660.36087","1387410.01282","1399719.4009","Mapping"
"Blocked","Female","cave","12","F_done.wav","None","722.009390825","130","1395893.48921","1388176.54439","1388943.12666","1389709.92721","1390476.86689","1391243.47389","1391992.95209","1392759.77861","1396642.866","1397409.85452","1398176.30973","1398942.95198","1399709.7247","1400476.56977","1401243.61086","1387410.01282","1400486.71684","Mapping"
"Blocked","Female","cave","12","F_cad.wav","None","719.056477654","130","1395893.48921","1388176.54439","1388943.12666","1389709.92721","1390476.86689","1391243.47389","1391992.95209","1392759.77861","1396642.866","1397409.85452","1398176.30973","1398942.95198","1399709.7247","1400476.56977","1401243.61086","1401992.43793","1401254.18304","Mapping"
"Blocked","Female","cave","12","F_depth.wav","None","735.954338801","130","1395893.48921","1402759.59743","1388943.12666","1389709.92721","1390476.86689","1391243.47389","1391992.95209","1392759.77861","1396642.866","1397409.85452","1398176.30973","1398942.95198","1399709.7247","1400476.56977","1401243.61086","1401992.43793","1402001.8739","Mapping"
"Blocked","Female","cave","12","F_depth.wav","None","732.5753849","130","1395893.48921","1402759.59743","1403526.29441","1389709.92721","1390476.86689","1391243.47389","1391992.95209","1392759.77861","1396642.866","1397409.85452","1398176.30973","1398942.95198","1399709.7247","1400476.56977","1401243.61086","1401992.43793","1402769.83601","Mapping"
"Blocked","Female","cave","12","F_cave.wav","None","730.282556498","130","1395893.48921","1402759.59743","1403526.29441","1404292.90976","1390476.86689","1391243.47389","1391992.95209","1392759.77861","1396642.866","1397409.85452","1398176.30973","1398942.95198","1399709.7247","1400476.56977","1401243.61086","1401992.43793","1403536.69561","Mapping"
"Blocked","Female","cave","12","F_romp.wav","space","584.425152629","130","1395893.48921","1402759.59743","1403526.29441","1404292.90976","1405059.47503","1391243.47389","1391992.95209","1392759.77861","1396642.866","1397409.85452","1398176.30973","1398942.95198","1399709.7247","1400476.56977","1401243.61086","1401992.43793","1404297.31795","Mapping"
"Blocked","Female","cave","12","F_cave.wav","None","725.474913255","130","1395893.48921","1402759.59743","1403526.29441","1404292.90976","1405059.47503","1405826.492","1391992.95209","1392759.77861","1396642.866","1397409.85452","1398176.30973","1398942.95198","1399709.7247","1400476.56977","1401243.61086","1401992.43793","1405069.26376","Mapping"
"Blocked","Female","cave","12","F_bluff.wav","space","604.818216991","130","1395893.48921","1402759.59743","1403526.29441","1404292.90976","1405059.47503","1405826.492","1406593.21989","1392759.77861","1396642.866","1397409.85452","1398176.30973","1398942.95198","1399709.7247","1400476.56977","1401243.61086","1401992.43793","1405836.93062","Mapping"
"Blocked","Female","cave","12","F_knife.wav","None","718.653624877","130","1395893.48921","1402759.59743","1403526.29441","1404292.90976","1405059.47503","1405826.492","1406593.21989","1407342.52","1396642.866","1397409.85452","1398176.30973","1398942.95198","1399709.7247","1400476.56977","1401243.61086","1401992.43793","1406603.65882","Mapping"
"Blocked","Female","cave","11","F_cad.wav","None","734.892019769","130","1410476.24885","1402759.59743","1403526.29441","1404292.90976","1405059.47503","1405826.492","1406593.21989","1407342.52","1396642.866","1397409.85452","1398176.30973","1398942.95198","1399709.7247","1400476.56977","1401243.61086","1401992.43793","1407352.05027","Mapping"
"Blocked","Female","cave","11","F_lash.wav","None","719.062351855","130","1410476.24885","1402759.59743","1403526.29441","1404292.90976","1405059.47503","1405826.492","1406593.21989","1407342.52","1411225.88472","1397409.85452","1398176.30973","1398942.95198","1399709.7247","1400476.56977","1401243.61086","1401992.43793","1410486.56627","Mapping"
"Blocked","Female","cave","11","F_tile.wav","None","734.628294944","130","1410476.24885","1402759.59743","1403526.29441","1404292.90976","1405059.47503","1405826.492","1406593.21989","1407342.52","1411225.88472","1411992.56098","1398176.30973","1398942.95198","1399709.7247","1400476.56977","1401243.61086","1401992.43793","1411235.54422","Mapping"
"Blocked","Female","cave","11","F_tile.wav","None","732.810047455","130","1410476.24885","1402759.59743","1403526.29441","1404292.90976","1405059.47503","1405826.492","1406593.21989","1407342.52","1411225.88472","1411992.56098","1412759.38163","1398942.95198","1399709.7247","1400476.56977","1401243.61086","1401992.43793","1412001.98149","Mapping"
"Blocked","Female","cave","11","F_cave.wav","None","729.768092278","130","1410476.24885","1402759.59743","1403526.29441","1404292.90976","1405059.47503","1405826.492","1406593.21989","1407342.52","1411225.88472","1411992.56098","1412759.38163","1413526.12343","1399709.7247","1400476.56977","1401243.61086","1401992.43793","1412769.57723","Mapping"
"Blocked","Female","cave","11","F_knife.wav","space","385.930393357","130","1410476.24885","1402759.59743","1403526.29441","1404292.90976","1405059.47503","1405826.492","1406593.21989","1407342.52","1411225.88472","1411992.56098","1412759.38163","1413526.12343","1414292.64109","1400476.56977","1401243.61086","1401992.43793","1413535.66143","Mapping"
"Blocked","Female","cave","11","F_depth.wav","None","724.259244278","130","1410476.24885","1402759.59743","1403526.29441","1404292.90976","1405059.47503","1405826.492","1406593.21989","1407342.52","1411225.88472","1411992.56098","1412759.38163","1413526.12343","1414292.64109","1415059.86768","1401243.61086","1401992.43793","1414302.5943","Mapping"
"Blocked","Female","cave","11","F_reek.wav","None","720.73590639","130","1410476.24885","1402759.59743","1403526.29441","1404292.90976","1405059.47503","1405826.492","1406593.21989","1407342.52","1411225.88472","1411992.56098","1412759.38163","1413526.12343","1414292.64109","1415059.86768","1415826.27712","1401992.43793","1415070.60619","Mapping"
"Blocked","Female","cave","11","F_jolt.wav","None","718.747922685","130","1410476.24885","1402759.59743","1403526.29441","1404292.90976","1405059.47503","1405826.492","1406593.21989","1407342.52","1411225.88472","1411992.56098","1412759.38163","1413526.12343","1414292.64109","1415059.86768","1415826.27712","1416575.62918","1415837.27534","Mapping"
"Blocked","Female","cave","11","F_cave.wav","None","733.706031344","130","1410476.24885","1417342.5908","1403526.29441","1404292.90976","1405059.47503","1405826.492","1406593.21989","1407342.52","1411225.88472","1411992.56098","1412759.38163","1413526.12343","1414292.64109","1415059.86768","1415826.27712","1416575.62918","1416586.95975","Mapping"
"Blocked","Female","cave","11","F_tile.wav","space","417.049912619","130","1410476.24885","1417342.5908","1418109.2952","1404292.90976","1405059.47503","1405826.492","1406593.21989","1407342.52","1411225.88472","1411992.56098","1412759.38163","1413526.12343","1414292.64109","1415059.86768","1415826.27712","1416575.62918","1417352.47322","Mapping"
"Blocked","Female","cave","11","F_cave.wav","None","729.143253178","130","1410476.24885","1417342.5908","1418109.2952","1418875.83171","1405059.47503","1405826.492","1406593.21989","1407342.52","1411225.88472","1411992.56098","1412759.38163","1413526.12343","1414292.64109","1415059.86768","1415826.27712","1416575.62918","1418118.90214","Mapping"
"Blocked","Female","cave","11","F_done.wav","space","378.095944412","130","1410476.24885","1417342.5908","1418109.2952","1418875.83171","1419642.92474","1405826.492","1406593.21989","1407342.52","1411225.88472","1411992.56098","1412759.38163","1413526.12343","1414292.64109","1415059.86768","1415826.27712","1416575.62918","1418895.40578","Mapping"
