"Condition","Talker","Target","Trial","current_stimulus","response_response","response_time_response","subject_nr","time_Audio1","time_Audio10","time_Audio11","time_Audio12","time_Audio13","time_Audio14","time_Audio15","time_Audio16","time_Audio2","time_Audio3","time_Audio4","time_Audio5","time_Audio6","time_Audio7","time_Audio8","time_Audio9","time_response"
"Blocked","Male","tile","14","M_dime.wav","NA","NA","405","157066.570039","NA","NA","NA","NA","NA","NA","NA","NA","NA","NA","NA","NA","NA","NA","NA","NA"
"Blocked","Male","tile","14","M_tile.wav","None","739.716780437","405","157066.570039","NA","NA","NA","NA","NA","NA","NA","157833.154982","NA","NA","NA","NA","NA","NA","NA","157073.937488"
"Blocked","Male","tile","14","M_depth.wav","space","697.264529175","405","157066.570039","NA","NA","NA","NA","NA","NA","NA","157833.154982","158599.847169","NA","NA","NA","NA","NA","NA","157838.364387"
"Blocked","Male","tile","14","M_tile.wav","None","736.939229942","405","157066.570039","NA","NA","NA","NA","NA","NA","NA","157833.154982","158599.847169","159366.448184","NA","NA","NA","NA","NA","158605.043132"
"Blocked","Male","tile","14","M_cling.wav","None","738.46783243","405","157066.570039","NA","NA","NA","NA","NA","NA","NA","157833.154982","158599.847169","159366.448184","160133.087479","NA","NA","NA","NA","159368.12874"
"Blocked","Male","tile","14","M_knife.wav","space","4.88708621651","405","157066.570039","NA","NA","NA","NA","NA","NA","NA","157833.154982","158599.847169","159366.448184","160133.087479","160899.753951","NA","NA","NA","160138.601669"
"Blocked","Male","tile","14","M_tile.wav","None","730.004558631","405","157066.570039","NA","NA","NA","NA","NA","NA","NA","157833.154982","158599.847169","159366.448184","160133.087479","160899.753951","161666.576176","NA","NA","160905.108297"
"Blocked","Male","tile","14","M_priest.wav","space","447.621037498","405","157066.570039","NA","NA","NA","NA","NA","NA","NA","157833.154982","158599.847169","159366.448184","160133.087479","160899.753951","161666.576176","162416.397922","NA","161671.747008"
"Blocked","Male","tile","14","M_knife.wav","None","741.695693847","405","157066.570039","NA","NA","NA","NA","NA","NA","NA","157833.154982","158599.847169","159366.448184","160133.087479","160899.753951","161666.576176","162416.397922","163183.013547","162421.799023"
"Blocked","Male","tile","14","M_dime.wav","None","739.653660931","405","157066.570039","163949.637355","NA","NA","NA","NA","NA","NA","157833.154982","158599.847169","159366.448184","160133.087479","160899.753951","161666.576176","162416.397922","163183.013547","163188.125935"
"Blocked","Male","tile","14","M_lash.wav","None","737.242554236","405","157066.570039","163949.637355","164716.309671","NA","NA","NA","NA","NA","157833.154982","158599.847169","159366.448184","160133.087479","160899.753951","161666.576176","162416.397922","163183.013547","163954.965986"
"Blocked","Male","tile","14","M_tile.wav","None","734.950673275","405","157066.570039","163949.637355","164716.309671","165482.957733","NA","NA","NA","NA","157833.154982","158599.847169","159366.448184","160133.087479","160899.753951","161666.576176","162416.397922","163183.013547","164721.513816"
"Blocked","Male","tile","14","M_dime.wav","space","423.191158593","405","157066.570039","163949.637355","164716.309671","165482.957733","166249.589723","NA","NA","NA","157833.154982","158599.847169","159366.448184","160133.087479","160899.753951","161666.576176","162416.397922","163183.013547","165487.989761"
"Blocked","Male","tile","14","M_reek.wav","None","730.241549","405","157066.570039","163949.637355","164716.309671","165482.957733","166249.589723","167016.598969","NA","NA","157833.154982","158599.847169","159366.448184","160133.087479","160899.753951","161666.576176","162416.397922","163183.013547","166254.862248"
"Blocked","Male","tile","14","M_cad.wav","None","727.590237516","405","157066.570039","163949.637355","164716.309671","165482.957733","166249.589723","167016.598969","167766.240415","NA","157833.154982","158599.847169","159366.448184","160133.087479","160899.753951","161666.576176","162416.397922","163183.013547","167022.100886"
"Blocked","Male","tile","14","M_gnash.wav","None","742.64745418","405","157066.570039","163949.637355","164716.309671","165482.957733","166249.589723","167016.598969","167766.240415","168532.965623","157833.154982","158599.847169","159366.448184","160133.087479","160899.753951","161666.576176","162416.397922","163183.013547","167771.364784"
"Blocked","Male","ball","3","M_park.wav","None","740.060723303","405","172799.456763","163949.637355","164716.309671","165482.957733","166249.589723","167016.598969","167766.240415","168532.965623","157833.154982","158599.847169","159366.448184","160133.087479","160899.753951","161666.576176","162416.397922","163183.013547","168538.171521"
"Blocked","Male","ball","3","M_ball.wav","None","741.928008697","405","172799.456763","163949.637355","164716.309671","165482.957733","166249.589723","167016.598969","167766.240415","168532.965623","173566.060992","158599.847169","159366.448184","160133.087479","160899.753951","161666.576176","162416.397922","163183.013547","172804.470673"
"Blocked","Male","ball","3","M_cling.wav","space","395.599752198","405","172799.456763","163949.637355","164716.309671","165482.957733","166249.589723","167016.598969","167766.240415","168532.965623","173566.060992","174332.68217","159366.448184","160133.087479","160899.753951","161666.576176","162416.397922","163183.013547","173571.120196"
"Blocked","Male","ball","3","M_ball.wav","None","737.001765009","405","172799.456763","163949.637355","164716.309671","165482.957733","166249.589723","167016.598969","167766.240415","168532.965623","173566.060992","174332.68217","175099.355071","160133.087479","160899.753951","161666.576176","162416.397922","163183.013547","174337.81589"
"Blocked","Male","ball","3","M_greet.wav","space","525.850652235","405","172799.456763","163949.637355","164716.309671","165482.957733","166249.589723","167016.598969","167766.240415","168532.965623","173566.060992","174332.68217","175099.355071","175865.930954","160899.753951","161666.576176","162416.397922","163183.013547","175104.736885"
"Blocked","Male","ball","3","M_greet.wav","None","732.496902469","405","172799.456763","163949.637355","164716.309671","165482.957733","166249.589723","167016.598969","167766.240415","168532.965623","173566.060992","174332.68217","175099.355071","175865.930954","176632.64535","161666.576176","162416.397922","163183.013547","175871.044219"
"Blocked","Male","ball","3","M_jolt.wav","None","730.439674116","405","172799.456763","163949.637355","164716.309671","165482.957733","166249.589723","167016.598969","167766.240415","168532.965623","173566.060992","174332.68217","175099.355071","175865.930954","176632.64535","177399.573943","162416.397922","163183.013547","176637.520455"
"Blocked","Male","ball","3","M_park.wav","None","727.195448382","405","172799.456763","163949.637355","164716.309671","165482.957733","166249.589723","167016.598969","167766.240415","168532.965623","173566.060992","174332.68217","175099.355071","175865.930954","176632.64535","177399.573943","178149.348057","163183.013547","177405.205022"
"Blocked","Male","ball","3","M_ball.wav","None","742.37189078","405","172799.456763","163949.637355","164716.309671","165482.957733","166249.589723","167016.598969","167766.240415","168532.965623","173566.060992","174332.68217","175099.355071","175865.930954","176632.64535","177399.573943","178149.348057","178915.929493","178154.392358"
"Blocked","Male","ball","3","M_priest.wav","space","421.050939779","405","172799.456763","179682.526417","164716.309671","165482.957733","166249.589723","167016.598969","167766.240415","168532.965623","173566.060992","174332.68217","175099.355071","175865.930954","176632.64535","177399.573943","178149.348057","178915.929493","178921.321243"
"Blocked","Male","ball","3","M_dime.wav","None","737.371423228","405","172799.456763","179682.526417","180449.175355","165482.957733","166249.589723","167016.598969","167766.240415","168532.965623","173566.060992","174332.68217","175099.355071","175865.930954","176632.64535","177399.573943","178149.348057","178915.929493","179687.768842"
"Blocked","Male","ball","3","M_romp.wav","None","735.005902843","405","172799.456763","179682.526417","180449.175355","181215.907869","166249.589723","167016.598969","167766.240415","168532.965623","173566.060992","174332.68217","175099.355071","175865.930954","176632.64535","177399.573943","178149.348057","178915.929493","180454.357584"
"Blocked","Male","ball","3","M_park.wav","None","732.649441275","405","172799.456763","179682.526417","180449.175355","181215.907869","181982.469142","167016.598969","167766.240415","168532.965623","173566.060992","174332.68217","175099.355071","175865.930954","176632.64535","177399.573943","178149.348057","178915.929493","181221.029316"
"Blocked","Male","ball","3","M_cad.wav","None","730.269602113","405","172799.456763","179682.526417","180449.175355","181215.907869","181982.469142","182749.484232","167766.240415","168532.965623","173566.060992","174332.68217","175099.355071","175865.930954","176632.64535","177399.573943","178149.348057","178915.929493","181987.856216"
"Blocked","Male","ball","3","M_ball.wav","None","727.793622592","405","172799.456763","179682.526417","180449.175355","181215.907869","181982.469142","182749.484232","183499.134737","168532.965623","173566.060992","174332.68217","175099.355071","175865.930954","176632.64535","177399.573943","178149.348057","178915.929493","182754.905204"
"Blocked","Male","ball","3","M_dime.wav","space","421.82882925","405","172799.456763","179682.526417","180449.175355","181215.907869","181982.469142","182749.484232","183499.134737","184265.7527","173566.060992","174332.68217","175099.355071","175865.930954","176632.64535","177399.573943","178149.348057","178915.929493","183504.276054"
"Blocked","Male","tile","13","M_jolt.wav","None","740.381580793","405","187365.655975","179682.526417","180449.175355","181215.907869","181982.469142","182749.484232","183499.134737","184265.7527","173566.060992","174332.68217","175099.355071","175865.930954","176632.64535","177399.573943","178149.348057","178915.929493","184270.904245"
"Blocked","Male","tile","13","M_tile.wav","None","745.527573873","405","187365.655975","179682.526417","180449.175355","181215.907869","181982.469142","182749.484232","183499.134737","184265.7527","188132.302576","174332.68217","175099.355071","175865.930954","176632.64535","177399.573943","178149.348057","178915.929493","187367.256172"
"Blocked","Male","tile","13","M_dime.wav","space","628.338028334","405","187365.655975","179682.526417","180449.175355","181215.907869","181982.469142","182749.484232","183499.134737","184265.7527","188132.302576","188898.990672","175099.355071","175865.930954","176632.64535","177399.573943","178149.348057","178915.929493","188137.47896"
"Blocked","Male","tile","13","M_gnash.wav","None","736.623047971","405","187365.655975","179682.526417","180449.175355","181215.907869","181982.469142","182749.484232","183499.134737","184265.7527","188132.302576","188898.990672","189665.603084","175865.930954","176632.64535","177399.573943","178149.348057","178915.929493","188904.401417"
"Blocked","Male","tile","13","M_tile.wav","None","735.040092575","405","187365.655975","179682.526417","180449.175355","181215.907869","181982.469142","182749.484232","183499.134737","184265.7527","188132.302576","188898.990672","189665.603084","190432.325954","176632.64535","177399.573943","178149.348057","178915.929493","189670.518515"
"Blocked","Male","tile","13","M_park.wav","space","584.253436507","405","187365.655975","179682.526417","180449.175355","181215.907869","181982.469142","182749.484232","183499.134737","184265.7527","188132.302576","188898.990672","189665.603084","190432.325954","191198.909727","177399.573943","178149.348057","178915.929493","190437.431621"
"Blocked","Male","tile","13","M_romp.wav","None","730.383567889","405","187365.655975","179682.526417","180449.175355","181215.907869","181982.469142","182749.484232","183499.134737","184265.7527","188132.302576","188898.990672","189665.603084","190432.325954","191198.909727","191965.869588","178149.348057","178915.929493","191204.021823"
"Blocked","Male","tile","13","M_lash.wav","None","727.454355246","405","187365.655975","179682.526417","180449.175355","181215.907869","181982.469142","182749.484232","183499.134737","184265.7527","188132.302576","188898.990672","189665.603084","190432.325954","191198.909727","191965.869588","192715.563049","178915.929493","191971.40511"
"Blocked","Male","tile","13","M_cad.wav","None","742.484103236","405","187365.655975","179682.526417","180449.175355","181215.907869","181982.469142","182749.484232","183499.134737","184265.7527","188132.302576","188898.990672","189665.603084","190432.325954","191198.909727","191965.869588","192715.563049","193482.190948","192720.74031"
"Blocked","Male","tile","13","M_knife.wav","None","740.543470638","405","187365.655975","194248.801022","180449.175355","181215.907869","181982.469142","182749.484232","183499.134737","184265.7527","188132.302576","188898.990672","189665.603084","190432.325954","191198.909727","191965.869588","192715.563049","193482.190948","193487.234664"
"Blocked","Male","tile","13","M_reek.wav","None","738.547900692","405","187365.655975","194248.801022","195015.447038","181215.907869","181982.469142","182749.484232","183499.134737","184265.7527","188132.302576","188898.990672","189665.603084","190432.325954","191198.909727","191965.869588","192715.563049","193482.190948","194253.862855"
"Blocked","Male","tile","13","M_tile.wav","None","736.48921124","405","187365.655975","194248.801022","195015.447038","195782.120231","181982.469142","182749.484232","183499.134737","184265.7527","188132.302576","188898.990672","189665.603084","190432.325954","191198.909727","191965.869588","192715.563049","193482.190948","195020.59157"
"Blocked","Male","tile","13","M_depth.wav","space","386.068122311","405","187365.655975","194248.801022","195015.447038","195782.120231","196548.775891","182749.484232","183499.134737","184265.7527","188132.302576","188898.990672","189665.603084","190432.325954","191198.909727","191965.869588","192715.563049","193482.190948","195787.312395"
"Blocked","Male","tile","13","M_tile.wav","None","731.877688424","405","187365.655975","194248.801022","195015.447038","195782.120231","196548.775891","197315.423076","183499.134737","184265.7527","188132.302576","188898.990672","189665.603084","190432.325954","191198.909727","191965.869588","192715.563049","193482.190948","196553.930358"
"Blocked","Male","tile","13","M_lash.wav","None","729.893222835","405","187365.655975","194248.801022","195015.447038","195782.120231","196548.775891","197315.423076","198082.390242","184265.7527","188132.302576","188898.990672","189665.603084","190432.325954","191198.909727","191965.869588","192715.563049","193482.190948","197320.457733"
"Blocked","Male","tile","13","M_bluff.wav","space","125.289297737","405","187365.655975","194248.801022","195015.447038","195782.120231","196548.775891","197315.423076","198082.390242","198832.028766","188132.302576","188898.990672","189665.603084","190432.325954","191198.909727","191965.869588","192715.563049","193482.190948","198087.965506"
"Blocked","Male","done","20","M_jolt.wav","None","742.223150832","405","201948.60202","194248.801022","195015.447038","195782.120231","196548.775891","197315.423076","198082.390242","198832.028766","188132.302576","188898.990672","189665.603084","190432.325954","191198.909727","191965.869588","192715.563049","193482.190948","198837.000304"
"Blocked","Male","done","20","M_dime.wav","None","745.72628343","405","201948.60202","194248.801022","195015.447038","195782.120231","196548.775891","197315.423076","198082.390242","198832.028766","202715.288947","188898.990672","189665.603084","190432.325954","191198.909727","191965.869588","192715.563049","193482.190948","201950.272641"
"Blocked","Male","done","20","M_bluff.wav","None","739.641095474","405","201948.60202","194248.801022","195015.447038","195782.120231","196548.775891","197315.423076","198082.390242","198832.028766","202715.288947","203481.917723","189665.603084","190432.325954","191198.909727","191965.869588","192715.563049","193482.190948","202720.661118"
"Blocked","Male","done","20","M_jaw.wav","None","736.967283056","405","201948.60202","194248.801022","195015.447038","195782.120231","196548.775891","197315.423076","198082.390242","198832.028766","202715.288947","203481.917723","204248.551758","190432.325954","191198.909727","191965.869588","192715.563049","193482.190948","203487.719749"
"Blocked","Male","done","20","M_done.wav","None","735.542710866","405","201948.60202","194248.801022","195015.447038","195782.120231","196548.775891","197315.423076","198082.390242","198832.028766","202715.288947","203481.917723","204248.551758","205015.169721","191198.909727","191965.869588","192715.563049","193482.190948","204253.661516"
"Blocked","Male","done","20","M_gnash.wav","space","408.572856275","405","201948.60202","194248.801022","195015.447038","195782.120231","196548.775891","197315.423076","198082.390242","198832.028766","202715.288947","203481.917723","204248.551758","205015.169721","205781.865415","191965.869588","192715.563049","193482.190948","205020.221912"
"Blocked","Male","done","20","M_dime.wav","None","731.210842529","405","201948.60202","194248.801022","195015.447038","195782.120231","196548.775891","197315.423076","198082.390242","198832.028766","202715.288947","203481.917723","204248.551758","205015.169721","205781.865415","206548.470813","192715.563049","193482.190948","205786.763314"
"Blocked","Male","done","20","M_priest.wav","None","728.788923695","405","201948.60202","194248.801022","195015.447038","195782.120231","196548.775891","197315.423076","198082.390242","198832.028766","202715.288947","203481.917723","204248.551758","205015.169721","205781.865415","206548.470813","207298.530134","193482.190948","206553.681095"
"Blocked","Male","done","20","M_priest.wav","None","743.33650879","405","201948.60202","194248.801022","195015.447038","195782.120231","196548.775891","197315.423076","198082.390242","198832.028766","202715.288947","203481.917723","204248.551758","205015.169721","205781.865415","206548.470813","207298.530134","208065.122966","207303.5344"
"Blocked","Male","done","20","M_reek.wav","None","741.103071816","405","201948.60202","208831.759924","195015.447038","195782.120231","196548.775891","197315.423076","198082.390242","198832.028766","202715.288947","203481.917723","204248.551758","205015.169721","205781.865415","206548.470813","207298.530134","208065.122966","208070.316299"
"Blocked","Male","done","20","M_done.wav","None","738.962268562","405","201948.60202","208831.759924","209598.462046","195782.120231","196548.775891","197315.423076","198082.390242","198832.028766","202715.288947","203481.917723","204248.551758","205015.169721","205781.865415","206548.470813","207298.530134","208065.122966","208836.84046"
"Blocked","Male","done","20","M_priest.wav","space","473.055860763","405","201948.60202","208831.759924","209598.462046","210365.041437","196548.775891","197315.423076","198082.390242","198832.028766","202715.288947","203481.917723","204248.551758","205015.169721","205781.865415","206548.470813","207298.530134","208065.122966","209603.483262"
"Blocked","Male","done","20","M_done.wav","None","734.026673836","405","201948.60202","208831.759924","209598.462046","210365.041437","211131.668751","197315.423076","198082.390242","198832.028766","202715.288947","203481.917723","204248.551758","205015.169721","205781.865415","206548.470813","207298.530134","208065.122966","210370.371821"
"Blocked","Male","done","20","M_jaw.wav","None","732.008895175","405","201948.60202","208831.759924","209598.462046","210365.041437","211131.668751","211898.324995","198082.390242","198832.028766","202715.288947","203481.917723","204248.551758","205015.169721","205781.865415","206548.470813","207298.530134","208065.122966","211136.796627"
"Blocked","Male","done","20","M_done.wav","space","0.0213320554467","405","201948.60202","208831.759924","209598.462046","210365.041437","211131.668751","211898.324995","212665.293915","198832.028766","202715.288947","203481.917723","204248.551758","205015.169721","205781.865415","206548.470813","207298.530134","208065.122966","211903.443812"
"Blocked","Male","done","20","M_cling.wav","space","565.184624556","405","201948.60202","208831.759924","209598.462046","210365.041437","211131.668751","211898.324995","212665.293915","213414.980071","202715.288947","203481.917723","204248.551758","205015.169721","205781.865415","206548.470813","207298.530134","208065.122966","212671.114644"
"Blocked","Male","cave","10","M_jolt.wav","None","741.599845708","405","216514.880716","208831.759924","209598.462046","210365.041437","211131.668751","211898.324995","212665.293915","213414.980071","202715.288947","203481.917723","204248.551758","205015.169721","205781.865415","206548.470813","207298.530134","208065.122966","213420.03869"
"Blocked","Male","cave","10","M_lash.wav","None","742.045481111","405","216514.880716","208831.759924","209598.462046","210365.041437","211131.668751","211898.324995","212665.293915","213414.980071","217281.50014","203481.917723","204248.551758","205015.169721","205781.865415","206548.470813","207298.530134","208065.122966","216519.943426"
"Blocked","Male","cave","10","M_cling.wav","None","739.864643726","405","216514.880716","208831.759924","209598.462046","210365.041437","211131.668751","211898.324995","212665.293915","213414.980071","217281.50014","218048.144403","204248.551758","205015.169721","205781.865415","206548.470813","207298.530134","208065.122966","217286.59441"
"Blocked","Male","cave","10","M_reek.wav","None","737.813259772","405","216514.880716","208831.759924","209598.462046","210365.041437","211131.668751","211898.324995","212665.293915","213414.980071","217281.50014","218048.144403","218814.907892","205015.169721","205781.865415","206548.470813","207298.530134","208065.122966","218053.278415"
"Blocked","Male","cave","10","M_cave.wav","None","735.493617916","405","216514.880716","208831.759924","209598.462046","210365.041437","211131.668751","211898.324995","212665.293915","213414.980071","217281.50014","218048.144403","218814.907892","219581.464782","205781.865415","206548.470813","207298.530134","208065.122966","218820.037521"
"Blocked","Male","cave","10","M_jolt.wav","space","409.443087245","405","216514.880716","208831.759924","209598.462046","210365.041437","211131.668751","211898.324995","212665.293915","213414.980071","217281.50014","218048.144403","218814.907892","219581.464782","220348.10583","206548.470813","207298.530134","208065.122966","219586.508206"
"Blocked","Male","cave","10","M_cave.wav","None","730.849366468","405","216514.880716","208831.759924","209598.462046","210365.041437","211131.668751","211898.324995","212665.293915","213414.980071","217281.50014","218048.144403","218814.907892","219581.464782","220348.10583","221115.069198","207298.530134","208065.122966","220353.255915"
"Blocked","Male","cave","10","M_dime.wav","None","728.048438376","405","216514.880716","208831.759924","209598.462046","210365.041437","211131.668751","211898.324995","212665.293915","213414.980071","217281.50014","218048.144403","218814.907892","219581.464782","220348.10583","221115.069198","221864.76938","208065.122966","221120.603551"
"Blocked","Male","cave","10","M_romp.wav","space","61.8845848139","405","216514.880716","208831.759924","209598.462046","210365.041437","211131.668751","211898.324995","212665.293915","213414.980071","217281.50014","218048.144403","218814.907892","219581.464782","220348.10583","221115.069198","221864.76938","222631.380622","221869.902515"
"Blocked","Male","cave","10","M_cave.wav","None","740.397652889","405","216514.880716","223398.028392","209598.462046","210365.041437","211131.668751","211898.324995","212665.293915","213414.980071","217281.50014","218048.144403","218814.907892","219581.464782","220348.10583","221115.069198","221864.76938","222631.380622","222636.750748"
"Blocked","Male","cave","10","M_romp.wav","space","400.653988218","405","216514.880716","223398.028392","224164.708014","210365.041437","211131.668751","211898.324995","212665.293915","213414.980071","217281.50014","218048.144403","218814.907892","219581.464782","220348.10583","221115.069198","221864.76938","222631.380622","223403.008404"
"Blocked","Male","cave","10","M_greet.wav","None","735.329974753","405","216514.880716","223398.028392","224164.708014","224931.319548","211131.668751","211898.324995","212665.293915","213414.980071","217281.50014","218048.144403","218814.907892","219581.464782","220348.10583","221115.069198","221864.76938","222631.380622","224170.463578"
"Blocked","Male","cave","10","M_jaw.wav","None","734.030764915","405","216514.880716","223398.028392","224164.708014","224931.319548","225697.975793","211898.324995","212665.293915","213414.980071","217281.50014","218048.144403","218814.907892","219581.464782","220348.10583","221115.069198","221864.76938","222631.380622","224936.354206"
"Blocked","Male","cave","10","M_jaw.wav","None","731.648587993","405","216514.880716","223398.028392","224164.708014","224931.319548","225697.975793","226464.634959","212665.293915","213414.980071","217281.50014","218048.144403","218814.907892","219581.464782","220348.10583","221115.069198","221864.76938","222631.380622","225703.293319"
"Blocked","Male","cave","10","M_cave.wav","None","729.681655601","405","216514.880716","223398.028392","224164.708014","224931.319548","225697.975793","226464.634959","227231.757294","213414.980071","217281.50014","218048.144403","218814.907892","219581.464782","220348.10583","221115.069198","221864.76938","222631.380622","226469.886151"
"Blocked","Male","cave","10","M_jolt.wav","space","550.243126987","405","216514.880716","223398.028392","224164.708014","224931.319548","225697.975793","226464.634959","227231.757294","227981.258474","217281.50014","218048.144403","218814.907892","219581.464782","220348.10583","221115.069198","221864.76938","222631.380622","227237.216839"
"Blocked","Male","cave","9","M_bluff.wav","None","741.419838228","405","231097.814487","223398.028392","224164.708014","224931.319548","225697.975793","226464.634959","227231.757294","227981.258474","217281.50014","218048.144403","218814.907892","219581.464782","220348.10583","221115.069198","221864.76938","222631.380622","227986.242578"
"Blocked","Male","cave","9","M_cave.wav","None","741.874240228","405","231097.814487","223398.028392","224164.708014","224931.319548","225697.975793","226464.634959","227231.757294","227981.258474","231864.473653","218048.144403","218814.907892","219581.464782","220348.10583","221115.069198","221864.76938","222631.380622","231102.975383"
"Blocked","Male","cave","9","M_bluff.wav","space","717.574106976","405","231097.814487","223398.028392","224164.708014","224931.319548","225697.975793","226464.634959","227231.757294","227981.258474","231864.473653","232631.099799","218814.907892","219581.464782","220348.10583","221115.069198","221864.76938","222631.380622","231869.616432"
"Blocked","Male","cave","9","M_park.wav","None","737.046766879","405","231097.814487","223398.028392","224164.708014","224931.319548","225697.975793","226464.634959","227231.757294","227981.258474","231864.473653","232631.099799","233397.779713","219581.464782","220348.10583","221115.069198","221864.76938","222631.380622","232636.285826"
"Blocked","Male","cave","9","M_cave.wav","None","735.362995605","405","231097.814487","223398.028392","224164.708014","224931.319548","225697.975793","226464.634959","227231.757294","227981.258474","231864.473653","232631.099799","233397.779713","234164.366701","220348.10583","221115.069198","221864.76938","222631.380622","233402.838624"
"Blocked","Male","cave","9","M_dime.wav","space","673.608740884","405","231097.814487","223398.028392","224164.708014","224931.319548","225697.975793","226464.634959","227231.757294","227981.258474","231864.473653","232631.099799","233397.779713","234164.366701","234931.013886","221115.069198","221864.76938","222631.380622","234169.441977"
"Blocked","Male","cave","9","M_dime.wav","None","730.622603797","405","231097.814487","223398.028392","224164.708014","224931.319548","225697.975793","226464.634959","227231.757294","227981.258474","231864.473653","232631.099799","233397.779713","234164.366701","234931.013886","235697.95709","221864.76938","222631.380622","234936.215986"
"Blocked","Male","cave","9","M_greet.wav","None","727.872814195","405","231097.814487","223398.028392","224164.708014","224931.319548","225697.975793","226464.634959","227231.757294","227981.258474","231864.473653","232631.099799","233397.779713","234164.366701","234931.013886","235697.95709","236447.640032","222631.380622","235703.596935"
"Blocked","Male","cave","9","M_park.wav","None","743.281863662","405","231097.814487","223398.028392","224164.708014","224931.319548","225697.975793","226464.634959","227231.757294","227981.258474","231864.473653","232631.099799","233397.779713","234164.366701","234931.013886","235697.95709","236447.640032","237214.315855","236452.805604"
"Blocked","Male","cave","9","M_gnash.wav","None","741.160639143","405","231097.814487","237980.962163","224164.708014","224931.319548","225697.975793","226464.634959","227231.757294","227981.258474","231864.473653","232631.099799","233397.779713","234164.366701","234931.013886","235697.95709","236447.640032","237214.315855","237219.408956"
"Blocked","Male","cave","9","M_cave.wav","None","738.982723958","405","231097.814487","237980.962163","238747.678897","224931.319548","225697.975793","226464.634959","227231.757294","227981.258474","231864.473653","232631.099799","233397.779713","234164.366701","234931.013886","235697.95709","236447.640032","237214.315855","237986.119261"
"Blocked","Male","cave","9","M_dime.wav","space","545.964442677","405","231097.814487","237980.962163","238747.678897","239514.239293","225697.975793","226464.634959","227231.757294","227981.258474","231864.473653","232631.099799","233397.779713","234164.366701","234931.013886","235697.95709","236447.640032","237214.315855","238752.783979"
"Blocked","Male","cave","9","M_cave.wav","None","734.363018983","405","231097.814487","237980.962163","238747.678897","239514.239293","240280.892615","226464.634959","227231.757294","227981.258474","231864.473653","232631.099799","233397.779713","234164.366701","234931.013886","235697.95709","236447.640032","237214.315855","239519.478797"
"Blocked","Male","cave","9","M_jaw.wav","space","644.663479521","405","231097.814487","237980.962163","238747.678897","239514.239293","240280.892615","241047.5661","227231.757294","227981.258474","231864.473653","232631.099799","233397.779713","234164.366701","234931.013886","235697.95709","236447.640032","237214.315855","240286.074843"
"Blocked","Male","cave","9","M_depth.wav","None","729.958680101","405","231097.814487","237980.962163","238747.678897","239514.239293","240280.892615","241047.5661","241814.587619","227981.258474","231864.473653","232631.099799","233397.779713","234164.366701","234931.013886","235697.95709","236447.640032","237214.315855","241052.583224"
"Blocked","Male","cave","9","M_park.wav","None","726.638477184","405","231097.814487","237980.962163","238747.678897","239514.239293","240280.892615","241047.5661","241814.587619","242564.16916","231864.473653","232631.099799","233397.779713","234164.366701","234931.013886","235697.95709","236447.640032","237214.315855","241820.351073"
"Blocked","Male","done","21","M_knife.wav","None","742.838566019","405","245681.039602","237980.962163","238747.678897","239514.239293","240280.892615","241047.5661","241814.587619","242564.16916","231864.473653","232631.099799","233397.779713","234164.366701","234931.013886","235697.95709","236447.640032","237214.315855","242569.250865"
"Blocked","Male","done","21","M_park.wav","None","724.67651253","405","245681.039602","237980.962163","238747.678897","239514.239293","240280.892615","241047.5661","241814.587619","242564.16916","246430.703256","232631.099799","233397.779713","234164.366701","234931.013886","235697.95709","236447.640032","237214.315855","245686.543856"
"Blocked","Male","done","21","M_done.wav","None","739.599600242","405","245681.039602","237980.962163","238747.678897","239514.239293","240280.892615","241047.5661","241814.587619","242564.16916","246430.703256","247197.397197","233397.779713","234164.366701","234931.013886","235697.95709","236447.640032","237214.315855","246436.214817"
"Blocked","Male","done","21","M_cad.wav","space","567.183701141","405","245681.039602","237980.962163","238747.678897","239514.239293","240280.892615","241047.5661","241814.587619","242564.16916","246430.703256","247197.397197","247964.008732","234164.366701","234931.013886","235697.95709","236447.640032","237214.315855","247203.091687"
"Blocked","Male","done","21","M_lash.wav","None","735.579530578","405","245681.039602","237980.962163","238747.678897","239514.239293","240280.892615","241047.5661","241814.587619","242564.16916","246430.703256","247197.397197","247964.008732","248730.694782","234931.013886","235697.95709","236447.640032","237214.315855","247968.959814"
"Blocked","Male","done","21","M_knife.wav","None","733.331190388","405","245681.039602","237980.962163","238747.678897","239514.239293","240280.892615","241047.5661","241814.587619","242564.16916","246430.703256","247197.397197","247964.008732","248730.694782","249497.281478","235697.95709","236447.640032","237214.315855","248735.939838"
"Blocked","Male","done","21","M_dime.wav","None","731.676641107","405","245681.039602","237980.962163","238747.678897","239514.239293","240280.892615","241047.5661","241814.587619","242564.16916","246430.703256","247197.397197","247964.008732","248730.694782","249497.281478","250263.968697","236447.640032","237214.315855","249502.422503"
"Blocked","Male","done","21","M_done.wav","None","729.670259024","405","245681.039602","237980.962163","238747.678897","239514.239293","240280.892615","241047.5661","241814.587619","242564.16916","246430.703256","247197.397197","247964.008732","248730.694782","249497.281478","250263.968697","251030.988171","237214.315855","250269.165829"
"Blocked","Male","done","21","M_jaw.wav","space","725.488007294","405","245681.039602","237980.962163","238747.678897","239514.239293","240280.892615","241047.5661","241814.587619","242564.16916","246430.703256","247197.397197","247964.008732","248730.694782","249497.281478","250263.968697","251030.988171","251780.581985","251036.504114"
"Blocked","Male","done","21","M_dime.wav","None","741.785405367","405","245681.039602","252547.194689","238747.678897","239514.239293","240280.892615","241047.5661","241814.587619","242564.16916","246430.703256","247197.397197","247964.008732","248730.694782","249497.281478","250263.968697","251030.988171","251780.581985","251785.680931"
"Blocked","Male","done","21","M_knife.wav","None","740.323136805","405","245681.039602","252547.194689","253313.895642","239514.239293","240280.892615","241047.5661","241814.587619","242564.16916","246430.703256","247197.397197","247964.008732","248730.694782","249497.281478","250263.968697","251030.988171","251780.581985","252552.343604"
"Blocked","Male","done","21","M_reek.wav","None","738.352697775","405","245681.039602","252547.194689","253313.895642","254080.588414","240280.892615","241047.5661","241814.587619","242564.16916","246430.703256","247197.397197","247964.008732","248730.694782","249497.281478","250263.968697","251030.988171","251780.581985","253319.038421"
"Blocked","Male","done","21","M_done.wav","None","736.587981578","405","245681.039602","252547.194689","253313.895642","254080.588414","254847.135952","241047.5661","241814.587619","242564.16916","246430.703256","247197.397197","247964.008732","248730.694782","249497.281478","250263.968697","251030.988171","251780.581985","254085.656677"
"Blocked","Male","done","21","M_bluff.wav","space","461.5809683","405","245681.039602","252547.194689","253313.895642","254080.588414","254847.135952","255613.819373","241814.587619","242564.16916","246430.703256","247197.397197","247964.008732","248730.694782","249497.281478","250263.968697","251030.988171","251780.581985","254852.217073"
"Blocked","Male","done","21","M_done.wav","None","732.564405274","405","245681.039602","252547.194689","253313.895642","254080.588414","254847.135952","255613.819373","256380.438797","242564.16916","246430.703256","247197.397197","247964.008732","248730.694782","249497.281478","250263.968697","251030.988171","251780.581985","255619.177226"
"Blocked","Male","done","21","M_greet.wav","space","648.080407237","405","245681.039602","252547.194689","253313.895642","254080.588414","254847.135952","255613.819373","256380.438797","257147.108484","246430.703256","247197.397197","247964.008732","248730.694782","249497.281478","250263.968697","251030.988171","251780.581985","256385.627162"
"Blocked","Male","tile","16","M_lash.wav","None","729.051921639","405","260246.999778","252547.194689","253313.895642","254080.588414","254847.135952","255613.819373","256380.438797","257147.108484","246430.703256","247197.397197","247964.008732","248730.694782","249497.281478","250263.968697","251030.988171","251780.581985","257152.278731"
"Blocked","Male","tile","16","M_tile.wav","None","742.167629044","405","260246.999778","252547.194689","253313.895642","254080.588414","254847.135952","255613.819373","256380.438797","257147.108484","261013.65836","247197.397197","247964.008732","248730.694782","249497.281478","250263.968697","251030.988171","251780.581985","260252.261198"
"Blocked","Male","tile","16","M_romp.wav","None","740.459895735","405","260246.999778","252547.194689","253313.895642","254080.588414","254847.135952","255613.819373","256380.438797","257147.108484","261013.65836","261780.307591","247964.008732","248730.694782","249497.281478","250263.968697","251030.988171","251780.581985","261018.70792"
"Blocked","Male","tile","16","M_knife.wav","space","248.135929026","405","260246.999778","252547.194689","253313.895642","254080.588414","254847.135952","255613.819373","256380.438797","257147.108484","261013.65836","261780.307591","262546.944548","248730.694782","249497.281478","250263.968697","251030.988171","251780.581985","261785.284096"
"Blocked","Male","tile","16","M_jolt.wav","None","736.266831868","405","260246.999778","252547.194689","253313.895642","254080.588414","254847.135952","255613.819373","256380.438797","257147.108484","261013.65836","261780.307591","262546.944548","263313.553453","249497.281478","250263.968697","251030.988171","251780.581985","262552.174116"
"Blocked","Male","tile","16","M_tile.wav","None","734.552377501","405","260246.999778","252547.194689","253313.895642","254080.588414","254847.135952","255613.819373","256380.438797","257147.108484","261013.65836","261780.307591","262546.944548","263313.553453","264080.21408","250263.968697","251030.988171","251780.581985","263318.747078"
"Blocked","Male","tile","16","M_reek.wav","space","507.721911819","405","260246.999778","252547.194689","253313.895642","254080.588414","254847.135952","255613.819373","256380.438797","257147.108484","261013.65836","261780.307591","262546.944548","263313.553453","264080.21408","264846.886397","251030.988171","251780.581985","264085.549432"
"Blocked","Male","tile","16","M_jolt.wav","None","730.420387601","405","260246.999778","252547.194689","253313.895642","254080.588414","254847.135952","255613.819373","256380.438797","257147.108484","261013.65836","261780.307591","262546.944548","263313.553453","264080.21408","264846.886397","265613.966944","251780.581985","264852.007843"
"Blocked","Male","tile","16","M_lash.wav","None","727.724950907","405","260246.999778","252547.194689","253313.895642","254080.588414","254847.135952","255613.819373","256380.438797","257147.108484","261013.65836","261780.307591","262546.944548","263313.553453","264080.21408","264846.886397","265613.966944","266363.497347","265619.583703"
"Blocked","Male","tile","16","M_tile.wav","None","743.512132972","405","260246.999778","267130.146285","253313.895642","254080.588414","254847.135952","255613.819373","256380.438797","257147.108484","261013.65836","261780.307591","262546.944548","263313.553453","264080.21408","264846.886397","265613.966944","266363.497347","266368.683374"
"Blocked","Male","tile","16","M_reek.wav","space","473.832289133","405","260246.999778","267130.146285","267896.842564","254080.588414","254847.135952","255613.819373","256380.438797","257147.108484","261013.65836","261780.307591","262546.944548","263313.553453","264080.21408","264846.886397","265613.966944","266363.497347","267135.248153"
"Blocked","Male","tile","16","M_cad.wav","None","739.236663082","405","260246.999778","267130.146285","267896.842564","268663.439487","254847.135952","255613.819373","256380.438797","257147.108484","261013.65836","261780.307591","262546.944548","263313.553453","264080.21408","264846.886397","265613.966944","266363.497347","267902.015733"
"Blocked","Male","tile","16","M_tile.wav","None","737.575977183","405","260246.999778","267130.146285","267896.842564","268663.439487","269430.058035","255613.819373","256380.438797","257147.108484","261013.65836","261780.307591","262546.944548","263313.553453","264080.21408","264846.886397","265613.966944","266363.497347","268668.567947"
"Blocked","Male","tile","16","M_lash.wav","space","669.729229007","405","260246.999778","267130.146285","267896.842564","268663.439487","269430.058035","270196.728598","256380.438797","257147.108484","261013.65836","261780.307591","262546.944548","263313.553453","264080.21408","264846.886397","265613.966944","266363.497347","269435.215132"
"Blocked","Male","tile","16","M_lash.wav","None","733.41213531","405","260246.999778","267130.146285","267896.842564","268663.439487","269430.058035","270196.728598","270963.402375","257147.108484","261013.65836","261780.307591","262546.944548","263313.553453","264080.21408","264846.886397","265613.966944","266363.497347","270202.066872"
"Blocked","Male","tile","16","M_cad.wav","None","731.922690294","405","260246.999778","267130.146285","267896.842564","268663.439487","269430.058035","270196.728598","270963.402375","271730.005728","261013.65836","261780.307591","262546.944548","263313.553453","264080.21408","264846.886397","265613.966944","266363.497347","270968.572915"
"Blocked","Male","ball","4","M_knife.wav","None","730.574679727","405","274813.286072","267130.146285","267896.842564","268663.439487","269430.058035","270196.728598","270963.402375","271730.005728","261013.65836","261780.307591","262546.944548","263313.553453","264080.21408","264846.886397","265613.966944","266363.497347","271735.031034"
"Blocked","Male","ball","4","M_gnash.wav","None","742.109769497","405","274813.286072","267130.146285","267896.842564","268663.439487","269430.058035","270196.728598","270963.402375","271730.005728","275579.92186","261780.307591","262546.944548","263313.553453","264080.21408","264846.886397","265613.966944","266363.497347","274818.309332"
"Blocked","Male","ball","4","M_ball.wav","None","739.987668319","405","274813.286072","267130.146285","267896.842564","268663.439487","269430.058035","270196.728598","270963.402375","271730.005728","275579.92186","276346.542746","262546.944548","263313.553453","264080.21408","264846.886397","265613.966944","266363.497347","275585.19906"
"Blocked","Male","ball","4","M_greet.wav","space","456.634561436","405","274813.286072","267130.146285","267896.842564","268663.439487","269430.058035","270196.728598","270963.402375","271730.005728","275579.92186","276346.542746","277113.190223","263313.553453","264080.21408","264846.886397","265613.966944","266363.497347","276351.907612"
"Blocked","Male","ball","4","M_park.wav","None","736.262740789","405","274813.286072","267130.146285","267896.842564","268663.439487","269430.058035","270196.728598","270963.402375","271730.005728","275579.92186","276346.542746","277113.190223","277879.888547","264080.21408","264846.886397","265613.966944","266363.497347","277118.413655"
"Blocked","Male","ball","4","M_romp.wav","None","734.684168693","405","274813.286072","267130.146285","267896.842564","268663.439487","269430.058035","270196.728598","270963.402375","271730.005728","275579.92186","276346.542746","277113.190223","277879.888547","278646.474951","264846.886397","265613.966944","266363.497347","277885.030449"
"Blocked","Male","ball","4","M_lash.wav","None","733.147676267","405","274813.286072","267130.146285","267896.842564","268663.439487","269430.058035","270196.728598","270963.402375","271730.005728","275579.92186","276346.542746","277113.190223","277879.888547","278646.474951","279413.146975","265613.966944","266363.497347","278651.51516"
"Blocked","Male","ball","4","M_ball.wav","None","731.387051151","405","274813.286072","267130.146285","267896.842564","268663.439487","269430.058035","270196.728598","270963.402375","271730.005728","275579.92186","276346.542746","277113.190223","277879.888547","278646.474951","279413.146975","280179.809356","266363.497347","279418.318099"
"Blocked","Male","ball","4","M_jaw.wav","space","463.243699738","405","274813.286072","267130.146285","267896.842564","268663.439487","269430.058035","270196.728598","270963.402375","271730.005728","275579.92186","276346.542746","277113.190223","277879.888547","278646.474951","279413.146975","280179.809356","280946.744962","280185.068146"
"Blocked","Male","ball","4","M_gnash.wav","None","726.259760146","405","274813.286072","281696.440177","267896.842564","268663.439487","269430.058035","270196.728598","270963.402375","271730.005728","275579.92186","276346.542746","277113.190223","277879.888547","278646.474951","279413.146975","280179.809356","280946.744962","280952.374871"
"Blocked","Male","ball","4","M_priest.wav","None","742.14337479","405","274813.286072","281696.440177","282463.111032","268663.439487","269430.058035","270196.728598","270963.402375","271730.005728","275579.92186","276346.542746","277113.190223","277879.888547","278646.474951","279413.146975","280179.809356","280946.744962","281701.571851"
"Blocked","Male","ball","4","M_jolt.wav","None","740.679645129","405","274813.286072","281696.440177","282463.111032","283229.717599","269430.058035","270196.728598","270963.402375","271730.005728","275579.92186","276346.542746","277113.190223","277879.888547","278646.474951","279413.146975","280179.809356","280946.744962","282468.130786"
"Blocked","Male","ball","4","M_ball.wav","None","738.92515663","405","274813.286072","281696.440177","282463.111032","283229.717599","283996.33264","270196.728598","270963.402375","271730.005728","275579.92186","276346.542746","277113.190223","277879.888547","278646.474951","279413.146975","280179.809356","280946.744962","283234.86067"
"Blocked","Male","ball","4","M_cling.wav","space","518.574083598","405","274813.286072","281696.440177","282463.111032","283229.717599","283996.33264","284762.97778","270963.402375","271730.005728","275579.92186","276346.542746","277113.190223","277879.888547","278646.474951","279413.146975","280179.809356","280946.744962","284001.460807"
"Blocked","Male","ball","4","M_ball.wav","None","734.985447447","405","274813.286072","281696.440177","282463.111032","283229.717599","283996.33264","284762.97778","285529.643667","271730.005728","275579.92186","276346.542746","277113.190223","277879.888547","278646.474951","279413.146975","280179.809356","280946.744962","284768.10098"
"Blocked","Male","ball","4","M_gnash.wav","None","733.153520666","405","274813.286072","281696.440177","282463.111032","283229.717599","283996.33264","284762.97778","285529.643667","286296.26689","275579.92186","276346.542746","277113.190223","277879.888547","278646.474951","279413.146975","280179.809356","280946.744962","285534.882586"
"Blocked","Male","tile","15","M_bluff.wav","None","731.929411352","405","289379.522396","281696.440177","282463.111032","283229.717599","283996.33264","284762.97778","285529.643667","286296.26689","275579.92186","276346.542746","277113.190223","277879.888547","278646.474951","279413.146975","280179.809356","280946.744962","286301.339536"
"Blocked","Male","tile","15","M_tile.wav","None","742.100126239","405","289379.522396","281696.440177","282463.111032","283229.717599","283996.33264","284762.97778","285529.643667","286296.26689","290146.214291","276346.542746","277113.190223","277879.888547","278646.474951","279413.146975","280179.809356","280946.744962","289384.563482"
"Blocked","Male","tile","15","M_jolt.wav","space","559.979603048","405","289379.522396","281696.440177","282463.111032","283229.717599","283996.33264","284762.97778","285529.643667","286296.26689","290146.214291","290912.810338","277113.190223","277879.888547","278646.474951","279413.146975","280179.809356","280946.744962","290151.707149"
"Blocked","Male","tile","15","M_bluff.wav","None","737.535358612","405","289379.522396","281696.440177","282463.111032","283229.717599","283996.33264","284762.97778","285529.643667","286296.26689","290146.214291","290912.810338","291679.479732","277879.888547","278646.474951","279413.146975","280179.809356","280946.744962","290918.429435"
"Blocked","Male","tile","15","M_romp.wav","None","736.521355433","405","289379.522396","281696.440177","282463.111032","283229.717599","283996.33264","284762.97778","285529.643667","286296.26689","290146.214291","290912.810338","291679.479732","292446.115228","278646.474951","279413.146975","280179.809356","280946.744962","291684.426431"
"Blocked","Male","tile","15","M_knife.wav","None","734.965868711","405","289379.522396","281696.440177","282463.111032","283229.717599","283996.33264","284762.97778","285529.643667","286296.26689","290146.214291","290912.810338","291679.479732","292446.115228","293212.787544","279413.146975","280179.809356","280946.744962","292451.2808"
"Blocked","Male","tile","15","M_tile.wav","None","733.413888629","405","289379.522396","281696.440177","282463.111032","283229.717599","283996.33264","284762.97778","285529.643667","286296.26689","290146.214291","290912.810338","291679.479732","292446.115228","293212.787544","293979.369565","280179.809356","280946.744962","293217.943765"
"Blocked","Male","tile","15","M_park.wav","space","630.804364598","405","289379.522396","281696.440177","282463.111032","283229.717599","283996.33264","284762.97778","285529.643667","286296.26689","290146.214291","290912.810338","291679.479732","292446.115228","293212.787544","293979.369565","294746.090389","280946.744962","293984.675694"
"Blocked","Male","tile","15","M_priest.wav","None","729.664414624","405","289379.522396","281696.440177","282463.111032","283229.717599","283996.33264","284762.97778","285529.643667","286296.26689","290146.214291","290912.810338","291679.479732","292446.115228","293212.787544","293979.369565","294746.090389","295512.930148","294751.183199"
"Blocked","Male","tile","15","M_lash.wav","None","727.452894147","405","289379.522396","296262.664228","282463.111032","283229.717599","283996.33264","284762.97778","285529.643667","286296.26689","290146.214291","290912.810338","291679.479732","292446.115228","293212.787544","293979.369565","294746.090389","295512.930148","295518.71581"
"Blocked","Male","tile","15","M_priest.wav","None","743.442292407","405","289379.522396","296262.664228","297029.360798","283229.717599","283996.33264","284762.97778","285529.643667","286296.26689","290146.214291","290912.810338","291679.479732","292446.115228","293212.787544","293979.369565","294746.090389","295512.930148","296267.838566"
"Blocked","Male","tile","15","M_dime.wav","None","742.018012436","405","289379.522396","296262.664228","297029.360798","297795.955676","283996.33264","284762.97778","285529.643667","286296.26689","290146.214291","290912.810338","291679.479732","292446.115228","293212.787544","293979.369565","294746.090389","295512.930148","297034.386689"
"Blocked","Male","tile","15","M_tile.wav","None","740.201281092","405","289379.522396","296262.664228","297029.360798","297795.955676","298562.597894","284762.97778","285529.643667","286296.26689","290146.214291","290912.810338","291679.479732","292446.115228","293212.787544","293979.369565","294746.090389","295512.930148","297801.365836"
"Blocked","Male","tile","15","M_romp.wav","space","527.650727044","405","289379.522396","296262.664228","297029.360798","297795.955676","298562.597894","299329.245079","285529.643667","286296.26689","290146.214291","290912.810338","291679.479732","292446.115228","293212.787544","293979.369565","294746.090389","295512.930148","298567.56008"
"Blocked","Male","tile","15","M_tile.wav","None","736.147606134","405","289379.522396","296262.664228","297029.360798","297795.955676","298562.597894","299329.245079","300096.009737","286296.26689","290146.214291","290912.810338","291679.479732","292446.115228","293212.787544","293979.369565","294746.090389","295512.930148","299334.609653"
"Blocked","Male","tile","15","M_depth.wav","None","734.500946793","405","289379.522396","296262.664228","297029.360798","297795.955676","298562.597894","299329.245079","300096.009737","300862.53419","290146.214291","290912.810338","291679.479732","292446.115228","293212.787544","293979.369565","294746.090389","295512.930148","300101.312944"
"Blocked","Male","cave","12","M_romp.wav","space","323.320904246","405","303962.476038","296262.664228","297029.360798","297795.955676","298562.597894","299329.245079","300096.009737","300862.53419","290146.214291","290912.810338","291679.479732","292446.115228","293212.787544","293979.369565","294746.090389","295512.930148","300867.722555"
"Blocked","Male","cave","12","M_cave.wav","None","741.896741163","405","303962.476038","296262.664228","297029.360798","297795.955676","298562.597894","299329.245079","300096.009737","300862.53419","304729.150108","290912.810338","291679.479732","292446.115228","293212.787544","293979.369565","294746.090389","295512.930148","303967.692748"
"Blocked","Male","cave","12","M_cling.wav","space","576.248363569","405","303962.476038","296262.664228","297029.360798","297795.955676","298562.597894","299329.245079","300096.009737","300862.53419","304729.150108","305495.743524","291679.479732","292446.115228","293212.787544","293979.369565","294746.090389","295512.930148","304734.589782"
"Blocked","Male","cave","12","M_greet.wav","None","737.932485506","405","303962.476038","296262.664228","297029.360798","297795.955676","298562.597894","299329.245079","300096.009737","300862.53419","304729.150108","305495.743524","306262.434251","292446.115228","293212.787544","293979.369565","294746.090389","295512.930148","305500.871108"
"Blocked","Male","cave","12","M_greet.wav","None","736.177704787","405","303962.476038","296262.664228","297029.360798","297795.955676","298562.597894","299329.245079","300096.009737","300862.53419","304729.150108","305495.743524","306262.434251","307029.031758","293212.787544","293979.369565","294746.090389","295512.930148","306267.704145"
"Blocked","Male","cave","12","M_romp.wav","None","734.729462783","405","303962.476038","296262.664228","297029.360798","297795.955676","298562.597894","299329.245079","300096.009737","300862.53419","304729.150108","305495.743524","306262.434251","307029.031758","307795.677483","293979.369565","294746.090389","295512.930148","307034.108203"
"Blocked","Male","cave","12","M_park.wav","None","733.145046288","405","303962.476038","296262.664228","297029.360798","297795.955676","298562.597894","299329.245079","300096.009737","300862.53419","304729.150108","305495.743524","306262.434251","307029.031758","307795.677483","308562.353306","294746.090389","295512.930148","307800.638501"
"Blocked","Male","cave","12","M_cave.wav","None","731.445202918","405","303962.476038","296262.664228","297029.360798","297795.955676","298562.597894","299329.245079","300096.009737","300862.53419","304729.150108","305495.743524","306262.434251","307029.031758","307795.677483","308562.353306","309328.967762","295512.930148","308567.413678"
"Blocked","Male","cave","12","M_romp.wav","space","552.43185431","405","303962.476038","296262.664228","297029.360798","297795.955676","298562.597894","299329.245079","300096.009737","300862.53419","304729.150108","305495.743524","306262.434251","307029.031758","307795.677483","308562.353306","309328.967762","310079.003705","309334.120184"
"Blocked","Male","cave","12","M_cave.wav","None","743.416577053","405","303962.476038","310845.619623","297029.360798","297795.955676","298562.597894","299329.245079","300096.009737","300862.53419","304729.150108","305495.743524","306262.434251","307029.031758","307795.677483","308562.353306","309328.967762","310079.003705","310084.268632"
"Blocked","Male","cave","12","M_depth.wav","space","675.762986254","405","303962.476038","310845.619623","311612.269438","297795.955676","298562.597894","299329.245079","300096.009737","300862.53419","304729.150108","305495.743524","306262.434251","307029.031758","307795.677483","308562.353306","309328.967762","310079.003705","310850.710094"
"Blocked","Male","cave","12","M_reek.wav","None","739.562488311","405","303962.476038","310845.619623","311612.269438","312378.912241","298562.597894","299329.245079","300096.009737","300862.53419","304729.150108","305495.743524","306262.434251","307029.031758","307795.677483","308562.353306","309328.967762","310079.003705","311617.218183"
"Blocked","Male","cave","12","M_cave.wav","None","737.91232233","405","303962.476038","310845.619623","311612.269438","312378.912241","313145.557088","299329.245079","300096.009737","300862.53419","304729.150108","305495.743524","306262.434251","307029.031758","307795.677483","308562.353306","309328.967762","310079.003705","312384.095053"
"Blocked","Male","cave","12","M_cling.wav","space","591.555136058","405","303962.476038","310845.619623","311612.269438","312378.912241","313145.557088","313912.180019","300096.009737","300862.53419","304729.150108","305495.743524","306262.434251","307029.031758","307795.677483","308562.353306","309328.967762","310079.003705","313150.730842"
"Blocked","Male","cave","12","M_jolt.wav","None","733.887869366","405","303962.476038","310845.619623","311612.269438","312378.912241","313145.557088","313912.180019","314678.821652","300862.53419","304729.150108","305495.743524","306262.434251","307029.031758","307795.677483","308562.353306","309328.967762","310079.003705","313917.364293"
"Blocked","Male","cave","12","M_knife.wav","None","736.020782682","405","303962.476038","310845.619623","311612.269438","312378.912241","313145.557088","313912.180019","314678.821652","315445.504781","304729.150108","305495.743524","306262.434251","307029.031758","307795.677483","308562.353306","309328.967762","310079.003705","314680.358145"
"Blocked","Male","done","24","M_jolt.wav","None","730.915115953","405","318528.781034","310845.619623","311612.269438","312378.912241","313145.557088","313912.180019","314678.821652","315445.504781","304729.150108","305495.743524","306262.434251","307029.031758","307795.677483","308562.353306","309328.967762","310079.003705","315450.623305"
"Blocked","Male","done","24","M_done.wav","None","741.945834113","405","318528.781034","310845.619623","311612.269438","312378.912241","313145.557088","313912.180019","314678.821652","315445.504781","319295.414193","305495.743524","306262.434251","307029.031758","307795.677483","308562.353306","309328.967762","310079.003705","318533.970275"
"Blocked","Male","done","24","M_depth.wav","space","545.425004675","405","318528.781034","310845.619623","311612.269438","312378.912241","313145.557088","313912.180019","314678.821652","315445.504781","319295.414193","320062.009071","306262.434251","307029.031758","307795.677483","308562.353306","309328.967762","310079.003705","319300.540022"
"Blocked","Male","done","24","M_jaw.wav","None","738.075381055","405","318528.781034","310845.619623","311612.269438","312378.912241","313145.557088","313912.180019","314678.821652","315445.504781","319295.414193","320062.009071","320828.731356","307029.031758","307795.677483","308562.353306","309328.967762","310079.003705","320067.040513"
"Blocked","Male","done","24","M_depth.wav","None","736.457067047","405","318528.781034","310845.619623","311612.269438","312378.912241","313145.557088","313912.180019","314678.821652","315445.504781","319295.414193","320062.009071","320828.731356","321595.323604","307795.677483","308562.353306","309328.967762","310079.003705","320833.708739"
"Blocked","Male","done","24","M_jaw.wav","None","734.878787171","405","318528.781034","310845.619623","311612.269438","312378.912241","313145.557088","313912.180019","314678.821652","315445.504781","319295.414193","320062.009071","320828.731356","321595.323604","322361.971959","308562.353306","309328.967762","310079.003705","321600.661001"
"Blocked","Male","done","24","M_reek.wav","None","733.753155975","405","318528.781034","310845.619623","311612.269438","312378.912241","313145.557088","313912.180019","314678.821652","315445.504781","319295.414193","320062.009071","320828.731356","321595.323604","322361.971959","323128.627326","309328.967762","310079.003705","322367.148635"
"Blocked","Male","done","24","M_done.wav","None","732.692105386","405","318528.781034","310845.619623","311612.269438","312378.912241","313145.557088","313912.180019","314678.821652","315445.504781","319295.414193","320062.009071","320828.731356","321595.323604","322361.971959","323128.627326","323895.300811","310079.003705","323133.461813"
"Blocked","Male","done","24","M_park.wav","space","513.14755938","405","318528.781034","310845.619623","311612.269438","312378.912241","313145.557088","313912.180019","314678.821652","315445.504781","319295.414193","320062.009071","320828.731356","321595.323604","322361.971959","323128.627326","323895.300811","324662.071898","323900.462292"
"Blocked","Male","done","24","M_done.wav","space","0.0207476150827","405","318528.781034","325411.853025","311612.269438","312378.912241","313145.557088","313912.180019","314678.821652","315445.504781","319295.414193","320062.009071","320828.731356","321595.323604","322361.971959","323128.627326","323895.300811","324662.071898","324667.814896"
"Blocked","Male","done","24","M_jolt.wav","space","644.278333645","405","318528.781034","325411.853025","326178.525049","312378.912241","313145.557088","313912.180019","314678.821652","315445.504781","319295.414193","320062.009071","320828.731356","321595.323604","322361.971959","323128.627326","323895.300811","324662.071898","325417.295037"
"Blocked","Male","done","24","M_gnash.wav","space","197.789356182","405","318528.781034","325411.853025","326178.525049","326945.22162","313145.557088","313912.180019","314678.821652","315445.504781","319295.414193","320062.009071","320828.731356","321595.323604","322361.971959","323128.627326","323895.300811","324662.071898","326183.754325"
"Blocked","Male","done","24","M_cad.wav","None","737.259795213","405","318528.781034","325411.853025","326178.525049","326945.22162","327711.821758","313912.180019","314678.821652","315445.504781","319295.414193","320062.009071","320828.731356","321595.323604","322361.971959","323128.627326","323895.300811","324662.071898","326950.340436"
"Blocked","Male","done","24","M_done.wav","None","736.558759585","405","318528.781034","325411.853025","326178.525049","326945.22162","327711.821758","328478.498749","314678.821652","315445.504781","319295.414193","320062.009071","320828.731356","321595.323604","322361.971959","323128.627326","323895.300811","324662.071898","327716.930931"
"Blocked","Male","done","24","M_park.wav","space","609.905671404","405","318528.781034","325411.853025","326178.525049","326945.22162","327711.821758","328478.498749","329245.139798","315445.504781","319295.414193","320062.009071","320828.731356","321595.323604","322361.971959","323128.627326","323895.300811","324662.071898","328483.488112"
"Blocked","Male","done","24","M_bluff.wav","None","732.825065457","405","318528.781034","325411.853025","326178.525049","326945.22162","327711.821758","328478.498749","329245.139798","330011.73263","319295.414193","320062.009071","320828.731356","321595.323604","322361.971959","323128.627326","323895.300811","324662.071898","329250.418459"
"Blocked","Male","cave","11","M_cad.wav","None","731.423578643","405","333111.641166","325411.853025","326178.525049","326945.22162","327711.821758","328478.498749","329245.139798","330011.73263","319295.414193","320062.009071","320828.731356","321595.323604","322361.971959","323128.627326","323895.300811","324662.071898","330017.069151"
"Blocked","Male","cave","11","M_cad.wav","None","742.029409014","405","333111.641166","325411.853025","326178.525049","326945.22162","327711.821758","328478.498749","329245.139798","330011.73263","333878.3541","320062.009071","320828.731356","321595.323604","322361.971959","323128.627326","323895.300811","324662.071898","333116.872195"
"Blocked","Male","cave","11","M_cave.wav","None","740.62587666","405","333111.641166","325411.853025","326178.525049","326945.22162","327711.821758","328478.498749","329245.139798","330011.73263","333878.3541","334644.963297","320828.731356","321595.323604","322361.971959","323128.627326","323895.300811","324662.071898","333883.410674"
"Blocked","Male","cave","11","M_greet.wav","space","482.805194502","405","333111.641166","325411.853025","326178.525049","326945.22162","327711.821758","328478.498749","329245.139798","330011.73263","333878.3541","334644.963297","335411.639705","321595.323604","322361.971959","323128.627326","323895.300811","324662.071898","334650.22647"
"Blocked","Male","cave","11","M_park.wav","None","737.233203198","405","333111.641166","325411.853025","326178.525049","326945.22162","327711.821758","328478.498749","329245.139798","330011.73263","333878.3541","334644.963297","335411.639705","336178.2264","322361.971959","323128.627326","323895.300811","324662.071898","335416.720825"
"Blocked","Male","cave","11","M_bluff.wav","None","735.691158594","405","333111.641166","325411.853025","326178.525049","326945.22162","327711.821758","328478.498749","329245.139798","330011.73263","333878.3541","334644.963297","335411.639705","336178.2264","336944.914789","323128.627326","323895.300811","324662.071898","336183.354568"
"Blocked","Male","cave","11","M_cave.wav","None","734.201713578","405","333111.641166","325411.853025","326178.525049","326945.22162","327711.821758","328478.498749","329245.139798","330011.73263","333878.3541","334644.963297","335411.639705","336178.2264","336944.914789","337711.531583","323895.300811","324662.071898","336950.092049"
"Blocked","Male","cave","11","M_lash.wav","space","568.209685338","405","333111.641166","325411.853025","326178.525049","326945.22162","327711.821758","328478.498749","329245.139798","330011.73263","333878.3541","334644.963297","335411.639705","336178.2264","336944.914789","337711.531583","338478.190749","324662.071898","337716.592832"
"Blocked","Male","cave","11","M_cave.wav","None","730.742413971","405","333111.641166","325411.853025","326178.525049","326945.22162","327711.821758","328478.498749","329245.139798","330011.73263","333878.3541","334644.963297","335411.639705","336178.2264","336944.914789","337711.531583","338478.190749","339244.838811","338483.531361"
"Blocked","Male","cave","11","M_greet.wav","None","729.68925332","405","333111.641166","340011.941275","326178.525049","326945.22162","327711.821758","328478.498749","329245.139798","330011.73263","333878.3541","334644.963297","335411.639705","336178.2264","336944.914789","337711.531583","338478.190749","339244.838811","339249.865287"
"Blocked","Male","cave","11","M_bluff.wav","space","0.0201631755335","405","333111.641166","340011.941275","340761.571033","326945.22162","327711.821758","328478.498749","329245.139798","330011.73263","333878.3541","334644.963297","335411.639705","336178.2264","336944.914789","337711.531583","338478.190749","339244.838811","340017.53232"
"Blocked","Male","cave","11","M_cave.wav","None","741.940574154","405","333111.641166","340011.941275","340761.571033","341528.082336","327711.821758","328478.498749","329245.139798","330011.73263","333878.3541","334644.963297","335411.639705","336178.2264","336944.914789","337711.531583","338478.190749","339244.838811","340766.900248"
"Blocked","Male","cave","11","M_cad.wav","space","559.401592014","405","333111.641166","340011.941275","340761.571033","341528.082336","342294.782121","328478.498749","329245.139798","330011.73263","333878.3541","334644.963297","335411.639705","336178.2264","336944.914789","337711.531583","338478.190749","339244.838811","341533.206997"
"Blocked","Male","cave","11","M_priest.wav","None","738.185255751","405","333111.641166","340011.941275","340761.571033","341528.082336","342294.782121","343061.419078","329245.139798","330011.73263","333878.3541","334644.963297","335411.639705","336178.2264","336944.914789","337711.531583","338478.190749","339244.838811","342299.793401"
"Blocked","Male","cave","11","M_jolt.wav","None","737.154888255","405","333111.641166","340011.941275","340761.571033","341528.082336","342294.782121","343061.419078","343828.099869","330011.73263","333878.3541","334644.963297","335411.639705","336178.2264","336944.914789","337711.531583","338478.190749","339244.838811","343066.34503"
"Blocked","Male","cave","11","M_cling.wav","None","735.218931177","405","333111.641166","340011.941275","340761.571033","341528.082336","342294.782121","343061.419078","343828.099869","344594.679259","333878.3541","334644.963297","335411.639705","336178.2264","336944.914789","337711.531583","338478.190749","339244.838811","343833.497464"
"Blocked","Male","ball","1","M_jaw.wav","None","734.254313166","405","347711.286995","340011.941275","340761.571033","341528.082336","342294.782121","343061.419078","343828.099869","344594.679259","333878.3541","334644.963297","335411.639705","336178.2264","336944.914789","337711.531583","338478.190749","339244.838811","344599.816486"
"Blocked","Male","ball","1","M_romp.wav","None","743.623176548","405","347711.286995","340011.941275","340761.571033","341528.082336","342294.782121","343061.419078","343828.099869","344594.679259","348477.954051","334644.963297","335411.639705","336178.2264","336944.914789","337711.531583","338478.190749","339244.838811","347716.35292"
"Blocked","Male","ball","1","M_romp.wav","None","742.286270338","405","347711.286995","340011.941275","340761.571033","341528.082336","342294.782121","343061.419078","343828.099869","344594.679259","348477.954051","349244.551267","335411.639705","336178.2264","336944.914789","337711.531583","338478.190749","339244.838811","348482.945168"
"Blocked","Male","ball","1","M_ball.wav","None","741.072973163","405","347711.286995","340011.941275","340761.571033","341528.082336","342294.782121","343061.419078","343828.099869","344594.679259","348477.954051","349244.551267","350011.233227","336178.2264","336944.914789","337711.531583","338478.190749","339244.838811","349249.71567"
"Blocked","Male","ball","1","M_romp.wav","space","483.512366747","405","347711.286995","340011.941275","340761.571033","341528.082336","342294.782121","343061.419078","343828.099869","344594.679259","348477.954051","349244.551267","350011.233227","350777.819922","336944.914789","337711.531583","338478.190749","339244.838811","350016.581436"
"Blocked","Male","ball","1","M_ball.wav","None","737.330804656","405","347711.286995","340011.941275","340761.571033","341528.082336","342294.782121","343061.419078","343828.099869","344594.679259","348477.954051","349244.551267","350011.233227","350777.819922","351544.511525","337711.531583","338478.190749","339244.838811","350782.812792"
"Blocked","Male","ball","1","M_dime.wav","space","670.292044604","405","347711.286995","340011.941275","340761.571033","341528.082336","342294.782121","343061.419078","343828.099869","344594.679259","348477.954051","349244.551267","350011.233227","350777.819922","351544.511525","352311.112832","338478.190749","339244.838811","351549.679143"
"Blocked","Male","ball","1","M_knife.wav","None","732.937570133","405","347711.286995","340011.941275","340761.571033","341528.082336","342294.782121","343061.419078","343828.099869","344594.679259","348477.954051","349244.551267","350011.233227","350777.819922","351544.511525","352311.112832","353077.799175","339244.838811","352316.548707"
"Blocked","Male","ball","1","M_depth.wav","None","732.167278381","405","347711.286995","340011.941275","340761.571033","341528.082336","342294.782121","343061.419078","343828.099869","344594.679259","348477.954051","349244.551267","350011.233227","350777.819922","351544.511525","352311.112832","353077.799175","353844.415677","353082.845813"
"Blocked","Male","ball","1","M_ball.wav","None","730.74212175","405","347711.286995","354611.112832","340761.571033","341528.082336","342294.782121","343061.419078","343828.099869","344594.679259","348477.954051","349244.551267","350011.233227","350777.819922","351544.511525","352311.112832","353077.799175","353844.415677","353849.61953"
"Blocked","Male","ball","1","M_park.wav","space","475.73464092","405","347711.286995","354611.112832","355378.176431","341528.082336","342294.782121","343061.419078","343828.099869","344594.679259","348477.954051","349244.551267","350011.233227","350777.819922","351544.511525","352311.112832","353077.799175","353844.415677","354616.131709"
"Blocked","Male","ball","1","M_bluff.wav","None","726.409084534","405","347711.286995","354611.112832","355378.176431","356127.659201","342294.782121","343061.419078","343828.099869","344594.679259","348477.954051","349244.551267","350011.233227","350777.819922","351544.511525","352311.112832","353077.799175","353844.415677","355383.596818"
"Blocked","Male","ball","1","M_park.wav","None","743.208516457","405","347711.286995","354611.112832","355378.176431","356127.659201","356894.385871","343061.419078","343828.099869","344594.679259","348477.954051","349244.551267","350011.233227","350777.819922","351544.511525","352311.112832","353077.799175","353844.415677","356132.512682"
"Blocked","Male","ball","1","M_dime.wav","None","741.517731906","405","347711.286995","354611.112832","355378.176431","356127.659201","356894.385871","357661.002081","343828.099869","344594.679259","348477.954051","349244.551267","350011.233227","350777.819922","351544.511525","352311.112832","353077.799175","353844.415677","356899.509071"
"Blocked","Male","ball","1","M_ball.wav","None","740.037345708","405","347711.286995","354611.112832","355378.176431","356127.659201","356894.385871","357661.002081","358427.621505","344594.679259","348477.954051","349244.551267","350011.233227","350777.819922","351544.511525","352311.112832","353077.799175","353844.415677","357666.393831"
"Blocked","Male","ball","1","M_cad.wav","space","538.945612025","405","347711.286995","354611.112832","355378.176431","356127.659201","356894.385871","357661.002081","358427.621505","359194.283594","348477.954051","349244.551267","350011.233227","350777.819922","351544.511525","352311.112832","353077.799175","353844.415677","358432.633661"
"Blocked","Male","ball","5","M_romp.wav","None","736.893643631","405","362310.860938","354611.112832","355378.176431","356127.659201","356894.385871","357661.002081","358427.621505","359194.283594","348477.954051","349244.551267","350011.233227","350777.819922","351544.511525","352311.112832","353077.799175","353844.415677","359199.353025"
"Blocked","Male","ball","5","M_depth.wav","None","742.0951585","405","362310.860938","354611.112832","355378.176431","356127.659201","356894.385871","357661.002081","358427.621505","359194.283594","363077.493805","349244.551267","350011.233227","350777.819922","351544.511525","352311.112832","353077.799175","353844.415677","362316.067421"
"Blocked","Male","ball","5","M_ball.wav","None","741.029724611","405","362310.860938","354611.112832","355378.176431","356127.659201","356894.385871","357661.002081","358427.621505","359194.283594","363077.493805","363844.141282","350011.233227","350777.819922","351544.511525","352311.112832","353077.799175","353844.415677","363082.541904"
"Blocked","Male","ball","5","M_park.wav","space","618.230140733","405","362310.860938","354611.112832","355378.176431","356127.659201","356894.385871","357661.002081","358427.621505","359194.283594","363077.493805","363844.141282","364610.864445","350777.819922","351544.511525","352311.112832","353077.799175","353844.415677","363849.047655"
"Blocked","Male","ball","5","M_knife.wav","None","737.433958294","405","362310.860938","354611.112832","355378.176431","356127.659201","356894.385871","357661.002081","358427.621505","359194.283594","363077.493805","363844.141282","364610.864445","365377.409061","351544.511525","352311.112832","353077.799175","353844.415677","364616.059239"
"Blocked","Male","ball","5","M_reek.wav","None","736.623047971","405","362310.860938","354611.112832","355378.176431","356127.659201","356894.385871","357661.002081","358427.621505","359194.283594","363077.493805","363844.141282","364610.864445","365377.409061","366144.099495","352311.112832","353077.799175","353844.415677","365382.438458"
"Blocked","Male","ball","5","M_jolt.wav","None","735.398354217","405","362310.860938","354611.112832","355378.176431","356127.659201","356894.385871","357661.002081","358427.621505","359194.283594","363077.493805","363844.141282","364610.864445","365377.409061","366144.099495","366910.711322","353077.799175","353844.415677","366149.192304"
"Blocked","Male","ball","5","M_cling.wav","None","734.078104544","405","362310.860938","354611.112832","355378.176431","356127.659201","356894.385871","357661.002081","358427.621505","359194.283594","363077.493805","363844.141282","364610.864445","365377.409061","366144.099495","366910.711322","367677.407892","353844.415677","366915.910791"
"Blocked","Male","ball","5","M_ball.wav","None","732.838507574","405","362310.860938","354611.112832","355378.176431","356127.659201","356894.385871","357661.002081","358427.621505","359194.283594","363077.493805","363844.141282","364610.864445","365377.409061","366144.099495","366910.711322","367677.407892","368444.007446","367682.539859"
"Blocked","Male","ball","5","M_depth.wav","space","490.02624135","405","362310.860938","369210.67947","355378.176431","356127.659201","356894.385871","357661.002081","358427.621505","359194.283594","363077.493805","363844.141282","364610.864445","365377.409061","366144.099495","366910.711322","367677.407892","368444.007446","368448.951223"
"Blocked","Male","ball","5","M_dime.wav","None","729.355830373","405","362310.860938","369210.67947","369977.575627","356127.659201","356894.385871","357661.002081","358427.621505","359194.283594","363077.493805","363844.141282","364610.864445","365377.409061","366144.099495","366910.711322","367677.407892","368444.007446","369215.756499"
"Blocked","Male","ball","5","M_ball.wav","None","727.613907331","405","362310.860938","369210.67947","369977.575627","370744.251742","356894.385871","357661.002081","358427.621505","359194.283594","363077.493805","363844.141282","364610.864445","365377.409061","366144.099495","366910.711322","367677.407892","368444.007446","369983.198523"
"Blocked","Male","ball","5","M_jolt.wav","space","564.650154292","405","362310.860938","369210.67947","369977.575627","370744.251742","371493.955138","357661.002081","358427.621505","359194.283594","363077.493805","363844.141282","364610.864445","365377.409061","366144.099495","366910.711322","367677.407892","368444.007446","370750.207476"
"Blocked","Male","ball","5","M_reek.wav","None","741.419838228","405","362310.860938","369210.67947","369977.575627","370744.251742","371493.955138","372260.633883","358427.621505","359194.283594","363077.493805","363844.141282","364610.864445","365377.409061","366144.099495","366910.711322","367677.407892","368444.007446","371499.049701"
"Blocked","Male","ball","5","M_ball.wav","None","740.374859734","405","362310.860938","369210.67947","369977.575627","370744.251742","371493.955138","372260.633883","373027.192234","359194.283594","363077.493805","363844.141282","364610.864445","365377.409061","366144.099495","366910.711322","367677.407892","368444.007446","372265.715004"
"Blocked","Male","ball","5","M_jaw.wav","space","594.000140266","405","362310.860938","369210.67947","369977.575627","370744.251742","371493.955138","372260.633883","373027.192234","373793.879161","363077.493805","363844.141282","364610.864445","365377.409061","366144.099495","366910.711322","367677.407892","368444.007446","373032.714314"
"Blocked","Male","ball","6","M_greet.wav","None","737.09030765","405","376910.502969","369210.67947","369977.575627","370744.251742","371493.955138","372260.633883","373027.192234","373793.879161","363077.493805","363844.141282","364610.864445","365377.409061","366144.099495","366910.711322","367677.407892","368444.007446","373798.907974"
"Blocked","Male","ball","6","M_depth.wav","None","742.6492075","405","376910.502969","369210.67947","369977.575627","370744.251742","371493.955138","372260.633883","373027.192234","373793.879161","377677.138758","363844.141282","364610.864445","365377.409061","366144.099495","366910.711322","367677.407892","368444.007446","376915.549607"
"Blocked","Male","ball","6","M_ball.wav","None","741.410194969","405","376910.502969","369210.67947","369977.575627","370744.251742","371493.955138","372260.633883","373027.192234","373793.879161","377677.138758","378443.709674","364610.864445","365377.409061","366144.099495","366910.711322","367677.407892","368444.007446","377682.310466"
"Blocked","Male","ball","6","M_priest.wav","space","361.649055545","405","376910.502969","369210.67947","369977.575627","370744.251742","371493.955138","372260.633883","373027.192234","373793.879161","377677.138758","378443.709674","379210.436927","365377.409061","366144.099495","366910.711322","367677.407892","368444.007446","378448.730889"
"Blocked","Male","ball","6","M_ball.wav","None","737.660720965","405","376910.502969","369210.67947","369977.575627","370744.251742","371493.955138","372260.633883","373027.192234","373793.879161","377677.138758","378443.709674","379210.436927","379977.039987","366144.099495","366910.711322","367677.407892","368444.007446","379215.850302"
"Blocked","Male","ball","6","M_jolt.wav","None","737.137062839","405","376910.502969","369210.67947","369977.575627","370744.251742","371493.955138","372260.633883","373027.192234","373793.879161","377677.138758","378443.709674","379210.436927","379977.039987","380743.672269","366910.711322","367677.407892","368444.007446","379982.06091"
"Blocked","Male","ball","6","M_gnash.wav","space","181.495464746","405","376910.502969","369210.67947","369977.575627","370744.251742","371493.955138","372260.633883","373027.192234","373793.879161","377677.138758","378443.709674","379210.436927","379977.039987","380743.672269","381510.331144","367677.407892","368444.007446","380748.756896"
"Blocked","Male","ball","6","M_ball.wav","None","733.061763605","405","376910.502969","369210.67947","369977.575627","370744.251742","371493.955138","372260.633883","373027.192234","373793.879161","377677.138758","378443.709674","379210.436927","379977.039987","380743.672269","381510.331144","382277.091126","368444.007446","381515.660359"
"Blocked","Male","ball","6","M_jaw.wav","space","479.911924911","405","376910.502969","369210.67947","369977.575627","370744.251742","371493.955138","372260.633883","373027.192234","373793.879161","377677.138758","378443.709674","379210.436927","379977.039987","380743.672269","381510.331144","382277.091126","383043.615871","382282.210819"
"Blocked","Male","ball","6","M_cling.wav","None","729.587560782","405","376910.502969","383810.669827","369977.575627","370744.251742","371493.955138","372260.633883","373027.192234","373793.879161","377677.138758","378443.709674","379210.436927","379977.039987","380743.672269","381510.331144","382277.091126","383043.615871","383048.666893"
"Blocked","Male","ball","6","M_knife.wav","None","727.746575182","405","376910.502969","383810.669827","384577.256522","370744.251742","371493.955138","372260.633883","373027.192234","373793.879161","377677.138758","378443.709674","379210.436927","379977.039987","380743.672269","381510.331144","382277.091126","383043.615871","383816.06333"
"Blocked","Male","ball","6","M_reek.wav","None","726.445319806","405","376910.502969","383810.669827","384577.256522","385326.926606","371493.955138","372260.633883","373027.192234","373793.879161","377677.138758","378443.709674","379210.436927","379977.039987","380743.672269","381510.331144","382277.091126","383043.615871","384583.010333"
"Blocked","Male","ball","6","M_ball.wav","None","743.485248737","405","376910.502969","383810.669827","384577.256522","385326.926606","386093.527621","372260.633883","373027.192234","373793.879161","377677.138758","378443.709674","379210.436927","379977.039987","380743.672269","381510.331144","382277.091126","383043.615871","385331.79236"
"Blocked","Male","ball","6","M_dime.wav","space","495.281524687","405","376910.502969","383810.669827","384577.256522","385326.926606","386093.527621","386860.196138","373027.192234","373793.879161","377677.138758","378443.709674","379210.436927","379977.039987","380743.672269","381510.331144","382277.091126","383043.615871","386098.637963"
"Blocked","Male","ball","6","M_knife.wav","None","739.495862165","405","376910.502969","383810.669827","384577.256522","385326.926606","386093.527621","386860.196138","387626.828712","373793.879161","377677.138758","378443.709674","379210.436927","379977.039987","380743.672269","381510.331144","382277.091126","383043.615871","386865.384795"
"Blocked","Male","ball","6","M_romp.wav","None","738.542056293","405","376910.502969","383810.669827","384577.256522","385326.926606","386093.527621","386860.196138","387626.828712","388393.481742","377677.138758","378443.709674","379210.436927","379977.039987","380743.672269","381510.331144","382277.091126","383043.615871","387631.958341"
"Blocked","Male","tile","18","M_gnash.wav","None","737.571301664","405","391493.38268","383810.669827","384577.256522","385326.926606","386093.527621","386860.196138","387626.828712","388393.481742","377677.138758","378443.709674","379210.436927","379977.039987","380743.672269","381510.331144","382277.091126","383043.615871","388398.579519"
"Blocked","Male","tile","18","M_jolt.wav","None","741.86693473","405","391493.38268","383810.669827","384577.256522","385326.926606","386093.527621","386860.196138","387626.828712","388393.481742","392260.020806","378443.709674","379210.436927","379977.039987","380743.672269","381510.331144","382277.091126","383043.615871","391498.673614"
"Blocked","Male","tile","18","M_jaw.wav","None","741.012775855","405","391493.38268","383810.669827","384577.256522","385326.926606","386093.527621","386860.196138","387626.828712","388393.481742","392260.020806","393026.668868","379210.436927","379977.039987","380743.672269","381510.331144","382277.091126","383043.615871","392265.197774"
"Blocked","Male","tile","18","M_park.wav","None","740.503728726","405","391493.38268","383810.669827","384577.256522","385326.926606","386093.527621","386860.196138","387626.828712","388393.481742","392260.020806","393026.668868","393793.401674","379977.039987","380743.672269","381510.331144","382277.091126","383043.615871","393031.820998"
"Blocked","Male","tile","18","M_tile.wav","None","739.575638208","405","391493.38268","383810.669827","384577.256522","385326.926606","386093.527621","386860.196138","387626.828712","388393.481742","392260.020806","393026.668868","393793.401674","394559.976096","380743.672269","381510.331144","382277.091126","383043.615871","393798.317398"
"Blocked","Male","tile","18","M_park.wav","space","460.261595287","405","391493.38268","383810.669827","384577.256522","385326.926606","386093.527621","386860.196138","387626.828712","388393.481742","392260.020806","393026.668868","393793.401674","394559.976096","395326.608379","381510.331144","382277.091126","383043.615871","394565.191638"
"Blocked","Male","tile","18","M_tile.wav","None","736.474892463","405","391493.38268","383810.669827","384577.256522","385326.926606","386093.527621","386860.196138","387626.828712","388393.481742","392260.020806","393026.668868","393793.401674","394559.976096","395326.608379","396093.273389","382277.091126","383043.615871","395331.637776"
"Blocked","Male","tile","18","M_greet.wav","space","559.234442211","405","391493.38268","383810.669827","384577.256522","385326.926606","386093.527621","386860.196138","387626.828712","388393.481742","392260.020806","393026.668868","393793.401674","394559.976096","395326.608379","396093.273389","396859.92262","383043.615871","396098.114305"
"Blocked","Male","tile","18","M_park.wav","None","732.270724237","405","391493.38268","383810.669827","384577.256522","385326.926606","386093.527621","386860.196138","387626.828712","388393.481742","392260.020806","393026.668868","393793.401674","394559.976096","395326.608379","396093.273389","396859.92262","397626.570974","396865.248329"
"Blocked","Male","tile","18","M_tile.wav","None","731.693882083","405","391493.38268","398393.21027","384577.256522","385326.926606","386093.527621","386860.196138","387626.828712","388393.481742","392260.020806","393026.668868","393793.401674","394559.976096","395326.608379","396093.273389","396859.92262","397626.570974","397631.648588"
"Blocked","Male","tile","18","M_gnash.wav","space","722.935173929","405","391493.38268","398393.21027","399160.138278","385326.926606","386093.527621","386860.196138","387626.828712","388393.481742","392260.020806","393026.668868","393793.401674","394559.976096","395326.608379","396093.273389","396859.92262","397626.570974","398398.271811"
"Blocked","Male","tile","18","M_tile.wav","None","727.479486161","405","391493.38268","398393.21027","399160.138278","399926.805919","386093.527621","386860.196138","387626.828712","388393.481742","392260.020806","393026.668868","393793.401674","394559.976096","395326.608379","396093.273389","396859.92262","397626.570974","399165.65919"
"Blocked","Male","tile","18","M_gnash.wav","None","726.537076866","405","391493.38268","398393.21027","399160.138278","399926.805919","400676.454086","386860.196138","387626.828712","388393.481742","392260.020806","393026.668868","393793.401674","394559.976096","395326.608379","396093.273389","396859.92262","397626.570974","399932.304622"
"Blocked","Male","tile","18","M_depth.wav","space","55.2260613422","405","391493.38268","398393.21027","399160.138278","399926.805919","400676.454086","401443.132247","387626.828712","388393.481742","392260.020806","393026.668868","393793.401674","394559.976096","395326.608379","396093.273389","396859.92262","397626.570974","400681.838531"
"Blocked","Male","tile","18","M_cad.wav","None","740.380411913","405","391493.38268","398393.21027","399160.138278","399926.805919","400676.454086","401443.132247","402209.76073","388393.481742","392260.020806","393026.668868","393793.401674","394559.976096","395326.608379","396093.273389","396859.92262","397626.570974","401448.297819"
"Blocked","Male","tile","18","M_bluff.wav","None","739.574469329","405","391493.38268","398393.21027","399160.138278","399926.805919","400676.454086","401443.132247","402209.76073","402976.403532","392260.020806","393026.668868","393793.401674","394559.976096","395326.608379","396093.273389","396859.92262","397626.570974","402214.781945"
"Blocked","Male","done","23","M_greet.wav","None","738.638488872","405","406076.298041","398393.21027","399160.138278","399926.805919","400676.454086","401443.132247","402209.76073","402976.403532","392260.020806","393026.668868","393793.401674","394559.976096","395326.608379","396093.273389","396859.92262","397626.570974","402981.472964"
"Blocked","Male","done","23","M_done.wav","None","741.989959323","405","406076.298041","398393.21027","399160.138278","399926.805919","400676.454086","401443.132247","402209.76073","402976.403532","406842.93383","393026.668868","393793.401674","394559.976096","395326.608379","396093.273389","396859.92262","397626.570974","406081.548941"
"Blocked","Male","done","23","M_romp.wav","None","741.345029923","405","406076.298041","398393.21027","399160.138278","399926.805919","400676.454086","401443.132247","402209.76073","402976.403532","406842.93383","407609.626894","393793.401674","394559.976096","395326.608379","396093.273389","396859.92262","397626.570974","406848.121318"
"Blocked","Male","done","23","M_reek.wav","None","740.58087479","405","406076.298041","398393.21027","399160.138278","399926.805919","400676.454086","401443.132247","402209.76073","402976.403532","406842.93383","407609.626894","408376.316743","394559.976096","395326.608379","396093.273389","396859.92262","397626.570974","407614.669149"
"Blocked","Male","done","23","M_cling.wav","space","371.27244249","405","406076.298041","398393.21027","399160.138278","399926.805919","400676.454086","401443.132247","402209.76073","402976.403532","406842.93383","407609.626894","408376.316743","409142.891458","395326.608379","396093.273389","396859.92262","397626.570974","408381.363674"
"Blocked","Male","done","23","M_done.wav","None","737.027480363","405","406076.298041","398393.21027","399160.138278","399926.805919","400676.454086","401443.132247","402209.76073","402976.403532","406842.93383","407609.626894","408376.316743","409142.891458","409909.533091","396093.273389","396859.92262","397626.570974","409148.13476"
"Blocked","Male","done","23","M_park.wav","space","517.896425566","405","406076.298041","398393.21027","399160.138278","399926.805919","400676.454086","401443.132247","402209.76073","402976.403532","406842.93383","407609.626894","408376.316743","409142.891458","409909.533091","410676.221479","396859.92262","397626.570974","409914.623562"
"Blocked","Male","done","23","M_jolt.wav","None","733.494541331","405","406076.298041","398393.21027","399160.138278","399926.805919","400676.454086","401443.132247","402209.76073","402976.403532","406842.93383","407609.626894","408376.316743","409142.891458","409909.533091","410676.221479","411442.829799","397626.570974","410681.369226"
"Blocked","Male","done","23","M_done.wav","None","732.774219188","405","406076.298041","398393.21027","399160.138278","399926.805919","400676.454086","401443.132247","402209.76073","402976.403532","406842.93383","407609.626894","408376.316743","409142.891458","409909.533091","410676.221479","411442.829799","412209.514097","411447.793155"
"Blocked","Male","done","23","M_knife.wav","space","537.698125117","405","406076.298041","412976.108975","399160.138278","399926.805919","400676.454086","401443.132247","402209.76073","402976.403532","406842.93383","407609.626894","408376.316743","409142.891458","409909.533091","410676.221479","411442.829799","412209.514097","412214.67587"
"Blocked","Male","done","23","M_gnash.wav","None","729.238942398","405","406076.298041","412976.108975","413743.0589","399926.805919","400676.454086","401443.132247","402209.76073","402976.403532","406842.93383","407609.626894","408376.316743","409142.891458","409909.533091","410676.221479","411442.829799","412209.514097","412981.181621"
"Blocked","Male","done","23","M_lash.wav","None","728.269064429","405","406076.298041","412976.108975","413743.0589","414509.936647","400676.454086","401443.132247","402209.76073","402976.403532","406842.93383","407609.626894","408376.316743","409142.891458","409909.533091","410676.221479","411442.829799","412209.514097","413748.189405"
"Blocked","Male","done","23","M_romp.wav","None","726.999661025","405","406076.298041","412976.108975","413743.0589","414509.936647","415259.386981","401443.132247","402209.76073","402976.403532","406842.93383","407609.626894","408376.316743","409142.891458","409909.533091","410676.221479","411442.829799","412209.514097","414515.274921"
"Blocked","Male","done","23","M_park.wav","None","743.631358706","405","406076.298041","412976.108975","413743.0589","414509.936647","415259.386981","416026.058713","402209.76073","402976.403532","406842.93383","407609.626894","408376.316743","409142.891458","409909.533091","410676.221479","411442.829799","412209.514097","415264.406151"
"Blocked","Male","done","23","M_done.wav","None","742.935583037","405","406076.298041","412976.108975","413743.0589","414509.936647","415259.386981","416026.058713","416792.724016","402976.403532","406842.93383","407609.626894","408376.316743","409142.891458","409909.533091","410676.221479","411442.829799","412209.514097","416030.948137"
"Blocked","Male","done","23","M_priest.wav","space","602.363182626","405","406076.298041","412976.108975","413743.0589","414509.936647","415259.386981","416026.058713","416792.724016","417559.327076","406842.93383","407609.626894","408376.316743","409142.891458","409909.533091","410676.221479","411442.829799","412209.514097","416797.740263"
"Blocked","Male","done","22","M_bluff.wav","None","739.366116514","405","420675.882212","412976.108975","413743.0589","414509.936647","415259.386981","416026.058713","416792.724016","417559.327076","406842.93383","407609.626894","408376.316743","409142.891458","409909.533091","410676.221479","411442.829799","412209.514097","417564.487972"
"Blocked","Male","done","22","M_priest.wav","None","742.796486347","405","420675.882212","412976.108975","413743.0589","414509.936647","415259.386981","416026.058713","416792.724016","417559.327076","421442.552775","407609.626894","408376.316743","409142.891458","409909.533091","410676.221479","411442.829799","412209.514097","420680.863393"
"Blocked","Male","done","22","M_jolt.wav","None","741.372206378","405","420675.882212","412976.108975","413743.0589","414509.936647","415259.386981","416026.058713","416792.724016","417559.327076","421442.552775","422209.213987","408376.316743","409142.891458","409909.533091","410676.221479","411442.829799","412209.514097","421447.943064"
"Blocked","Male","done","22","M_knife.wav","None","740.868126987","405","420675.882212","412976.108975","413743.0589","414509.936647","415259.386981","416026.058713","416792.724016","417559.327076","421442.552775","422209.213987","422975.882796","409142.891458","409909.533091","410676.221479","411442.829799","412209.514097","422214.306796"
"Blocked","Male","done","22","M_jaw.wav","None","739.931854311","405","420675.882212","412976.108975","413743.0589","414509.936647","415259.386981","416026.058713","416792.724016","417559.327076","421442.552775","422209.213987","422975.882796","423742.593978","409909.533091","410676.221479","411442.829799","412209.514097","422981.019438"
"Blocked","Male","done","22","M_done.wav","None","739.376928652","405","420675.882212","412976.108975","413743.0589","414509.936647","415259.386981","416026.058713","416792.724016","417559.327076","421442.552775","422209.213987","422975.882796","423742.593978","424509.137717","410676.221479","411442.829799","412209.514097","423747.741724"
"Blocked","Male","done","22","M_cling.wav","space","565.44119366","405","420675.882212","412976.108975","413743.0589","414509.936647","415259.386981","416026.058713","416792.724016","417559.327076","421442.552775","422209.213987","422975.882796","423742.593978","424509.137717","425275.80302","411442.829799","412209.514097","424514.193415"
