Condition,Talker,Target,Trial,current_stimulus,response_response,response_time_response,subject_nr,time_Audio1,time_Audio10,time_Audio11,time_Audio12,time_Audio13,time_Audio14,time_Audio15,time_Audio16,time_Audio2,time_Audio3,time_Audio4,time_Audio5,time_Audio6,time_Audio7,time_Audio8,time_Audio9,time_response,title
Blocked,Female,done,19,F_bluff.wav,NA,NA,4340,39759.949,NA,NA,NA,NA,NA,NA,NA,NA,NA,NA,NA,NA,NA,NA,NA,NA,Mapping
Blocked,Female,done,19,F_knife.wav,space,0.021934291,4340,39759.949,NA,NA,NA,NA,NA,NA,NA,40527.61858,NA,NA,NA,NA,NA,NA,NA,39769.83145,Mapping
Blocked,Female,done,19,F_depth.wav,space,0.033953082,4340,39759.949,NA,NA,NA,NA,NA,NA,NA,40527.61858,41294.5499,NA,NA,NA,NA,NA,NA,40531.37145,Mapping
Blocked,Female,done,19,F_done.wav,None,734.1311406,4340,39759.949,NA,NA,NA,NA,NA,NA,NA,40527.61858,41294.5499,42061.63476,NA,NA,NA,NA,NA,41297.94731,Mapping
Blocked,Female,done,19,F_park.wav,None,736.2644759,4340,39759.949,NA,NA,NA,NA,NA,NA,NA,40527.61858,41294.5499,42061.63476,42828.7695,NA,NA,NA,NA,42064.4724,Mapping
Blocked,Female,done,19,F_dime.wav,space,394.8461024,4340,39759.949,NA,NA,NA,NA,NA,NA,NA,40527.61858,41294.5499,42061.63476,42828.7695,43596.10315,NA,NA,NA,42831.68375,Mapping
Blocked,Female,done,19,F_lash.wav,None,739.2980185,4340,39759.949,NA,NA,NA,NA,NA,NA,NA,40527.61858,41294.5499,42061.63476,42828.7695,43596.10315,44363.21415,NA,NA,43599.12407,Mapping
Blocked,Female,done,19,F_depth.wav,None,741.0146022,4340,39759.949,NA,NA,NA,NA,NA,NA,NA,40527.61858,41294.5499,42061.63476,42828.7695,43596.10315,44363.21415,45130.50032,NA,44366.23327,Mapping
Blocked,Female,done,19,F_done.wav,None,742.3916551,4340,39759.949,NA,NA,NA,NA,NA,NA,NA,40527.61858,41294.5499,42061.63476,42828.7695,43596.10315,44363.21415,45130.50032,45914.75643,45133.64654,Mapping
Blocked,Female,done,19,F_park.wav,None,726.6425329,4340,39759.949,46681.9741,NA,NA,NA,NA,NA,NA,40527.61858,41294.5499,42061.63476,42828.7695,43596.10315,44363.21415,45130.50032,45914.75643,45917.98017,Mapping
Blocked,Female,done,19,F_done.wav,None,728.7280935,4340,39759.949,46681.9741,47449.02981,NA,NA,NA,NA,NA,40527.61858,41294.5499,42061.63476,42828.7695,43596.10315,44363.21415,45130.50032,45914.75643,46684.73001,Mapping
Blocked,Female,done,19,F_jolt.wav,None,730.6859544,4340,39759.949,46681.9741,47449.02981,48216.08162,NA,NA,NA,NA,40527.61858,41294.5499,42061.63476,42828.7695,43596.10315,44363.21415,45130.50032,45914.75643,47452.06426,Mapping
Blocked,Female,done,19,F_depth.wav,space,389.6765203,4340,39759.949,46681.9741,47449.02981,48216.08162,48983.41137,NA,NA,NA,40527.61858,41294.5499,42061.63476,42828.7695,43596.10315,44363.21415,45130.50032,45914.75643,48218.86908,Mapping
Blocked,Female,done,19,F_knife.wav,None,733.6984642,4340,39759.949,46681.9741,47449.02981,48216.08162,48983.41137,49750.55902,NA,NA,40527.61858,41294.5499,42061.63476,42828.7695,43596.10315,44363.21415,45130.50032,45914.75643,48986.24119,Mapping
Blocked,Female,done,19,F_done.wav,None,735.2542966,4340,39759.949,46681.9741,47449.02981,48216.08162,48983.41137,49750.55902,50517.80704,NA,40527.61858,41294.5499,42061.63476,42828.7695,43596.10315,44363.21415,45130.50032,45914.75643,49753.3612,Mapping
Blocked,Female,done,19,F_cad.wav,space,391.829987,4340,39759.949,46681.9741,47449.02981,48216.08162,48983.41137,49750.55902,50517.80704,51285.41502,40527.61858,41294.5499,42061.63476,42828.7695,43596.10315,44363.21415,45130.50032,45914.75643,50520.68945,Mapping
Blocked,Female,cave,10,F_jolt.wav,None,737.8761956,4340,54454.42144,46681.9741,47449.02981,48216.08162,48983.41137,49750.55902,50517.80704,51285.41502,40527.61858,41294.5499,42061.63476,42828.7695,43596.10315,44363.21415,45130.50032,45914.75643,51288.68443,Mapping
Blocked,Female,cave,10,F_cave.wav,None,731.2880958,4340,54454.42144,46681.9741,47449.02981,48216.08162,48983.41137,49750.55902,50517.80704,51285.41502,55221.19502,41294.5499,42061.63476,42828.7695,43596.10315,44363.21415,45130.50032,45914.75643,54457.76838,Mapping
Blocked,Female,cave,10,F_knife.wav,space,617.40435,4340,54454.42144,46681.9741,47449.02981,48216.08162,48983.41137,49750.55902,50517.80704,51285.41502,55221.19502,55988.8048,42061.63476,42828.7695,43596.10315,44363.21415,45130.50032,45914.75643,55224.10867,Mapping
Blocked,Female,cave,10,F_cad.wav,None,735.0085123,4340,54454.42144,46681.9741,47449.02981,48216.08162,48983.41137,49750.55902,50517.80704,51285.41502,55221.19502,55988.8048,56755.95276,42828.7695,43596.10315,44363.21415,45130.50032,45914.75643,55991.75541,Mapping
Blocked,Female,cave,10,F_cling.wav,None,736.1656213,4340,54454.42144,46681.9741,47449.02981,48216.08162,48983.41137,49750.55902,50517.80704,51285.41502,55221.19502,55988.8048,56755.95276,57522.81888,43596.10315,44363.21415,45130.50032,45914.75643,56759.50221,Mapping
Blocked,Female,cave,10,F_depth.wav,None,739.0351075,4340,54454.42144,46681.9741,47449.02981,48216.08162,48983.41137,49750.55902,50517.80704,51285.41502,55221.19502,55988.8048,56755.95276,57522.81888,58290.03955,44363.21415,45130.50032,45914.75643,57525.62917,Mapping
Blocked,Female,cave,10,F_priest.wav,None,740.937682,4340,54454.42144,46681.9741,47449.02981,48216.08162,48983.41137,49750.55902,50517.80704,51285.41502,55221.19502,55988.8048,56755.95276,57522.81888,58290.03955,59057.3086,45130.50032,45914.75643,58292.59775,Mapping
Blocked,Female,cave,10,F_priest.wav,None,742.4667726,4340,54454.42144,46681.9741,47449.02981,48216.08162,48983.41137,49750.55902,50517.80704,51285.41502,55221.19502,55988.8048,56755.95276,57522.81888,58290.03955,59057.3086,59841.61128,45914.75643,59059.85658,Mapping
Blocked,Female,cave,10,F_romp.wav,None,726.810796,4340,54454.42144,46681.9741,47449.02981,48216.08162,48983.41137,49750.55902,50517.80704,51285.41502,55221.19502,55988.8048,56755.95276,57522.81888,58290.03955,59057.3086,59841.61128,60608.65287,59844.31821,Mapping
Blocked,Female,cave,10,F_depth.wav,None,728.4937271,4340,54454.42144,61376.00935,47449.02981,48216.08162,48983.41137,49750.55902,50517.80704,51285.41502,55221.19502,55988.8048,56755.95276,57522.81888,58290.03955,59057.3086,59841.61128,60608.65287,60611.67169,Mapping
Blocked,Female,cave,10,F_cave.wav,None,729.7629113,4340,54454.42144,61376.00935,62142.85564,48216.08162,48983.41137,49750.55902,50517.80704,51285.41502,55221.19502,55988.8048,56755.95276,57522.81888,58290.03955,59057.3086,59841.61128,60608.65287,61378.94314,Mapping
Blocked,Female,cave,10,F_reek.wav,space,389.9532529,4340,54454.42144,61376.00935,62142.85564,62910.1343,48983.41137,49750.55902,50517.80704,51285.41502,55221.19502,55988.8048,56755.95276,57522.81888,58290.03955,59057.3086,59841.61128,60608.65287,62145.61546,Mapping
Blocked,Female,cave,10,F_cave.wav,None,732.9785386,4340,54454.42144,61376.00935,62142.85564,62910.1343,63677.25312,49750.55902,50517.80704,51285.41502,55221.19502,55988.8048,56755.95276,57522.81888,58290.03955,59057.3086,59841.61128,60608.65287,62913.03834,Mapping
Blocked,Female,cave,10,F_lash.wav,space,531.5346012,4340,54454.42144,61376.00935,62142.85564,62910.1343,63677.25312,64444.87311,50517.80704,51285.41502,55221.19502,55988.8048,56755.95276,57522.81888,58290.03955,59057.3086,59841.61128,60608.65287,63680.03066,Mapping
Blocked,Female,cave,10,F_cave.wav,None,735.4105408,4340,54454.42144,61376.00935,62142.85564,62910.1343,63677.25312,64444.87311,65212.17732,51285.41502,55221.19502,55988.8048,56755.95276,57522.81888,58290.03955,59057.3086,59841.61128,60608.65287,64448.19962,Mapping
Blocked,Female,cave,10,F_jaw.wav,None,737.4558385,4340,54454.42144,61376.00935,62142.85564,62910.1343,63677.25312,64444.87311,65212.17732,65979.33069,55221.19502,55988.8048,56755.95276,57522.81888,58290.03955,59057.3086,59841.61128,60608.65287,65215.48339,Mapping
Blocked,Female,tile,15,F_bluff.wav,None,739.0912953,4340,69115.04656,61376.00935,62142.85564,62910.1343,63677.25312,64444.87311,65212.17732,65979.33069,55221.19502,55988.8048,56755.95276,57522.81888,58290.03955,59057.3086,59841.61128,60608.65287,65982.70676,Mapping
Blocked,Female,tile,15,F_jaw.wav,space,0.034854491,4340,69115.04656,61376.00935,62142.85564,62910.1343,63677.25312,64444.87311,65212.17732,65979.33069,69881.81894,55988.8048,56755.95276,57522.81888,58290.03955,59057.3086,59841.61128,60608.65287,69118.23755,Mapping
Blocked,Female,tile,15,F_cling.wav,None,733.6912529,4340,69115.04656,61376.00935,62142.85564,62910.1343,63677.25312,64444.87311,65212.17732,65979.33069,69881.81894,70649.03991,56755.95276,57522.81888,58290.03955,59057.3086,59841.61128,60608.65287,69884.96636,Mapping
Blocked,Female,tile,15,F_tile.wav,None,736.4435559,4340,69115.04656,61376.00935,62142.85564,62910.1343,63677.25312,64444.87311,65212.17732,65979.33069,69881.81894,70649.03991,71416.2708,57522.81888,58290.03955,59057.3086,59841.61128,60608.65287,70651.62605,Mapping
Blocked,Female,tile,15,F_jaw.wav,space,323.1212678,4340,69115.04656,61376.00935,62142.85564,62910.1343,63677.25312,64444.87311,65212.17732,65979.33069,69881.81894,70649.03991,71416.2708,72183.39742,58290.03955,59057.3086,59841.61128,60608.65287,71419.39118,Mapping
Blocked,Female,tile,15,F_tile.wav,None,740.6816817,4340,69115.04656,61376.00935,62142.85564,62910.1343,63677.25312,64444.87311,65212.17732,65979.33069,69881.81894,70649.03991,71416.2708,72183.39742,72950.7497,59057.3086,59841.61128,60608.65287,72186.02473,Mapping
Blocked,Female,tile,15,F_knife.wav,space,428.9809688,4340,69115.04656,61376.00935,62142.85564,62910.1343,63677.25312,64444.87311,65212.17732,65979.33069,69881.81894,70649.03991,71416.2708,72183.39742,72950.7497,73734.92739,59841.61128,60608.65287,72953.59876,Mapping
Blocked,Female,tile,15,F_cad.wav,None,726.8498571,4340,69115.04656,61376.00935,62142.85564,62910.1343,63677.25312,64444.87311,65212.17732,65979.33069,69881.81894,70649.03991,71416.2708,72183.39742,72950.7497,73734.92739,74502.11921,60608.65287,73737.65565,Mapping
Blocked,Female,tile,15,F_cad.wav,space,216.5650778,4340,69115.04656,61376.00935,62142.85564,62910.1343,63677.25312,64444.87311,65212.17732,65979.33069,69881.81894,70649.03991,71416.2708,72183.39742,72950.7497,73734.92739,74502.11921,75269.43724,74504.97428,Mapping
Blocked,Female,tile,15,F_tile.wav,None,730.4095222,4340,69115.04656,76036.16244,62142.85564,62910.1343,63677.25312,64444.87311,65212.17732,65979.33069,69881.81894,70649.03991,71416.2708,72183.39742,72950.7497,73734.92739,74502.11921,75269.43724,75272.13726,Mapping
Blocked,Female,tile,15,F_bluff.wav,space,433.3969728,4340,69115.04656,76036.16244,76803.91013,62910.1343,63677.25312,64444.87311,65212.17732,65979.33069,69881.81894,70649.03991,71416.2708,72183.39742,72950.7497,73734.92739,74502.11921,75269.43724,76039.13558,Mapping
Blocked,Female,tile,15,F_greet.wav,None,732.6939938,4340,69115.04656,76036.16244,76803.91013,77571.02985,63677.25312,64444.87311,65212.17732,65979.33069,69881.81894,70649.03991,71416.2708,72183.39742,72950.7497,73734.92739,74502.11921,75269.43724,76807.33789,Mapping
Blocked,Female,tile,15,F_knife.wav,None,734.3075164,4340,69115.04656,76036.16244,76803.91013,77571.02985,78337.9173,64444.87311,65212.17732,65979.33069,69881.81894,70649.03991,71416.2708,72183.39742,72950.7497,73734.92739,74502.11921,75269.43724,77574.33471,Mapping
Blocked,Female,tile,15,F_cad.wav,None,737.2295847,4340,69115.04656,76036.16244,76803.91013,77571.02985,78337.9173,79105.2221,65212.17732,65979.33069,69881.81894,70649.03991,71416.2708,72183.39742,72950.7497,73734.92739,74502.11921,75269.43724,78340.49293,Mapping
Blocked,Female,tile,15,F_tile.wav,None,738.8776613,4340,69115.04656,76036.16244,76803.91013,77571.02985,78337.9173,79105.2221,79872.44007,65979.33069,69881.81894,70649.03991,71416.2708,72183.39742,72950.7497,73734.92739,74502.11921,75269.43724,79107.96509,Mapping
Blocked,Female,tile,15,F_romp.wav,None,740.4052496,4340,69115.04656,76036.16244,76803.91013,77571.02985,78337.9173,79105.2221,79872.44007,80639.698,69881.81894,70649.03991,71416.2708,72183.39742,72950.7497,73734.92739,74502.11921,75269.43724,79875.04815,Mapping
Blocked,Female,done,21,F_dime.wav,space,70.12964068,4340,83792.26302,76036.16244,76803.91013,77571.02985,78337.9173,79105.2221,79872.44007,80639.698,69881.81894,70649.03991,71416.2708,72183.39742,72950.7497,73734.92739,74502.11921,75269.43724,80642.40223,Mapping
Blocked,Female,done,21,F_done.wav,space,0.04927704,4340,83792.26302,76036.16244,76803.91013,77571.02985,78337.9173,79105.2221,79872.44007,80639.698,84559.11803,70649.03991,71416.2708,72183.39742,72950.7497,73734.92739,74502.11921,75269.43724,83795.34404,Mapping
Blocked,Female,done,21,F_jolt.wav,space,695.636458,4340,83792.26302,76036.16244,76803.91013,77571.02985,78337.9173,79105.2221,79872.44007,80639.698,84559.11803,85326.28942,71416.2708,72183.39742,72950.7497,73734.92739,74502.11921,75269.43724,84561.92531,Mapping
Blocked,Female,done,21,F_reek.wav,None,735.7834238,4340,83792.26302,76036.16244,76803.91013,77571.02985,78337.9173,79105.2221,79872.44007,80639.698,84559.11803,85326.28942,86093.62187,72183.39742,72950.7497,73734.92739,74502.11921,75269.43724,85328.80676,Mapping
Blocked,Female,done,21,F_done.wav,None,737.0447958,4340,83792.26302,76036.16244,76803.91013,77571.02985,78337.9173,79105.2221,79872.44007,80639.698,84559.11803,85326.28942,86093.62187,86860.74098,72950.7497,73734.92739,74502.11921,75269.43724,86096.50097,Mapping
Blocked,Female,done,21,F_reek.wav,space,421.2832342,4340,83792.26302,76036.16244,76803.91013,77571.02985,78337.9173,79105.2221,79872.44007,80639.698,84559.11803,85326.28942,86093.62187,86860.74098,87627.99771,73734.92739,74502.11921,75269.43724,86863.25832,Mapping
Blocked,Female,done,21,F_cad.wav,None,740.2700382,4340,83792.26302,76036.16244,76803.91013,77571.02985,78337.9173,79105.2221,79872.44007,80639.698,84559.11803,85326.28942,86093.62187,86860.74098,87627.99771,88395.20006,74502.11921,75269.43724,87630.81792,Mapping
Blocked,Female,done,21,F_lash.wav,None,742.1425657,4340,83792.26302,76036.16244,76803.91013,77571.02985,78337.9173,79105.2221,79872.44007,80639.698,84559.11803,85326.28942,86093.62187,86860.74098,87627.99771,88395.20006,89179.49883,75269.43724,88398.20325,Mapping
Blocked,Female,done,21,F_done.wav,None,727.1362047,4340,83792.26302,76036.16244,76803.91013,77571.02985,78337.9173,79105.2221,79872.44007,80639.698,84559.11803,85326.28942,86093.62187,86860.74098,87627.99771,88395.20006,89179.49883,89946.64799,89182.28809,Mapping
Blocked,Female,done,21,F_knife.wav,space,341.0169459,4340,83792.26302,90714.01379,76803.91013,77571.02985,78337.9173,79105.2221,79872.44007,80639.698,84559.11803,85326.28942,86093.62187,86860.74098,87627.99771,88395.20006,89179.49883,89946.64799,89949.54722,Mapping
Blocked,Female,done,21,F_romp.wav,None,730.2274376,4340,83792.26302,90714.01379,91480.80719,77571.02985,78337.9173,79105.2221,79872.44007,80639.698,84559.11803,85326.28942,86093.62187,86860.74098,87627.99771,88395.20006,89179.49883,89946.64799,90717.0936,Mapping
Blocked,Female,done,21,F_done.wav,None,733.0251115,4340,83792.26302,90714.01379,91480.80719,92248.13904,78337.9173,79105.2221,79872.44007,80639.698,84559.11803,85326.28942,86093.62187,86860.74098,87627.99771,88395.20006,89179.49883,89946.64799,91483.53095,Mapping
Blocked,Female,done,21,F_romp.wav,space,500.5165075,4340,83792.26302,90714.01379,91480.80719,92248.13904,93015.22661,79105.2221,79872.44007,80639.698,84559.11803,85326.28942,86093.62187,86860.74098,87627.99771,88395.20006,89179.49883,89946.64799,92251.04579,Mapping
Blocked,Female,done,21,F_jaw.wav,None,734.6281176,4340,83792.26302,90714.01379,91480.80719,92248.13904,93015.22661,93782.49776,79872.44007,80639.698,84559.11803,85326.28942,86093.62187,86860.74098,87627.99771,88395.20006,89179.49883,89946.64799,93019.1916,Mapping
Blocked,Female,done,21,F_bluff.wav,None,736.8588051,4340,83792.26302,90714.01379,91480.80719,92248.13904,93015.22661,93782.49776,94549.72714,80639.698,84559.11803,85326.28942,86093.62187,86860.74098,87627.99771,88395.20006,89179.49883,89946.64799,93785.58929,Mapping
Blocked,Female,done,21,F_cling.wav,None,739.2412297,4340,83792.26302,90714.01379,91480.80719,92248.13904,93015.22661,93782.49776,94549.72714,95316.89253,84559.11803,85326.28942,86093.62187,86860.74098,87627.99771,88395.20006,89179.49883,89946.64799,94552.5149,Mapping
Blocked,Female,tile,16,F_lash.wav,None,741.1582268,4340,98469.69582,90714.01379,91480.80719,92248.13904,93015.22661,93782.49776,94549.72714,95316.89253,84559.11803,85326.28942,86093.62187,86860.74098,87627.99771,88395.20006,89179.49883,89946.64799,95319.76142,Mapping
Blocked,Female,tile,16,F_jolt.wav,space,0.035455432,4340,98469.69582,90714.01379,91480.80719,92248.13904,93015.22661,93782.49776,94549.72714,95316.89253,99236.75454,85326.28942,86093.62187,86860.74098,87627.99771,88395.20006,89179.49883,89946.64799,98472.83904,Mapping
Blocked,Female,tile,16,F_tile.wav,None,733.3571305,4340,98469.69582,90714.01379,91480.80719,92248.13904,93015.22661,93782.49776,94549.72714,95316.89253,99236.75454,100003.5813,86093.62187,86860.74098,87627.99771,88395.20006,89179.49883,89946.64799,99239.80641,Mapping
Blocked,Female,tile,16,F_park.wav,space,393.265331,4340,98469.69582,90714.01379,91480.80719,92248.13904,93015.22661,93782.49776,94549.72714,95316.89253,99236.75454,100003.5813,100770.8954,86860.74098,87627.99771,88395.20006,89179.49883,89946.64799,100006.3009,Mapping
Blocked,Female,tile,16,F_tile.wav,None,737.1586739,4340,98469.69582,90714.01379,91480.80719,92248.13904,93015.22661,93782.49776,94549.72714,95316.89253,99236.75454,100003.5813,100770.8954,101538.1146,87627.99771,88395.20006,89179.49883,89946.64799,100773.6856,Mapping
Blocked,Female,tile,16,F_cling.wav,space,550.6471818,4340,98469.69582,90714.01379,91480.80719,92248.13904,93015.22661,93782.49776,94549.72714,95316.89253,99236.75454,100003.5813,100770.8954,101538.1146,102305.7742,88395.20006,89179.49883,89946.64799,101540.9264,Mapping
Blocked,Female,tile,16,F_greet.wav,None,739.4617745,4340,98469.69582,90714.01379,91480.80719,92248.13904,93015.22661,93782.49776,94549.72714,95316.89253,99236.75454,100003.5813,100770.8954,101538.1146,102305.7742,103090.104,89179.49883,89946.64799,102309.1801,Mapping
Blocked,Female,tile,16,F_jolt.wav,None,723.7381923,4340,98469.69582,90714.01379,91480.80719,92248.13904,93015.22661,93782.49776,94549.72714,95316.89253,99236.75454,100003.5813,100770.8954,101538.1146,102305.7742,103090.104,103856.7829,89946.64799,103093.7691,Mapping
Blocked,Female,tile,16,F_tile.wav,None,727.1196789,4340,98469.69582,90714.01379,91480.80719,92248.13904,93015.22661,93782.49776,94549.72714,95316.89253,99236.75454,100003.5813,100770.8954,101538.1146,102305.7742,103090.104,103856.7829,104624.0141,103859.6959,Mapping
Blocked,Female,tile,16,F_greet.wav,space,698.4888174,4340,98469.69582,105391.6224,91480.80719,92248.13904,93015.22661,93782.49776,94549.72714,95316.89253,99236.75454,100003.5813,100770.8954,101538.1146,102305.7742,103090.104,103856.7829,104624.0141,104627.0888,Mapping
Blocked,Female,tile,16,F_greet.wav,None,729.6213901,4340,98469.69582,105391.6224,106158.0874,92248.13904,93015.22661,93782.49776,94549.72714,95316.89253,99236.75454,100003.5813,100770.8954,101538.1146,102305.7742,103090.104,103856.7829,104624.0141,105395.3809,Mapping
Blocked,Female,tile,16,F_park.wav,None,733.6101261,4340,98469.69582,105391.6224,106158.0874,106925.3249,93015.22661,93782.49776,94549.72714,95316.89253,99236.75454,100003.5813,100770.8954,101538.1146,102305.7742,103090.104,103856.7829,104624.0141,106160.9761,Mapping
Blocked,Female,tile,16,F_tile.wav,None,735.5794048,4340,98469.69582,105391.6224,106158.0874,106925.3249,107692.6366,93782.49776,94549.72714,95316.89253,99236.75454,100003.5813,100770.8954,101538.1146,102305.7742,103090.104,103856.7829,104624.0141,106928.0336,Mapping
Blocked,Female,tile,16,F_greet.wav,None,737.5060169,4340,98469.69582,105391.6224,106158.0874,106925.3249,107692.6366,108459.716,94549.72714,95316.89253,99236.75454,100003.5813,100770.8954,101538.1146,102305.7742,103090.104,103856.7829,104624.0141,107695.3252,Mapping
Blocked,Female,tile,16,F_reek.wav,None,739.5639343,4340,98469.69582,105391.6224,106158.0874,106925.3249,107692.6366,108459.716,109226.9403,95316.89253,99236.75454,100003.5813,100770.8954,101538.1146,102305.7742,103090.104,103856.7829,104624.0141,108462.7757,Mapping
Blocked,Female,tile,16,F_priest.wav,None,741.3051565,4340,98469.69582,105391.6224,106158.0874,106925.3249,107692.6366,108459.716,109226.9403,110011.3427,99236.75454,100003.5813,100770.8954,101538.1146,102305.7742,103090.104,103856.7829,104624.0141,109229.8732,Mapping
Blocked,Female,cave,8,F_priest.wav,None,726.1924292,4340,113146.8444,105391.6224,106158.0874,106925.3249,107692.6366,108459.716,109226.9403,110011.3427,99236.75454,100003.5813,100770.8954,101538.1146,102305.7742,103090.104,103856.7829,104624.0141,110014.2858,Mapping
Blocked,Female,cave,8,F_cave.wav,space,0.035755902,4340,113146.8444,105391.6224,106158.0874,106925.3249,107692.6366,108459.716,109226.9403,110011.3427,113913.7114,100003.5813,100770.8954,101538.1146,102305.7742,103090.104,103856.7829,104624.0141,113150.3815,Mapping
Blocked,Female,cave,8,F_bluff.wav,None,733.6663139,4340,113146.8444,105391.6224,106158.0874,106925.3249,107692.6366,108459.716,109226.9403,110011.3427,113913.7114,114680.9603,100770.8954,101538.1146,102305.7742,103090.104,103856.7829,104624.0141,113916.5836,Mapping
Blocked,Female,cave,8,F_greet.wav,None,735.9679122,4340,113146.8444,105391.6224,106158.0874,106925.3249,107692.6366,108459.716,109226.9403,110011.3427,113913.7114,114680.9603,115448.2771,101538.1146,102305.7742,103090.104,103856.7829,104624.0141,114683.6988,Mapping
Blocked,Female,cave,8,F_knife.wav,None,738.0880268,4340,113146.8444,105391.6224,106158.0874,106925.3249,107692.6366,108459.716,109226.9403,110011.3427,113913.7114,114680.9603,115448.2771,116215.8524,102305.7742,103090.104,103856.7829,104624.0141,115451.1499,Mapping
Blocked,Female,cave,8,F_cave.wav,None,738.9927413,4340,113146.8444,105391.6224,106158.0874,106925.3249,107692.6366,108459.716,109226.9403,110011.3427,113913.7114,114680.9603,115448.2771,116215.8524,116982.9922,103090.104,103856.7829,104624.0141,116219.492,Mapping
Blocked,Female,cave,8,F_cad.wav,None,741.5061707,4340,113146.8444,105391.6224,106158.0874,106925.3249,107692.6366,108459.716,109226.9403,110011.3427,113913.7114,114680.9603,115448.2771,116215.8524,116982.9922,117766.6912,103856.7829,104624.0141,116986.1757,Mapping
Blocked,Female,cave,8,F_cave.wav,space,276.7290382,4340,113146.8444,105391.6224,106158.0874,106925.3249,107692.6366,108459.716,109226.9403,110011.3427,113913.7114,114680.9603,115448.2771,116215.8524,116982.9922,117766.6912,118534.0474,104624.0141,117769.8891,Mapping
Blocked,Female,cave,8,F_jolt.wav,None,728.921596,4340,113146.8444,105391.6224,106158.0874,106925.3249,107692.6366,108459.716,109226.9403,110011.3427,113913.7114,114680.9603,115448.2771,116215.8524,116982.9922,117766.6912,118534.0474,119300.9778,118537.0717,Mapping
Blocked,Female,cave,8,F_reek.wav,None,731.2998141,4340,113146.8444,120068.2352,106158.0874,106925.3249,107692.6366,108459.716,109226.9403,110011.3427,113913.7114,114680.9603,115448.2771,116215.8524,116982.9922,117766.6912,118534.0474,119300.9778,119303.9303,Mapping
Blocked,Female,cave,8,F_bluff.wav,None,734.2360046,4340,113146.8444,120068.2352,120835.3973,106925.3249,107692.6366,108459.716,109226.9403,110011.3427,113913.7114,114680.9603,115448.2771,116215.8524,116982.9922,117766.6912,118534.0474,119300.9778,120071.0966,Mapping
Blocked,Female,cave,8,F_bluff.wav,None,736.0244005,4340,113146.8444,120068.2352,120835.3973,121602.596,107692.6366,108459.716,109226.9403,110011.3427,113913.7114,114680.9603,115448.2771,116215.8524,116982.9922,117766.6912,118534.0474,119300.9778,120838.2286,Mapping
Blocked,Female,cave,8,F_park.wav,None,738.3866938,4340,113146.8444,120068.2352,120835.3973,121602.596,122369.9423,108459.716,109226.9403,110011.3427,113913.7114,114680.9603,115448.2771,116215.8524,116982.9922,117766.6912,118534.0474,119300.9778,121605.3609,Mapping
Blocked,Female,cave,8,F_greet.wav,None,739.8734181,4340,113146.8444,120068.2352,120835.3973,121602.596,122369.9423,123137.0803,109226.9403,110011.3427,113913.7114,114680.9603,115448.2771,116215.8524,116982.9922,117766.6912,118534.0474,119300.9778,122373.0407,Mapping
Blocked,Female,cave,8,F_cave.wav,None,742.1672042,4340,113146.8444,120068.2352,120835.3973,121602.596,122369.9423,123137.0803,123921.2883,110011.3427,113913.7114,114680.9603,115448.2771,116215.8524,116982.9922,117766.6912,118534.0474,119300.9778,123139.9345,Mapping
Blocked,Female,cave,8,F_cad.wav,None,726.9808619,4340,113146.8444,120068.2352,120835.3973,121602.596,122369.9423,123137.0803,123921.2883,124688.6166,113913.7114,114680.9603,115448.2771,116215.8524,116982.9922,117766.6912,118534.0474,119300.9778,123924.4914,Mapping
Blocked,Female,ball,5,F_depth.wav,None,728.8897462,4340,127824.3346,120068.2352,120835.3973,121602.596,122369.9423,123137.0803,123921.2883,124688.6166,113913.7114,114680.9603,115448.2771,116215.8524,116982.9922,117766.6912,118534.0474,119300.9778,124691.9329,Mapping
Blocked,Female,ball,5,F_ball.wav,space,0.0357559,4340,127824.3346,120068.2352,120835.3973,121602.596,122369.9423,123137.0803,123921.2883,124688.6166,128591.0922,114680.9603,115448.2771,116215.8524,116982.9922,117766.6912,118534.0474,119300.9778,127827.573,Mapping
Blocked,Female,ball,5,F_cling.wav,space,339.6762498,4340,127824.3346,120068.2352,120835.3973,121602.596,122369.9423,123137.0803,123921.2883,124688.6166,128591.0922,129358.6759,115448.2771,116215.8524,116982.9922,117766.6912,118534.0474,119300.9778,128593.9329,Mapping
Blocked,Female,ball,5,F_bluff.wav,None,733.5963045,4340,127824.3346,120068.2352,120835.3973,121602.596,122369.9423,123137.0803,123921.2883,124688.6166,128591.0922,129358.6759,130125.6934,116215.8524,116982.9922,117766.6912,118534.0474,119300.9778,129362.1451,Mapping
Blocked,Female,ball,5,F_ball.wav,None,735.8438182,4340,127824.3346,120068.2352,120835.3973,121602.596,122369.9423,123137.0803,123921.2883,124688.6166,128591.0922,129358.6759,130125.6934,130892.6407,116982.9922,117766.6912,118534.0474,119300.9778,130129.348,Mapping
Blocked,Female,ball,5,F_bluff.wav,space,358.2155342,4340,127824.3346,120068.2352,120835.3973,121602.596,122369.9423,123137.0803,123921.2883,124688.6166,128591.0922,129358.6759,130125.6934,130892.6407,131659.9578,117766.6912,118534.0474,119300.9778,130895.3677,Mapping
Blocked,Female,ball,5,F_bluff.wav,None,739.4230139,4340,127824.3346,120068.2352,120835.3973,121602.596,122369.9423,123137.0803,123921.2883,124688.6166,128591.0922,129358.6759,130125.6934,130892.6407,131659.9578,132427.1574,118534.0474,119300.9778,131663.2822,Mapping
Blocked,Female,ball,5,F_depth.wav,None,741.6795418,4340,127824.3346,120068.2352,120835.3973,121602.596,122369.9423,123137.0803,123921.2883,124688.6166,128591.0922,129358.6759,130125.6934,130892.6407,131659.9578,132427.1574,133211.4358,119300.9778,132430.4331,Mapping
Blocked,Female,ball,5,F_gnash.wav,None,727.0076037,4340,127824.3346,120068.2352,120835.3973,121602.596,122369.9423,123137.0803,123921.2883,124688.6166,128591.0922,129358.6759,130125.6934,130892.6407,131659.9578,132427.1574,133211.4358,133978.6525,133214.5504,Mapping
Blocked,Female,ball,5,F_ball.wav,None,729.3155119,4340,127824.3346,134745.5571,120835.3973,121602.596,122369.9423,123137.0803,123921.2883,124688.6166,128591.0922,129358.6759,130125.6934,130892.6407,131659.9578,132427.1574,133211.4358,133978.6525,133981.6431,Mapping
Blocked,Female,ball,5,F_dime.wav,space,375.324282,4340,127824.3346,134745.5571,135513.077,121602.596,122369.9423,123137.0803,123921.2883,124688.6166,128591.0922,129358.6759,130125.6934,130892.6407,131659.9578,132427.1574,133211.4358,133978.6525,134748.2724,Mapping
Blocked,Female,ball,5,F_greet.wav,None,732.9196466,4340,127824.3346,134745.5571,135513.077,136280.3629,122369.9423,123137.0803,123921.2883,124688.6166,128591.0922,129358.6759,130125.6934,130892.6407,131659.9578,132427.1574,133211.4358,133978.6525,135516.5496,Mapping
Blocked,Female,ball,5,F_ball.wav,None,734.6629721,4340,127824.3346,134745.5571,135513.077,136280.3629,137047.1614,123137.0803,123921.2883,124688.6166,128591.0922,129358.6759,130125.6934,130892.6407,131659.9578,132427.1574,133211.4358,133978.6525,136283.7096,Mapping
Blocked,Female,ball,5,F_reek.wav,None,738.2145246,4340,127824.3346,134745.5571,135513.077,136280.3629,137047.1614,137814.502,123921.2883,124688.6166,128591.0922,129358.6759,130125.6934,130892.6407,131659.9578,132427.1574,133211.4358,133978.6525,137050.0312,Mapping
Blocked,Female,ball,5,F_reek.wav,space,61.35712573,4340,127824.3346,134745.5571,135513.077,136280.3629,137047.1614,137814.502,138582.0418,124688.6166,128591.0922,129358.6759,130125.6934,130892.6407,131659.9578,132427.1574,133211.4358,133978.6525,137817.2375,Mapping
Blocked,Female,ball,5,F_jolt.wav,None,741.5016637,4340,127824.3346,134745.5571,135513.077,136280.3629,137047.1614,137814.502,138582.0418,139366.3964,128591.0922,129358.6759,130125.6934,130892.6407,131659.9578,132427.1574,133211.4358,133978.6525,138585.0065,Mapping
Blocked,Female,tile,13,F_reek.wav,None,725.4619873,4340,142501.6499,134745.5571,135513.077,136280.3629,137047.1614,137814.502,138582.0418,139366.3964,128591.0922,129358.6759,130125.6934,130892.6407,131659.9578,132427.1574,133211.4358,133978.6525,139370.2442,Mapping
Blocked,Female,tile,13,F_dime.wav,space,0.035455432,4340,142501.6499,134745.5571,135513.077,136280.3629,137047.1614,137814.502,138582.0418,139366.3964,143268.4132,129358.6759,130125.6934,130892.6407,131659.9578,132427.1574,133211.4358,133978.6525,142504.8364,Mapping
Blocked,Female,tile,13,F_knife.wav,None,733.5449241,4340,142501.6499,134745.5571,135513.077,136280.3629,137047.1614,137814.502,138582.0418,139366.3964,143268.4132,144035.6444,130125.6934,130892.6407,131659.9578,132427.1574,133211.4358,133978.6525,143271.1181,Mapping
Blocked,Female,tile,13,F_tile.wav,None,735.3744845,4340,142501.6499,134745.5571,135513.077,136280.3629,137047.1614,137814.502,138582.0418,139366.3964,143268.4132,144035.6444,144802.8855,130892.6407,131659.9578,132427.1574,133211.4358,133978.6525,144038.2534,Mapping
Blocked,Female,tile,13,F_jolt.wav,None,736.7990116,4340,142501.6499,134745.5571,135513.077,136280.3629,137047.1614,137814.502,138582.0418,139366.3964,143268.4132,144035.6444,144802.8855,145570.0443,131659.9578,132427.1574,133211.4358,133978.6525,144806.2355,Mapping
Blocked,Female,tile,13,F_dime.wav,space,210.5797203,4340,142501.6499,134745.5571,135513.077,136280.3629,137047.1614,137814.502,138582.0418,139366.3964,143268.4132,144035.6444,144802.8855,145570.0443,146337.3233,132427.1574,133211.4358,133978.6525,145573.022,Mapping
Blocked,Female,tile,13,F_reek.wav,None,740.2273715,4340,142501.6499,134745.5571,135513.077,136280.3629,137047.1614,137814.502,138582.0418,139366.3964,143268.4132,144035.6444,144802.8855,145570.0443,146337.3233,147104.4274,133211.4358,133978.6525,146340.6846,Mapping
Blocked,Female,tile,13,F_jaw.wav,None,742.8799185,4340,142501.6499,134745.5571,135513.077,136280.3629,137047.1614,137814.502,138582.0418,139366.3964,143268.4132,144035.6444,144802.8855,145570.0443,146337.3233,147104.4274,147888.7619,133978.6525,147107.4934,Mapping
Blocked,Female,tile,13,F_tile.wav,None,727.9426656,4340,142501.6499,134745.5571,135513.077,136280.3629,137047.1614,137814.502,138582.0418,139366.3964,143268.4132,144035.6444,144802.8855,145570.0443,146337.3233,147104.4274,147888.7619,148655.8561,147891.5004,Mapping
Blocked,Female,tile,13,F_priest.wav,space,480.4877946,4340,142501.6499,149422.8956,135513.077,136280.3629,137047.1614,137814.502,138582.0418,139366.3964,143268.4132,144035.6444,144802.8855,145570.0443,146337.3233,147104.4274,147888.7619,148655.8561,148659.1026,Mapping
Blocked,Female,tile,13,F_tile.wav,None,731.8003967,4340,142501.6499,149422.8956,150190.1469,136280.3629,137047.1614,137814.502,138582.0418,139366.3964,143268.4132,144035.6444,144802.8855,145570.0443,146337.3233,147104.4274,147888.7619,148655.8561,149425.9886,Mapping
Blocked,Female,tile,13,F_jolt.wav,None,734.3237417,4340,142501.6499,149422.8956,150190.1469,150957.278,137047.1614,137814.502,138582.0418,139366.3964,143268.4132,144035.6444,144802.8855,145570.0443,146337.3233,147104.4274,147888.7619,148655.8561,150192.8631,Mapping
Blocked,Female,tile,13,F_cling.wav,space,0.018328656,4340,142501.6499,149422.8956,150190.1469,150957.278,151724.5519,137814.502,138582.0418,139366.3964,143268.4132,144035.6444,144802.8855,145570.0443,146337.3233,147104.4274,147888.7619,148655.8561,150960.0045,Mapping
Blocked,Female,tile,13,F_tile.wav,None,737.9185619,4340,142501.6499,149422.8956,150190.1469,150957.278,151724.5519,152491.7163,138582.0418,139366.3964,143268.4132,144035.6444,144802.8855,145570.0443,146337.3233,147104.4274,147888.7619,148655.8561,151727.2885,Mapping
Blocked,Female,tile,13,F_reek.wav,space,294.0631383,4340,142501.6499,149422.8956,150190.1469,150957.278,151724.5519,152491.7163,153259.0278,139366.3964,143268.4132,144035.6444,144802.8855,145570.0443,146337.3233,147104.4274,147888.7619,148655.8561,152494.5032,Mapping
Blocked,Female,tile,13,F_cling.wav,None,741.7393353,4340,142501.6499,149422.8956,150190.1469,150957.278,151724.5519,152491.7163,153259.0278,154043.133,143268.4132,144035.6444,144802.8855,145570.0443,146337.3233,147104.4274,147888.7619,148655.8561,153261.8134,Mapping
Blocked,Female,done,20,F_park.wav,None,727.5778953,4340,157178.9186,149422.8956,150190.1469,150957.278,151724.5519,152491.7163,153259.0278,154043.133,143268.4132,144035.6444,144802.8855,145570.0443,146337.3233,147104.4274,147888.7619,148655.8561,154045.7084,Mapping
Blocked,Female,done,20,F_lash.wav,space,0.036056372,4340,157178.9186,149422.8956,150190.1469,150957.278,151724.5519,152491.7163,153259.0278,154043.133,157946.1678,144035.6444,144802.8855,145570.0443,146337.3233,147104.4274,147888.7619,148655.8561,157182.1306,Mapping
Blocked,Female,done,20,F_park.wav,None,731.7291854,4340,157178.9186,149422.8956,150190.1469,150957.278,151724.5519,152491.7163,153259.0278,154043.133,157946.1678,158713.3485,144802.8855,145570.0443,146337.3233,147104.4274,147888.7619,148655.8561,157949.5589,Mapping
Blocked,Female,done,20,F_jaw.wav,None,733.7429337,4340,157178.9186,149422.8956,150190.1469,150957.278,151724.5519,152491.7163,153259.0278,154043.133,157946.1678,158713.3485,159480.608,145570.0443,146337.3233,147104.4274,147888.7619,148655.8561,158716.5792,Mapping
Blocked,Female,done,20,F_jaw.wav,None,735.3931136,4340,157178.9186,149422.8956,150190.1469,150957.278,151724.5519,152491.7163,153259.0278,154043.133,157946.1678,158713.3485,159480.608,160247.7391,146337.3233,147104.4274,147888.7619,148655.8561,159484.3765,Mapping
Blocked,Female,done,20,F_park.wav,None,737.6439325,4340,157178.9186,149422.8956,150190.1469,150957.278,151724.5519,152491.7163,153259.0278,154043.133,157946.1678,158713.3485,159480.608,160247.7391,161014.6668,147104.4274,147888.7619,148655.8561,160251.3496,Mapping
Blocked,Female,done,20,F_done.wav,None,740.5344516,4340,157178.9186,149422.8956,150190.1469,150957.278,151724.5519,152491.7163,153259.0278,154043.133,157946.1678,158713.3485,159480.608,160247.7391,161014.6668,161798.7871,147888.7619,148655.8561,161017.7758,Mapping
Blocked,Female,done,20,F_cad.wav,space,360.005733,4340,157178.9186,149422.8956,150190.1469,150957.278,151724.5519,152491.7163,153259.0278,154043.133,157946.1678,158713.3485,159480.608,160247.7391,161014.6668,161798.7871,162566.1187,148655.8561,161801.6425,Mapping
Blocked,Female,done,20,F_done.wav,None,727.6265714,4340,157178.9186,149422.8956,150190.1469,150957.278,151724.5519,152491.7163,153259.0278,154043.133,157946.1678,158713.3485,159480.608,160247.7391,161014.6668,161798.7871,162566.1187,163333.2597,162569.3607,Mapping
Blocked,Female,done,20,F_cling.wav,None,730.7277197,4340,157178.9186,164100.1424,150190.1469,150957.278,151724.5519,152491.7163,153259.0278,154043.133,157946.1678,158713.3485,159480.608,160247.7391,161014.6668,161798.7871,162566.1187,163333.2597,163335.9342,Mapping
Blocked,Female,done,20,F_done.wav,space,174.7913688,4340,157178.9186,164100.1424,164867.8684,150957.278,151724.5519,152491.7163,153259.0278,154043.133,157946.1678,158713.3485,159480.608,160247.7391,161014.6668,161798.7871,162566.1187,163333.2597,164102.8499,Mapping
Blocked,Female,done,20,F_knife.wav,space,609.5287372,4340,157178.9186,164100.1424,164867.8684,165634.9545,151724.5519,152491.7163,153259.0278,154043.133,157946.1678,158713.3485,159480.608,160247.7391,161014.6668,161798.7871,162566.1187,163333.2597,164871.1027,Mapping
Blocked,Female,done,20,F_park.wav,None,735.9709169,4340,157178.9186,164100.1424,164867.8684,165634.9545,166401.7635,152491.7163,153259.0278,154043.133,157946.1678,158713.3485,159480.608,160247.7391,161014.6668,161798.7871,162566.1187,163333.2597,165638.0394,Mapping
Blocked,Female,done,20,F_done.wav,None,739.4380374,4340,157178.9186,164100.1424,164867.8684,165634.9545,166401.7635,167169.053,153259.0278,154043.133,157946.1678,158713.3485,159480.608,160247.7391,161014.6668,161798.7871,162566.1187,163333.2597,166404.478,Mapping
Blocked,Female,done,20,F_reek.wav,space,477.8307406,4340,157178.9186,164100.1424,164867.8684,165634.9545,166401.7635,167169.053,167936.2547,154043.133,157946.1678,158713.3485,159480.608,160247.7391,161014.6668,161798.7871,162566.1187,163333.2597,167171.8215,Mapping
Blocked,Female,done,20,F_knife.wav,None,742.8366508,4340,157178.9186,164100.1424,164867.8684,165634.9545,166401.7635,167169.053,167936.2547,168720.5391,157946.1678,158713.3485,159480.608,160247.7391,161014.6668,161798.7871,162566.1187,163333.2597,167939.0125,Mapping
Blocked,Female,cave,11,F_knife.wav,None,727.9943464,4340,171856.264,164100.1424,164867.8684,165634.9545,166401.7635,167169.053,167936.2547,168720.5391,157946.1678,158713.3485,159480.608,160247.7391,161014.6668,161798.7871,162566.1187,163333.2597,168723.2986,Mapping
Blocked,Female,cave,11,F_jaw.wav,space,0.048075161,4340,171856.264,164100.1424,164867.8684,165634.9545,166401.7635,167169.053,167936.2547,168720.5391,172622.9838,158713.3485,159480.608,160247.7391,161014.6668,161798.7871,162566.1187,163333.2597,171859.3717,Mapping
Blocked,Female,cave,11,F_lash.wav,None,734.2200797,4340,171856.264,164100.1424,164867.8684,165634.9545,166401.7635,167169.053,167936.2547,168720.5391,172622.9838,173390.2102,159480.608,160247.7391,161014.6668,161798.7871,162566.1187,163333.2597,172625.6258,Mapping
Blocked,Female,cave,11,F_dime.wav,None,737.0078381,4340,171856.264,164100.1424,164867.8684,165634.9545,166401.7635,167169.053,167936.2547,168720.5391,172622.9838,173390.2102,174157.4912,160247.7391,161014.6668,161798.7871,162566.1187,163333.2597,173392.7251,Mapping
Blocked,Female,cave,11,F_cave.wav,None,739.114131,4340,171856.264,164100.1424,164867.8684,165634.9545,166401.7635,167169.053,167936.2547,168720.5391,172622.9838,173390.2102,174157.4912,174924.6485,161014.6668,161798.7871,162566.1187,163333.2597,174160.303,Mapping
Blocked,Female,cave,11,F_bluff.wav,space,351.2698753,4340,171856.264,164100.1424,164867.8684,165634.9545,166401.7635,167169.053,167936.2547,168720.5391,172622.9838,173390.2102,174157.4912,174924.6485,175691.9335,161798.7871,162566.1187,163333.2597,174927.387,Mapping
Blocked,Female,cave,11,F_jaw.wav,None,742.2531386,4340,171856.264,164100.1424,164867.8684,165634.9545,166401.7635,167169.053,167936.2547,168720.5391,172622.9838,173390.2102,174157.4912,174924.6485,175691.9335,176476.0871,162566.1187,163333.2597,175695.1335,Mapping
Blocked,Female,cave,11,F_gnash.wav,None,727.3726744,4340,171856.264,164100.1424,164867.8684,165634.9545,166401.7635,167169.053,167936.2547,168720.5391,172622.9838,173390.2102,174157.4912,174924.6485,175691.9335,176476.0871,177243.5223,163333.2597,176479.6597,Mapping
Blocked,Female,cave,11,F_jaw.wav,None,730.2752123,4340,171856.264,164100.1424,164867.8684,165634.9545,166401.7635,167169.053,167936.2547,168720.5391,172622.9838,173390.2102,174157.4912,174924.6485,175691.9335,176476.0871,177243.5223,178010.2109,177246.6568,Mapping
Blocked,Female,cave,11,F_bluff.wav,None,733.3910836,4340,171856.264,178777.4327,164867.8684,165634.9545,166401.7635,167169.053,167936.2547,168720.5391,172622.9838,173390.2102,174157.4912,174924.6485,175691.9335,176476.0871,177243.5223,178010.2109,178013.3742,Mapping
Blocked,Female,cave,11,F_cave.wav,None,735.94087,4340,171856.264,178777.4327,179544.6588,165634.9545,166401.7635,167169.053,167936.2547,168720.5391,172622.9838,173390.2102,174157.4912,174924.6485,175691.9335,176476.0871,177243.5223,178010.2109,178780.5946,Mapping
Blocked,Female,cave,11,F_park.wav,space,281.2793521,4340,171856.264,178777.4327,179544.6588,180311.8951,166401.7635,167169.053,167936.2547,168720.5391,172622.9838,173390.2102,174157.4912,174924.6485,175691.9335,176476.0871,177243.5223,178010.2109,179547.3844,Mapping
Blocked,Female,cave,11,F_cave.wav,None,739.9184886,4340,171856.264,178777.4327,179544.6588,180311.8951,181079.08,167169.053,167936.2547,168720.5391,172622.9838,173390.2102,174157.4912,174924.6485,175691.9335,176476.0871,177243.5223,178010.2109,180314.8325,Mapping
Blocked,Female,cave,11,F_lash.wav,space,432.7810098,4340,171856.264,178777.4327,179544.6588,180311.8951,181079.08,181864.1937,167936.2547,168720.5391,172622.9838,173390.2102,174157.4912,174924.6485,175691.9335,176476.0871,177243.5223,178010.2109,181081.8789,Mapping
Blocked,Female,cave,11,F_cave.wav,None,725.0278085,4340,171856.264,178777.4327,179544.6588,180311.8951,181079.08,181864.1937,182631.1659,168720.5391,172622.9838,173390.2102,174157.4912,174924.6485,175691.9335,176476.0871,177243.5223,178010.2109,181868.0313,Mapping
Blocked,Female,cave,11,F_jolt.wav,space,430.916595,4340,171856.264,178777.4327,179544.6588,180311.8951,181079.08,181864.1937,182631.1659,183397.4374,172622.9838,173390.2102,174157.4912,174924.6485,175691.9335,176476.0871,177243.5223,178010.2109,182634.7258,Mapping
Blocked,Female,cave,7,F_priest.wav,None,731.7649413,4340,186533.4549,178777.4327,179544.6588,180311.8951,181079.08,181864.1937,182631.1659,183397.4374,172622.9838,173390.2102,174157.4912,174924.6485,175691.9335,176476.0871,177243.5223,178010.2109,183400.1761,Mapping
Blocked,Female,cave,7,F_reek.wav,space,0.035154962,4340,186533.4549,178777.4327,179544.6588,180311.8951,181079.08,181864.1937,182631.1659,183397.4374,187300.3595,173390.2102,174157.4912,174924.6485,175691.9335,176476.0871,177243.5223,178010.2109,186536.6925,Mapping
Blocked,Female,cave,7,F_bluff.wav,None,733.9457508,4340,186533.4549,178777.4327,179544.6588,180311.8951,181079.08,181864.1937,182631.1659,183397.4374,187300.3595,188067.5294,174157.4912,174924.6485,175691.9335,176476.0871,177243.5223,178010.2109,187303.0409,Mapping
Blocked,Female,cave,7,F_cave.wav,None,736.3795558,4340,186533.4549,178777.4327,179544.6588,180311.8951,181079.08,181864.1937,182631.1659,183397.4374,187300.3595,188067.5294,188834.8104,174924.6485,175691.9335,176476.0871,177243.5223,178010.2109,188070.1308,Mapping
Blocked,Female,cave,7,F_jaw.wav,space,304.1213633,4340,186533.4549,178777.4327,179544.6588,180311.8951,181079.08,181864.1937,182631.1659,183397.4374,187300.3595,188067.5294,188834.8104,189601.8851,175691.9335,176476.0871,177243.5223,178010.2109,188837.5531,Mapping
Blocked,Female,cave,7,F_priest.wav,None,740.0873526,4340,186533.4549,178777.4327,179544.6588,180311.8951,181079.08,181864.1937,182631.1659,183397.4374,187300.3595,188067.5294,188834.8104,189601.8851,190369.2554,176476.0871,177243.5223,178010.2109,189604.8321,Mapping
Blocked,Female,cave,7,F_dime.wav,None,742.6097962,4340,186533.4549,178777.4327,179544.6588,180311.8951,181079.08,181864.1937,182631.1659,183397.4374,187300.3595,188067.5294,188834.8104,189601.8851,190369.2554,191153.5857,177243.5223,178010.2109,190372.1108,Mapping
Blocked,Female,cave,7,F_reek.wav,space,39.15271135,4340,186533.4549,178777.4327,179544.6588,180311.8951,181079.08,181864.1937,182631.1659,183397.4374,187300.3595,188067.5294,188834.8104,189601.8851,190369.2554,191153.5857,191921.0399,178010.2109,191156.4852,Mapping
Blocked,Female,cave,7,F_lash.wav,None,728.1650132,4340,186533.4549,178777.4327,179544.6588,180311.8951,181079.08,181864.1937,182631.1659,183397.4374,187300.3595,188067.5294,188834.8104,189601.8851,190369.2554,191153.5857,191921.0399,192687.8591,191924.9508,Mapping
Blocked,Female,cave,7,F_cave.wav,None,732.6375055,4340,186533.4549,193455.2724,179544.6588,180311.8951,181079.08,181864.1937,182631.1659,183397.4374,187300.3595,188067.5294,188834.8104,189601.8851,190369.2554,191153.5857,191921.0399,192687.8591,192690.92,Mapping
Blocked,Female,cave,7,F_bluff.wav,space,513.0722371,4340,186533.4549,193455.2724,194221.9931,180311.8951,181079.08,181864.1937,182631.1659,183397.4374,187300.3595,188067.5294,188834.8104,189601.8851,190369.2554,191153.5857,191921.0399,192687.8591,193458.6001,Mapping
Blocked,Female,cave,7,F_cave.wav,None,737.1655847,4340,186533.4549,193455.2724,194221.9931,194989.1933,181079.08,181864.1937,182631.1659,183397.4374,187300.3595,188067.5294,188834.8104,189601.8851,190369.2554,191153.5857,191921.0399,192687.8591,194224.8457,Mapping
Blocked,Female,cave,7,F_priest.wav,space,507.7500164,4340,186533.4549,193455.2724,194221.9931,194989.1933,195756.45,181864.1937,182631.1659,183397.4374,187300.3595,188067.5294,188834.8104,189601.8851,190369.2554,191153.5857,191921.0399,192687.8591,194991.9348,Mapping
Blocked,Female,cave,7,F_cling.wav,None,741.3760673,4340,186533.4549,193455.2724,194221.9931,194989.1933,195756.45,196540.5947,182631.1659,183397.4374,187300.3595,188067.5294,188834.8104,189601.8851,190369.2554,191153.5857,191921.0399,192687.8591,195759.1434,Mapping
Blocked,Female,cave,7,F_cave.wav,None,727.073707,4340,186533.4549,193455.2724,194221.9931,194989.1933,195756.45,196540.5947,197307.9391,183397.4374,187300.3595,188067.5294,188834.8104,189601.8851,190369.2554,191153.5857,191921.0399,192687.8591,196543.5107,Mapping
Blocked,Female,cave,7,F_romp.wav,space,602.949952,4340,186533.4549,193455.2724,194221.9931,194989.1933,195756.45,196540.5947,197307.9391,198074.7488,187300.3595,188067.5294,188834.8104,189601.8851,190369.2554,191153.5857,191921.0399,192687.8591,197310.6896,Mapping
Blocked,Female,done,23,F_greet.wav,None,731.1682084,4340,201210.8979,193455.2724,194221.9931,194989.1933,195756.45,196540.5947,197307.9391,198074.7488,187300.3595,188067.5294,188834.8104,189601.8851,190369.2554,191153.5857,191921.0399,192687.8591,198077.9512,Mapping
Blocked,Female,done,23,F_romp.wav,space,0.03635684,4340,201210.8979,193455.2724,194221.9931,194989.1933,195756.45,196540.5947,197307.9391,198074.7488,201977.7009,188067.5294,188834.8104,189601.8851,190369.2554,191153.5857,191921.0399,192687.8591,201214.5787,Mapping
Blocked,Female,done,23,F_lash.wav,None,733.6726238,4340,201210.8979,193455.2724,194221.9931,194989.1933,195756.45,196540.5947,197307.9391,198074.7488,201977.7009,202744.8134,188834.8104,189601.8851,190369.2554,191153.5857,191921.0399,192687.8591,201980.5737,Mapping
Blocked,Female,done,23,F_cad.wav,None,736.7860914,4340,201210.8979,193455.2724,194221.9931,194989.1933,195756.45,196540.5947,197307.9391,198074.7488,201977.7009,202744.8134,203512.0795,189601.8851,190369.2554,191153.5857,191921.0399,192687.8591,202747.414,Mapping
Blocked,Female,done,23,F_done.wav,None,738.7595767,4340,201210.8979,193455.2724,194221.9931,194989.1933,195756.45,196540.5947,197307.9391,198074.7488,201977.7009,202744.8134,203512.0795,204279.3179,190369.2554,191153.5857,191921.0399,192687.8591,203515.0406,Mapping
Blocked,Female,done,23,F_romp.wav,None,741.4505838,4340,201210.8979,193455.2724,194221.9931,194989.1933,195756.45,196540.5947,197307.9391,198074.7488,201977.7009,202744.8134,203512.0795,204279.3179,205063.449,191153.5857,191921.0399,192687.8591,204282.1549,Mapping
Blocked,Female,done,23,F_park.wav,None,726.453237,4340,201210.8979,193455.2724,194221.9931,194989.1933,195756.45,196540.5947,197307.9391,198074.7488,201977.7009,202744.8134,203512.0795,204279.3179,205063.449,205830.789,191921.0399,192687.8591,205066.5853,Mapping
Blocked,Female,done,23,F_greet.wav,None,729.3927326,4340,201210.8979,193455.2724,194221.9931,194989.1933,195756.45,196540.5947,197307.9391,198074.7488,201977.7009,202744.8134,203512.0795,204279.3179,205063.449,205830.789,206597.5589,192687.8591,205833.8486,Mapping
Blocked,Female,done,23,F_done.wav,None,732.5738059,4340,201210.8979,193455.2724,194221.9931,194989.1933,195756.45,196540.5947,197307.9391,198074.7488,201977.7009,202744.8134,203512.0795,204279.3179,205063.449,205830.789,206597.5589,207364.9109,206600.4446,Mapping
Blocked,Female,done,23,F_park.wav,space,681.0140974,4340,201210.8979,208132.4813,194221.9931,194989.1933,195756.45,196540.5947,197307.9391,198074.7488,201977.7009,202744.8134,203512.0795,204279.3179,205063.449,205830.789,206597.5589,207364.9109,207367.6299,Mapping
Blocked,Female,done,23,F_done.wav,None,735.945377,4340,201210.8979,208132.4813,208899.3634,194989.1933,195756.45,196540.5947,197307.9391,198074.7488,201977.7009,202744.8134,203512.0795,204279.3179,205063.449,205830.789,206597.5589,207364.9109,208135.6495,Mapping
Blocked,Female,done,23,F_romp.wav,None,739.2796899,4340,201210.8979,208132.4813,208899.3634,209666.5669,195756.45,196540.5947,197307.9391,198074.7488,201977.7009,202744.8134,203512.0795,204279.3179,205063.449,205830.789,206597.5589,207364.9109,208902.024,Mapping
Blocked,Female,done,23,F_done.wav,None,741.5151848,4340,201210.8979,208132.4813,208899.3634,209666.5669,210450.8287,196540.5947,197307.9391,198074.7488,201977.7009,202744.8134,203512.0795,204279.3179,205063.449,205830.789,206597.5589,207364.9109,209669.4373,Mapping
Blocked,Female,done,23,F_greet.wav,None,726.5307582,4340,201210.8979,208132.4813,208899.3634,209666.5669,210450.8287,211218.1197,197307.9391,198074.7488,201977.7009,202744.8134,203512.0795,204279.3179,205063.449,205830.789,206597.5589,207364.9109,210453.6582,Mapping
Blocked,Female,done,23,F_gnash.wav,None,728.8786288,4340,201210.8979,208132.4813,208899.3634,209666.5669,210450.8287,211218.1197,211984.8686,198074.7488,201977.7009,202744.8134,203512.0795,204279.3179,205063.449,205830.789,206597.5589,207364.9109,211221.1004,Mapping
Blocked,Female,done,23,F_park.wav,None,731.907364,4340,201210.8979,208132.4813,208899.3634,209666.5669,210450.8287,211218.1197,211984.8686,212752.1296,201977.7009,202744.8134,203512.0795,204279.3179,205063.449,205830.789,206597.5589,207364.9109,211987.5245,Mapping
Blocked,Female,tile,14,F_dime.wav,None,734.5088311,4340,215887.9816,208132.4813,208899.3634,209666.5669,210450.8287,211218.1197,211984.8686,212752.1296,201977.7009,202744.8134,203512.0795,204279.3179,205063.449,205830.789,206597.5589,207364.9109,212755.1748,Mapping
Blocked,Female,tile,14,F_tile.wav,space,0.04927704,4340,215887.9816,208132.4813,208899.3634,209666.5669,210450.8287,211218.1197,211984.8686,212752.1296,216654.9288,202744.8134,203512.0795,204279.3179,205063.449,205830.789,206597.5589,207364.9109,215891.266,Mapping
Blocked,Female,tile,14,F_park.wav,None,734.0983894,4340,215887.9816,208132.4813,208899.3634,209666.5669,210450.8287,211218.1197,211984.8686,212752.1296,216654.9288,217422.2036,203512.0795,204279.3179,205063.449,205830.789,206597.5589,207364.9109,216657.8848,Mapping
Blocked,Female,tile,14,F_romp.wav,None,736.725697,4340,215887.9816,208132.4813,208899.3634,209666.5669,210450.8287,211218.1197,211984.8686,212752.1296,216654.9288,217422.2036,218189.3849,204279.3179,205063.449,205830.789,206597.5589,207364.9109,217425.1776,Mapping
Blocked,Female,tile,14,F_tile.wav,None,738.7730979,4340,215887.9816,208132.4813,208899.3634,209666.5669,210450.8287,211218.1197,211984.8686,212752.1296,216654.9288,217422.2036,218189.3849,218956.6305,205063.449,205830.789,206597.5589,207364.9109,218192.8009,Mapping
Blocked,Female,tile,14,F_dime.wav,None,741.7396357,4340,215887.9816,208132.4813,208899.3634,209666.5669,210450.8287,211218.1197,211984.8686,212752.1296,216654.9288,217422.2036,218189.3849,218956.6305,219740.9641,205830.789,206597.5589,207364.9109,218959.7067,Mapping
Blocked,Female,tile,14,F_jaw.wav,None,727.3846932,4340,215887.9816,208132.4813,208899.3634,209666.5669,210450.8287,211218.1197,211984.8686,212752.1296,216654.9288,217422.2036,218189.3849,218956.6305,219740.9641,220508.0523,206597.5589,207364.9109,219743.952,Mapping
Blocked,Female,tile,14,F_tile.wav,None,730.069691,4340,215887.9816,208132.4813,208899.3634,209666.5669,210450.8287,211218.1197,211984.8686,212752.1296,216654.9288,217422.2036,218189.3849,218956.6305,219740.9641,220508.0523,221274.9503,207364.9109,220511.2838,Mapping
Blocked,Female,tile,14,F_romp.wav,None,733.3571305,4340,215887.9816,208132.4813,208899.3634,209666.5669,210450.8287,211218.1197,211984.8686,212752.1296,216654.9288,217422.2036,218189.3849,218956.6305,219740.9641,220508.0523,221274.9503,222042.1622,221278.2449,Mapping
Blocked,Female,tile,14,F_knife.wav,None,737.3735097,4340,215887.9816,222809.4454,208899.3634,209666.5669,210450.8287,211218.1197,211984.8686,212752.1296,216654.9288,217422.2036,218189.3849,218956.6305,219740.9641,220508.0523,221274.9503,222042.1622,222044.8902,Mapping
Blocked,Female,tile,14,F_greet.wav,None,739.6432583,4340,215887.9816,222809.4454,223576.7003,209666.5669,210450.8287,211218.1197,211984.8686,212752.1296,216654.9288,217422.2036,218189.3849,218956.6305,219740.9641,220508.0523,221274.9503,222042.1622,222812.164,Mapping
Blocked,Female,tile,14,F_cling.wav,None,742.1464718,4340,215887.9816,222809.4454,223576.7003,224360.8221,210450.8287,211218.1197,211984.8686,212752.1296,216654.9288,217422.2036,218189.3849,218956.6305,219740.9641,220508.0523,221274.9503,222042.1622,223579.4163,Mapping
Blocked,Female,tile,14,F_tile.wav,None,727.7410504,4340,215887.9816,222809.4454,223576.7003,224360.8221,225128.0329,211218.1197,211984.8686,212752.1296,216654.9288,217422.2036,218189.3849,218956.6305,219740.9641,220508.0523,221274.9503,222042.1622,224363.7634,Mapping
Blocked,Female,tile,14,F_knife.wav,None,730.0375407,4340,215887.9816,222809.4454,223576.7003,224360.8221,225128.0329,225895.0267,211984.8686,212752.1296,216654.9288,217422.2036,218189.3849,218956.6305,219740.9641,220508.0523,221274.9503,222042.1622,225131.0093,Mapping
Blocked,Female,tile,14,F_lash.wav,None,733.1756468,4340,215887.9816,222809.4454,223576.7003,224360.8221,225128.0329,225895.0267,226662.2353,212752.1296,216654.9288,217422.2036,218189.3849,218956.6305,219740.9641,220508.0523,221274.9503,222042.1622,225897.7709,Mapping
Blocked,Female,tile,14,F_depth.wav,None,735.7434613,4340,215887.9816,222809.4454,223576.7003,224360.8221,225128.0329,225895.0267,226662.2353,227429.4692,216654.9288,217422.2036,218189.3849,218956.6305,219740.9641,220508.0523,221274.9503,222042.1622,226665.2608,Mapping
Blocked,Female,done,24,F_lash.wav,None,738.7451542,4340,230565.3056,222809.4454,223576.7003,224360.8221,225128.0329,225895.0267,226662.2353,227429.4692,216654.9288,217422.2036,218189.3849,218956.6305,219740.9641,220508.0523,221274.9503,222042.1622,227432.3102,Mapping
Blocked,Female,done,24,F_dime.wav,space,0.050178451,4340,230565.3056,222809.4454,223576.7003,224360.8221,225128.0329,225895.0267,226662.2353,227429.4692,231332.2868,217422.2036,218189.3849,218956.6305,219740.9641,220508.0523,221274.9503,222042.1622,230568.6937,Mapping
Blocked,Female,done,24,F_done.wav,None,733.7843985,4340,230565.3056,222809.4454,223576.7003,224360.8221,225128.0329,225895.0267,226662.2353,227429.4692,231332.2868,232099.5054,218189.3849,218956.6305,219740.9641,220508.0523,221274.9503,222042.1622,231335.1557,Mapping
Blocked,Female,done,24,F_cling.wav,space,616.1432784,4340,230565.3056,222809.4454,223576.7003,224360.8221,225128.0329,225895.0267,226662.2353,227429.4692,231332.2868,232099.5054,232866.6858,218956.6305,219740.9641,220508.0523,221274.9503,222042.1622,232102.5696,Mapping
Blocked,Female,done,24,F_done.wav,None,737.659557,4340,230565.3056,222809.4454,223576.7003,224360.8221,225128.0329,225895.0267,226662.2353,227429.4692,231332.2868,232099.5054,232866.6858,233634.3202,219740.9641,220508.0523,221274.9503,222042.1622,232869.6093,Mapping
Blocked,Female,done,24,F_dime.wav,space,365.0488173,4340,230565.3056,222809.4454,223576.7003,224360.8221,225128.0329,225895.0267,226662.2353,227429.4692,231332.2868,232099.5054,232866.6858,233634.3202,234401.4748,220508.0523,221274.9503,222042.1622,233637.6317,Mapping
Blocked,Female,done,24,F_reek.wav,None,741.1155601,4340,230565.3056,222809.4454,223576.7003,224360.8221,225128.0329,225895.0267,226662.2353,227429.4692,231332.2868,232099.5054,232866.6858,233634.3202,234401.4748,235185.2937,221274.9503,222042.1622,234404.7015,Mapping
Blocked,Female,done,24,F_done.wav,space,568.1859018,4340,230565.3056,222809.4454,223576.7003,224360.8221,225128.0329,225895.0267,226662.2353,227429.4692,231332.2868,232099.5054,232866.6858,233634.3202,234401.4748,235185.2937,235952.6664,222042.1622,235188.4922,Mapping
Blocked,Female,done,24,F_priest.wav,None,729.0399811,4340,230565.3056,222809.4454,223576.7003,224360.8221,225128.0329,225895.0267,226662.2353,227429.4692,231332.2868,232099.5054,232866.6858,233634.3202,234401.4748,235185.2937,235952.6664,236719.9796,235955.4031,Mapping
Blocked,Female,done,24,F_cling.wav,None,731.1501802,4340,230565.3056,237487.2024,223576.7003,224360.8221,225128.0329,225895.0267,226662.2353,227429.4692,231332.2868,232099.5054,232866.6858,233634.3202,234401.4748,235185.2937,235952.6664,236719.9796,236722.911,Mapping
Blocked,Female,done,24,F_reek.wav,None,733.5731683,4340,230565.3056,237487.2024,238253.9174,224360.8221,225128.0329,225895.0267,226662.2353,227429.4692,231332.2868,232099.5054,232866.6858,233634.3202,234401.4748,235185.2937,235952.6664,236719.9796,237490.4832,Mapping
Blocked,Female,done,24,F_lash.wav,None,737.2596317,4340,230565.3056,237487.2024,238253.9174,239021.1972,225128.0329,225895.0267,226662.2353,227429.4692,231332.2868,232099.5054,232866.6858,233634.3202,234401.4748,235185.2937,235952.6664,236719.9796,238256.8575,Mapping
Blocked,Female,done,24,F_dime.wav,None,740.1892118,4340,230565.3056,237487.2024,238253.9174,239021.1972,239788.8094,225895.0267,226662.2353,227429.4692,231332.2868,232099.5054,232866.6858,233634.3202,234401.4748,235185.2937,235952.6664,236719.9796,239024.0604,Mapping
Blocked,Female,done,24,F_done.wav,None,741.3664523,4340,230565.3056,237487.2024,238253.9174,239021.1972,239788.8094,240573.2155,226662.2353,227429.4692,231332.2868,232099.5054,232866.6858,233634.3202,234401.4748,235185.2937,235952.6664,236719.9796,239792.0443,Mapping
Blocked,Female,done,24,F_dime.wav,None,726.8008805,4340,230565.3056,237487.2024,238253.9174,239021.1972,239788.8094,240573.2155,241339.5014,227429.4692,231332.2868,232099.5054,232866.6858,233634.3202,234401.4748,235185.2937,235952.6664,236719.9796,240576.6162,Mapping
Blocked,Female,done,24,F_cad.wav,space,0.419155307,4340,230565.3056,237487.2024,238253.9174,239021.1972,239788.8094,240573.2155,241339.5014,242106.7746,231332.2868,232099.5054,232866.6858,233634.3202,234401.4748,235185.2937,235952.6664,236719.9796,241342.2501,Mapping
Blocked,Female,ball,3,F_knife.wav,None,732.4091485,4340,245242.8252,237487.2024,238253.9174,239021.1972,239788.8094,240573.2155,241339.5014,242106.7746,231332.2868,232099.5054,232866.6858,233634.3202,234401.4748,235185.2937,235952.6664,236719.9796,242109.7715,Mapping
Blocked,Female,ball,3,F_ball.wav,space,0.03635684,4340,245242.8252,237487.2024,238253.9174,239021.1972,239788.8094,240573.2155,241339.5014,242106.7746,246009.4672,232099.5054,232866.6858,233634.3202,234401.4748,235185.2937,235952.6664,236719.9796,245246.6667,Mapping
Blocked,Female,ball,3,F_jolt.wav,None,733.5139758,4340,245242.8252,237487.2024,238253.9174,239021.1972,239788.8094,240573.2155,241339.5014,242106.7746,246009.4672,246776.8309,232866.6858,233634.3202,234401.4748,235185.2937,235952.6664,236719.9796,246012.1684,Mapping
Blocked,Female,ball,3,F_ball.wav,None,736.4363446,4340,245242.8252,237487.2024,238253.9174,239021.1972,239788.8094,240573.2155,241339.5014,242106.7746,246009.4672,246776.8309,247544.0528,233634.3202,234401.4748,235185.2937,235952.6664,236719.9796,246779.4486,Mapping
Blocked,Female,ball,3,F_jaw.wav,None,739.347596,4340,245242.8252,237487.2024,238253.9174,239021.1972,239788.8094,240573.2155,241339.5014,242106.7746,246009.4672,246776.8309,247544.0528,248311.2287,234401.4748,235185.2937,235952.6664,236719.9796,247546.7585,Mapping
Blocked,Female,ball,3,F_depth.wav,None,742.462566,4340,245242.8252,237487.2024,238253.9174,239021.1972,239788.8094,240573.2155,241339.5014,242106.7746,246009.4672,246776.8309,247544.0528,248311.2287,249095.5746,235185.2937,235952.6664,236719.9796,248313.9029,Mapping
Blocked,Female,ball,3,F_ball.wav,None,727.5709845,4340,245242.8252,237487.2024,238253.9174,239021.1972,239788.8094,240573.2155,241339.5014,242106.7746,246009.4672,246776.8309,247544.0528,248311.2287,249095.5746,249862.3882,235952.6664,236719.9796,249098.9405,Mapping
Blocked,Female,ball,3,F_bluff.wav,None,731.484603,4340,245242.8252,237487.2024,238253.9174,239021.1972,239788.8094,240573.2155,241339.5014,242106.7746,246009.4672,246776.8309,247544.0528,248311.2287,249095.5746,249862.3882,250629.6365,236719.9796,249865.1822,Mapping
Blocked,Female,ball,3,F_reek.wav,None,734.0899763,4340,245242.8252,237487.2024,238253.9174,239021.1972,239788.8094,240573.2155,241339.5014,242106.7746,246009.4672,246776.8309,247544.0528,248311.2287,249095.5746,249862.3882,250629.6365,251396.8806,250632.4396,Mapping
Blocked,Female,ball,3,F_gnash.wav,None,736.8080257,4340,245242.8252,252164.0273,238253.9174,239021.1972,239788.8094,240573.2155,241339.5014,242106.7746,246009.4672,246776.8309,247544.0528,248311.2287,249095.5746,249862.3882,250629.6365,251396.8806,251399.7801,Mapping
Blocked,Female,ball,3,F_lash.wav,None,740.0855497,4340,245242.8252,252164.0273,252931.2955,239021.1972,239788.8094,240573.2155,241339.5014,242106.7746,246009.4672,246776.8309,247544.0528,248311.2287,249095.5746,249862.3882,250629.6365,251396.8806,252166.8403,Mapping
Blocked,Female,ball,3,F_romp.wav,None,742.5460966,4340,245242.8252,252164.0273,252931.2955,253715.5867,239788.8094,240573.2155,241339.5014,242106.7746,246009.4672,246776.8309,247544.0528,248311.2287,249095.5746,249862.3882,250629.6365,251396.8806,252934.4573,Mapping
Blocked,Female,ball,3,F_ball.wav,None,727.9790224,4340,245242.8252,252164.0273,252931.2955,253715.5867,254482.4366,240573.2155,241339.5014,242106.7746,246009.4672,246776.8309,247544.0528,248311.2287,249095.5746,249862.3882,250629.6365,251396.8806,253718.7865,Mapping
Blocked,Female,ball,3,F_reek.wav,None,731.748115,4340,245242.8252,252164.0273,252931.2955,253715.5867,254482.4366,255249.5732,241339.5014,242106.7746,246009.4672,246776.8309,247544.0528,248311.2287,249095.5746,249862.3882,250629.6365,251396.8806,254485.1367,Mapping
Blocked,Female,ball,3,F_bluff.wav,None,734.5860518,4340,245242.8252,252164.0273,252931.2955,253715.5867,254482.4366,255249.5732,256016.8606,242106.7746,246009.4672,246776.8309,247544.0528,248311.2287,249095.5746,249862.3882,250629.6365,251396.8806,255252.2522,Mapping
Blocked,Female,ball,3,F_park.wav,None,737.5273503,4340,245242.8252,252164.0273,252931.2955,253715.5867,254482.4366,255249.5732,256016.8606,256784.0311,246009.4672,246776.8309,247544.0528,248311.2287,249095.5746,249862.3882,250629.6365,251396.8806,256019.3884,Mapping
Blocked,Female,cave,9,F_jolt.wav,None,740.0654183,4340,259936.8124,252164.0273,252931.2955,253715.5867,254482.4366,255249.5732,256016.8606,256784.0311,246009.4672,246776.8309,247544.0528,248311.2287,249095.5746,249862.3882,250629.6365,251396.8806,256786.9784,Mapping
Blocked,Female,cave,9,F_cling.wav,space,0.03635684,4340,259936.8124,252164.0273,252931.2955,253715.5867,254482.4366,255249.5732,256016.8606,256784.0311,260703.5935,246776.8309,247544.0528,248311.2287,249095.5746,249862.3882,250629.6365,251396.8806,259940.4754,Mapping
Blocked,Female,cave,9,F_cave.wav,None,734.2269905,4340,259936.8124,252164.0273,252931.2955,253715.5867,254482.4366,255249.5732,256016.8606,256784.0311,260703.5935,261470.8352,247544.0528,248311.2287,249095.5746,249862.3882,250629.6365,251396.8806,260706.7208,Mapping
Blocked,Female,cave,9,F_dime.wav,None,737.4961014,4340,259936.8124,252164.0273,252931.2955,253715.5867,254482.4366,255249.5732,256016.8606,256784.0311,260703.5935,261470.8352,262238.0784,248311.2287,249095.5746,249862.3882,250629.6365,251396.8806,261473.632,Mapping
Blocked,Female,cave,9,F_reek.wav,None,740.0497938,4340,259936.8124,252164.0273,252931.2955,253715.5867,254482.4366,255249.5732,256016.8606,256784.0311,260703.5935,261470.8352,262238.0784,263022.2952,249095.5746,249862.3882,250629.6365,251396.8806,262241.2261,Mapping
Blocked,Female,cave,9,F_cave.wav,None,726.1119034,4340,259936.8124,252164.0273,252931.2955,253715.5867,254482.4366,255249.5732,256016.8606,256784.0311,260703.5935,261470.8352,262238.0784,263022.2952,263789.5131,249862.3882,250629.6365,251396.8806,263025.3978,Mapping
Blocked,Female,cave,9,F_reek.wav,space,76.41997499,4340,259936.8124,252164.0273,252931.2955,253715.5867,254482.4366,255249.5732,256016.8606,256784.0311,260703.5935,261470.8352,262238.0784,263022.2952,263789.5131,264556.6788,250629.6365,251396.8806,263792.2868,Mapping
Blocked,Female,cave,9,F_gnash.wav,space,270.7421783,4340,259936.8124,252164.0273,252931.2955,253715.5867,254482.4366,255249.5732,256016.8606,256784.0311,260703.5935,261470.8352,262238.0784,263022.2952,263789.5131,264556.6788,265323.6306,251396.8806,264559.9975,Mapping
Blocked,Female,cave,9,F_priest.wav,space,191.802464,4340,259936.8124,252164.0273,252931.2955,253715.5867,254482.4366,255249.5732,256016.8606,256784.0311,260703.5935,261470.8352,262238.0784,263022.2952,263789.5131,264556.6788,265323.6306,266091.1397,265326.8621,Mapping
Blocked,Female,cave,9,F_jaw.wav,space,0.049577509,4340,259936.8124,266858.3429,252931.2955,253715.5867,254482.4366,255249.5732,256016.8606,256784.0311,260703.5935,261470.8352,262238.0784,263022.2952,263789.5131,264556.6788,265323.6306,266091.1397,266094.3935,Mapping
Blocked,Female,cave,9,F_cave.wav,None,734.5977702,4340,259936.8124,266858.3429,267625.2415,253715.5867,254482.4366,255249.5732,256016.8606,256784.0311,260703.5935,261470.8352,262238.0784,263022.2952,263789.5131,264556.6788,265323.6306,266091.1397,266861.4955,Mapping
Blocked,Female,cave,9,F_jolt.wav,None,738.5573606,4340,259936.8124,266858.3429,267625.2415,268392.5115,254482.4366,255249.5732,256016.8606,256784.0311,260703.5935,261470.8352,262238.0784,263022.2952,263789.5131,264556.6788,265323.6306,266091.1397,267628.2201,Mapping
Blocked,Female,cave,9,F_cling.wav,None,741.7023775,4340,259936.8124,266858.3429,267625.2415,268392.5115,269176.779,255249.5732,256016.8606,256784.0311,260703.5935,261470.8352,262238.0784,263022.2952,263789.5131,264556.6788,265323.6306,266091.1397,268395.393,Mapping
Blocked,Female,cave,9,F_cave.wav,None,726.9454064,4340,259936.8124,266858.3429,267625.2415,268392.5115,269176.779,269943.7446,256016.8606,256784.0311,260703.5935,261470.8352,262238.0784,263022.2952,263789.5131,264556.6788,265323.6306,266091.1397,269179.8438,Mapping
Blocked,Female,cave,9,F_romp.wav,None,730.1904798,4340,259936.8124,266858.3429,267625.2415,268392.5115,269176.779,269943.7446,270710.8498,256784.0311,260703.5935,261470.8352,262238.0784,263022.2952,263789.5131,264556.6788,265323.6306,266091.1397,269946.9998,Mapping
Blocked,Female,cave,9,F_cling.wav,None,733.2748018,4340,259936.8124,266858.3429,267625.2415,268392.5115,269176.779,269943.7446,270710.8498,271477.9852,260703.5935,261470.8352,262238.0784,263022.2952,263789.5131,264556.6788,265323.6306,266091.1397,270714.0318,Mapping
Blocked,Female,ball,6,F_reek.wav,None,736.954054,4340,274614.144,266858.3429,267625.2415,268392.5115,269176.779,269943.7446,270710.8498,271477.9852,260703.5935,261470.8352,262238.0784,263022.2952,263789.5131,264556.6788,265323.6306,266091.1397,271480.5245,Mapping
Blocked,Female,ball,6,F_cling.wav,None,731.2712695,4340,274614.144,266858.3429,267625.2415,268392.5115,269176.779,269943.7446,270710.8498,271477.9852,275380.9524,261470.8352,262238.0784,263022.2952,263789.5131,264556.6788,265323.6306,266091.1397,274617.2223,Mapping
Blocked,Female,ball,6,F_ball.wav,None,734.5109344,4340,274614.144,266858.3429,267625.2415,268392.5115,269176.779,269943.7446,270710.8498,271477.9852,275380.9524,276148.1592,262238.0784,263022.2952,263789.5131,264556.6788,265323.6306,266091.1397,275383.7323,Mapping
Blocked,Female,ball,6,F_knife.wav,None,737.6550499,4340,274614.144,266858.3429,267625.2415,268392.5115,269176.779,269943.7446,270710.8498,271477.9852,275380.9524,276148.1592,276915.2711,263022.2952,263789.5131,264556.6788,265323.6306,266091.1397,276150.8136,Mapping
Blocked,Female,ball,6,F_dime.wav,None,740.8150903,4340,274614.144,266858.3429,267625.2415,268392.5115,269176.779,269943.7446,270710.8498,271477.9852,275380.9524,276148.1592,276915.2711,277682.5525,263789.5131,264556.6788,265323.6306,266091.1397,276917.878,Mapping
Blocked,Female,ball,6,F_park.wav,None,742.7621343,4340,274614.144,266858.3429,267625.2415,268392.5115,269176.779,269943.7446,270710.8498,271477.9852,275380.9524,276148.1592,276915.2711,277682.5525,278467.5871,264556.6788,265323.6306,266091.1397,277685.5431,Mapping
Blocked,Female,ball,6,F_ball.wav,None,727.227848,4340,274614.144,266858.3429,267625.2415,268392.5115,269176.779,269943.7446,270710.8498,271477.9852,275380.9524,276148.1592,276915.2711,277682.5525,278467.5871,279234.1651,265323.6306,266091.1397,278470.8181,Mapping
Blocked,Female,ball,6,F_cad.wav,None,730.630668,4340,274614.144,266858.3429,267625.2415,268392.5115,269176.779,269943.7446,270710.8498,271477.9852,275380.9524,276148.1592,276915.2711,277682.5525,278467.5871,279234.1651,280000.8729,266091.1397,279237.7458,Mapping
Blocked,Female,ball,6,F_romp.wav,None,734.4757794,4340,274614.144,266858.3429,267625.2415,268392.5115,269176.779,269943.7446,270710.8498,271477.9852,275380.9524,276148.1592,276915.2711,277682.5525,278467.5871,279234.1651,280000.8729,280768.1927,280004.0383,Mapping
Blocked,Female,ball,6,F_depth.wav,None,737.7499983,4340,274614.144,281535.2941,267625.2415,268392.5115,269176.779,269943.7446,270710.8498,271477.9852,275380.9524,276148.1592,276915.2711,277682.5525,278467.5871,279234.1651,280000.8729,280768.1927,280771.1148,Mapping
Blocked,Female,ball,6,F_cad.wav,None,741.017006,4340,274614.144,281535.2941,282319.5114,268392.5115,269176.779,269943.7446,270710.8498,271477.9852,275380.9524,276148.1592,276915.2711,277682.5525,278467.5871,279234.1651,280000.8729,280768.1927,281538.1753,Mapping
Blocked,Female,ball,6,F_gnash.wav,None,726.4126736,4340,274614.144,281535.2941,282319.5114,283086.7063,269176.779,269943.7446,270710.8498,271477.9852,275380.9524,276148.1592,276915.2711,277682.5525,278467.5871,279234.1651,280000.8729,280768.1927,282322.9515,Mapping
Blocked,Female,ball,6,F_ball.wav,None,729.8118879,4340,274614.144,281535.2941,282319.5114,283086.7063,283853.6721,269943.7446,270710.8498,271477.9852,275380.9524,276148.1592,276915.2711,277682.5525,278467.5871,279234.1651,280000.8729,280768.1927,283090.0105,Mapping
Blocked,Female,ball,6,F_romp.wav,None,732.9539001,4340,274614.144,281535.2941,282319.5114,283086.7063,283853.6721,284620.9256,270710.8498,271477.9852,275380.9524,276148.1592,276915.2711,277682.5525,278467.5871,279234.1651,280000.8729,280768.1927,283857.0999,Mapping
Blocked,Female,ball,6,F_ball.wav,None,736.4669925,4340,274614.144,281535.2941,282319.5114,283086.7063,283853.6721,284620.9256,285388.1886,271477.9852,275380.9524,276148.1592,276915.2711,277682.5525,278467.5871,279234.1651,280000.8729,280768.1927,284623.734,Mapping
Blocked,Female,ball,6,F_romp.wav,None,739.4118966,4340,274614.144,281535.2941,282319.5114,283086.7063,283853.6721,284620.9256,285388.1886,286155.3708,275380.9524,276148.1592,276915.2711,277682.5525,278467.5871,279234.1651,280000.8729,280768.1927,285391.2807,Mapping
Blocked,Female,tile,18,F_greet.wav,None,742.0139646,4340,289307.9884,281535.2941,282319.5114,283086.7063,283853.6721,284620.9256,285388.1886,286155.3708,275380.9524,276148.1592,276915.2711,277682.5525,278467.5871,279234.1651,280000.8729,280768.1927,286158.5612,Mapping
Blocked,Female,tile,18,F_lash.wav,None,732.3649794,4340,289307.9884,281535.2941,282319.5114,283086.7063,283853.6721,284620.9256,285388.1886,286155.3708,290074.8488,276148.1592,276915.2711,277682.5525,278467.5871,279234.1651,280000.8729,280768.1927,289310.9354,Mapping
Blocked,Female,tile,18,F_tile.wav,None,736.0259029,4340,289307.9884,281535.2941,282319.5114,283086.7063,283853.6721,284620.9256,285388.1886,286155.3708,290074.8488,290842.1037,276915.2711,277682.5525,278467.5871,279234.1651,280000.8729,280768.1927,290077.5894,Mapping
Blocked,Female,tile,18,F_romp.wav,None,739.1489855,4340,289307.9884,281535.2941,282319.5114,283086.7063,283853.6721,284620.9256,285388.1886,286155.3708,290074.8488,290842.1037,291609.3572,277682.5525,278467.5871,279234.1651,280000.8729,280768.1927,290844.7728,Mapping
Blocked,Female,tile,18,F_tile.wav,None,741.8904716,4340,289307.9884,281535.2941,282319.5114,283086.7063,283853.6721,284620.9256,285388.1886,286155.3708,290074.8488,290842.1037,291609.3572,292393.4678,278467.5871,279234.1651,280000.8729,280768.1927,291612.2366,Mapping
Blocked,Female,tile,18,F_park.wav,None,727.6458014,4340,289307.9884,281535.2941,282319.5114,283086.7063,283853.6721,284620.9256,285388.1886,286155.3708,290074.8488,290842.1037,291609.3572,292393.4678,293160.4581,279234.1651,280000.8729,280768.1927,292396.6222,Mapping
Blocked,Female,tile,18,F_cad.wav,None,731.3082273,4340,289307.9884,281535.2941,282319.5114,283086.7063,283853.6721,284620.9256,285388.1886,286155.3708,290074.8488,290842.1037,291609.3572,292393.4678,293160.4581,293927.6243,280000.8729,280768.1927,293163.1085,Mapping
Blocked,Female,tile,18,F_jolt.wav,None,734.6752914,4340,289307.9884,281535.2941,282319.5114,283086.7063,283853.6721,284620.9256,285388.1886,286155.3708,290074.8488,290842.1037,291609.3572,292393.4678,293160.4581,293927.6243,294694.9084,280768.1927,293930.5684,Mapping
Blocked,Female,tile,18,F_jolt.wav,space,604.9597941,4340,289307.9884,281535.2941,282319.5114,283086.7063,283853.6721,284620.9256,285388.1886,286155.3708,290074.8488,290842.1037,291609.3572,292393.4678,293160.4581,293927.6243,294694.9084,295462.1264,294697.8389,Mapping
Blocked,Female,tile,18,F_knife.wav,None,738.970807,4340,289307.9884,296229.274,282319.5114,283086.7063,283853.6721,284620.9256,285388.1886,286155.3708,290074.8488,290842.1037,291609.3572,292393.4678,293160.4581,293927.6243,294694.9084,295462.1264,295465.1885,Mapping
Blocked,Female,tile,18,F_tile.wav,None,742.4250073,4340,289307.9884,296229.274,297014.1687,283086.7063,283853.6721,284620.9256,285388.1886,286155.3708,290074.8488,290842.1037,291609.3572,292393.4678,293160.4581,293927.6243,294694.9084,295462.1264,296232.1051,Mapping
Blocked,Female,tile,18,F_bluff.wav,None,726.4736689,4340,289307.9884,296229.274,297014.1687,297780.947,283853.6721,284620.9256,285388.1886,286155.3708,290074.8488,290842.1037,291609.3572,292393.4678,293160.4581,293927.6243,294694.9084,295462.1264,297017.737,Mapping
Blocked,Female,tile,18,F_reek.wav,None,730.7658794,4340,289307.9884,296229.274,297014.1687,297780.947,298547.7374,284620.9256,285388.1886,286155.3708,290074.8488,290842.1037,291609.3572,292393.4678,293160.4581,293927.6243,294694.9084,295462.1264,297784.2258,Mapping
Blocked,Female,tile,18,F_tile.wav,None,734.5992725,4340,289307.9884,296229.274,297014.1687,297780.947,298547.7374,299314.8713,285388.1886,286155.3708,290074.8488,290842.1037,291609.3572,292393.4678,293160.4581,293927.6243,294694.9084,295462.1264,298550.7992,Mapping
Blocked,Female,tile,18,F_knife.wav,None,737.8819046,4340,289307.9884,296229.274,297014.1687,297780.947,298547.7374,299314.8713,300082.0913,286155.3708,290074.8488,290842.1037,291609.3572,292393.4678,293160.4581,293927.6243,294694.9084,295462.1264,299317.6936,Mapping
Blocked,Female,tile,18,F_bluff.wav,None,740.8108837,4340,289307.9884,296229.274,297014.1687,297780.947,298547.7374,299314.8713,300082.0913,300866.345,290074.8488,290842.1037,291609.3572,292393.4678,293160.4581,293927.6243,294694.9084,295462.1264,300084.8004,Mapping
Blocked,Female,ball,2,F_dime.wav,None,726.9655379,4340,304001.9774,296229.274,297014.1687,297780.947,298547.7374,299314.8713,300082.0913,300866.345,290074.8488,290842.1037,291609.3572,292393.4678,293160.4581,293927.6243,294694.9084,295462.1264,300868.9931,Mapping
Blocked,Female,ball,2,F_depth.wav,None,731.9148757,4340,304001.9774,296229.274,297014.1687,297780.947,298547.7374,299314.8713,300082.0913,300866.345,304768.912,290842.1037,291609.3572,292393.4678,293160.4581,293927.6243,294694.9084,295462.1264,304005.3544,Mapping
Blocked,Female,ball,2,F_ball.wav,None,735.8979028,4340,304001.9774,296229.274,297014.1687,297780.947,298547.7374,299314.8713,300082.0913,300866.345,304768.912,305536.0876,291609.3572,292393.4678,293160.4581,293927.6243,294694.9084,295462.1264,304771.8152,Mapping
Blocked,Female,ball,2,F_jaw.wav,space,220.9230912,4340,304001.9774,296229.274,297014.1687,297780.947,298547.7374,299314.8713,300082.0913,300866.345,304768.912,305536.0876,306303.2659,292393.4678,293160.4581,293927.6243,294694.9084,295462.1264,305538.8222,Mapping
Blocked,Female,ball,2,F_greet.wav,None,740.0335685,4340,304001.9774,296229.274,297014.1687,297780.947,298547.7374,299314.8713,300082.0913,300866.345,304768.912,305536.0876,306303.2659,307087.5893,293160.4581,293927.6243,294694.9084,295462.1264,306306.6258,Mapping
Blocked,Female,ball,2,F_ball.wav,None,726.2462133,4340,304001.9774,296229.274,297014.1687,297780.947,298547.7374,299314.8713,300082.0913,300866.345,304768.912,305536.0876,306303.2659,307087.5893,307854.7187,293927.6243,294694.9084,295462.1264,307090.6752,Mapping
Blocked,Female,ball,2,F_dime.wav,space,279.8515199,4340,304001.9774,296229.274,297014.1687,297780.947,298547.7374,299314.8713,300082.0913,300866.345,304768.912,305536.0876,306303.2659,307087.5893,307854.7187,308621.5668,294694.9084,295462.1264,307857.9259,Mapping
Blocked,Female,ball,2,F_park.wav,None,731.966857,4340,304001.9774,296229.274,297014.1687,297780.947,298547.7374,299314.8713,300082.0913,300866.345,304768.912,305536.0876,306303.2659,307087.5893,307854.7187,308621.5668,309388.9235,295462.1264,308624.5426,Mapping
Blocked,Female,ball,2,F_ball.wav,None,735.0845312,4340,304001.9774,296229.274,297014.1687,297780.947,298547.7374,299314.8713,300082.0913,300866.345,304768.912,305536.0876,306303.2659,307087.5893,307854.7187,308621.5668,309388.9235,310156.0745,309391.8772,Mapping
Blocked,Female,ball,2,F_bluff.wav,space,392.8419691,4340,304001.9774,310923.7155,297014.1687,297780.947,298547.7374,299314.8713,300082.0913,300866.345,304768.912,305536.0876,306303.2659,307087.5893,307854.7187,308621.5668,309388.9235,310156.0745,310158.889,Mapping
Blocked,Female,ball,2,F_cling.wav,None,738.8464125,4340,304001.9774,310923.7155,311691.0312,297780.947,298547.7374,299314.8713,300082.0913,300866.345,304768.912,305536.0876,306303.2659,307087.5893,307854.7187,308621.5668,309388.9235,310156.0745,310926.7368,Mapping
Blocked,Female,ball,2,F_lash.wav,None,741.498659,4340,304001.9774,310923.7155,311691.0312,312474.82,298547.7374,299314.8713,300082.0913,300866.345,304768.912,305536.0876,306303.2659,307087.5893,307854.7187,308621.5668,309388.9235,310156.0745,311694.1089,Mapping
Blocked,Female,ball,2,F_ball.wav,None,728.5490135,4340,304001.9774,310923.7155,311691.0312,312474.82,313241.6964,299314.8713,300082.0913,300866.345,304768.912,305536.0876,306303.2659,307087.5893,307854.7187,308621.5668,309388.9235,310156.0745,312477.4888,Mapping
Blocked,Female,ball,2,F_park.wav,space,305.4473364,4340,304001.9774,310923.7155,311691.0312,312474.82,313241.6964,314008.8867,300082.0913,300866.345,304768.912,305536.0876,306303.2659,307087.5893,307854.7187,308621.5668,309388.9235,310156.0745,313244.3162,Mapping
Blocked,Female,ball,2,F_lash.wav,None,733.2892244,4340,304001.9774,310923.7155,311691.0312,312474.82,313241.6964,314008.8867,314776.1705,300866.345,304768.912,305536.0876,306303.2659,307087.5893,307854.7187,308621.5668,309388.9235,310156.0745,314011.6955,Mapping
Blocked,Female,ball,2,F_lash.wav,None,736.4567765,4340,304001.9774,310923.7155,311691.0312,312474.82,313241.6964,314008.8867,314776.1705,315543.3452,304768.912,305536.0876,306303.2659,307087.5893,307854.7187,308621.5668,309388.9235,310156.0745,314779.0406,Mapping
Blocked,Female,cave,12,F_lash.wav,None,739.4807041,4340,318696.0748,310923.7155,311691.0312,312474.82,313241.6964,314008.8867,314776.1705,315543.3452,304768.912,305536.0876,306303.2659,307087.5893,307854.7187,308621.5668,309388.9235,310156.0745,315546.3844,Mapping
Blocked,Female,cave,12,F_cave.wav,space,0.067906165,4340,318696.0748,310923.7155,311691.0312,312474.82,313241.6964,314008.8867,314776.1705,315543.3452,319462.9109,305536.0876,306303.2659,307087.5893,307854.7187,308621.5668,309388.9235,310156.0745,318699.1634,Mapping
Blocked,Female,cave,12,F_cad.wav,None,733.6993656,4340,318696.0748,310923.7155,311691.0312,312474.82,313241.6964,314008.8867,314776.1705,315543.3452,319462.9109,320230.1121,306303.2659,307087.5893,307854.7187,308621.5668,309388.9235,310156.0745,319466.0625,Mapping
Blocked,Female,cave,12,F_greet.wav,None,736.9366267,4340,318696.0748,310923.7155,311691.0312,312474.82,313241.6964,314008.8867,314776.1705,315543.3452,319462.9109,320230.1121,320997.3297,307087.5893,307854.7187,308621.5668,309388.9235,310156.0745,320232.6742,Mapping
Blocked,Female,cave,12,F_cave.wav,None,740.1576625,4340,318696.0748,310923.7155,311691.0312,312474.82,313241.6964,314008.8867,314776.1705,315543.3452,319462.9109,320230.1121,320997.3297,321781.5086,307854.7187,308621.5668,309388.9235,310156.0745,321000.0784,Mapping
Blocked,Female,cave,12,F_cad.wav,None,725.8237529,4340,318696.0748,310923.7155,311691.0312,312474.82,313241.6964,314008.8867,314776.1705,315543.3452,319462.9109,320230.1121,320997.3297,321781.5086,322548.6452,308621.5668,309388.9235,310156.0745,321784.3441,Mapping
Blocked,Female,cave,12,F_cave.wav,None,728.8410701,4340,318696.0748,310923.7155,311691.0312,312474.82,313241.6964,314008.8867,314776.1705,315543.3452,319462.9109,320230.1121,320997.3297,321781.5086,322548.6452,323315.7012,309388.9235,310156.0745,322551.8986,Mapping
Blocked,Female,cave,12,F_jaw.wav,None,732.7826324,4340,318696.0748,310923.7155,311691.0312,312474.82,313241.6964,314008.8867,314776.1705,315543.3452,319462.9109,320230.1121,320997.3297,321781.5086,322548.6452,323315.7012,324082.9309,310156.0745,323318.4697,Mapping
Blocked,Female,cave,12,F_cad.wav,None,735.4327756,4340,318696.0748,310923.7155,311691.0312,312474.82,313241.6964,314008.8867,314776.1705,315543.3452,319462.9109,320230.1121,320997.3297,321781.5086,322548.6452,323315.7012,324082.9309,324850.1542,324085.819,Mapping
Blocked,Female,cave,12,F_priest.wav,None,738.9215299,4340,318696.0748,325617.3073,311691.0312,312474.82,313241.6964,314008.8867,314776.1705,315543.3452,319462.9109,320230.1121,320997.3297,321781.5086,322548.6452,323315.7012,324082.9309,324850.1542,324852.8696,Mapping
Blocked,Female,cave,12,F_greet.wav,None,741.3517293,4340,318696.0748,325617.3073,326401.5517,312474.82,313241.6964,314008.8867,314776.1705,315543.3452,319462.9109,320230.1121,320997.3297,321781.5086,322548.6452,323315.7012,324082.9309,324850.1542,325620.3604,Mapping
Blocked,Female,cave,12,F_cave.wav,None,727.4159421,4340,318696.0748,325617.3073,326401.5517,327168.4539,313241.6964,314008.8867,314776.1705,315543.3452,319462.9109,320230.1121,320997.3297,321781.5086,322548.6452,323315.7012,324082.9309,324850.1542,326404.6916,Mapping
Blocked,Female,cave,12,F_jolt.wav,space,379.5074219,4340,318696.0748,325617.3073,326401.5517,327168.4539,327935.7169,314008.8867,314776.1705,315543.3452,319462.9109,320230.1121,320997.3297,321781.5086,322548.6452,323315.7012,324082.9309,324850.1542,327171.2672,Mapping
Blocked,Female,cave,12,F_gnash.wav,None,732.9190456,4340,318696.0748,325617.3073,326401.5517,327168.4539,327935.7169,328702.8805,314776.1705,315543.3452,319462.9109,320230.1121,320997.3297,321781.5086,322548.6452,323315.7012,324082.9309,324850.1542,327938.5807,Mapping
Blocked,Female,cave,12,F_cad.wav,None,736.1899594,4340,318696.0748,325617.3073,326401.5517,327168.4539,327935.7169,328702.8805,329470.1679,315543.3452,319462.9109,320230.1121,320997.3297,321781.5086,322548.6452,323315.7012,324082.9309,324850.1542,328706.1721,Mapping
Blocked,Female,cave,12,F_cad.wav,None,739.8448735,4340,318696.0748,325617.3073,326401.5517,327168.4539,327935.7169,328702.8805,329470.1679,330254.3077,319462.9109,320230.1121,320997.3297,321781.5086,322548.6452,323315.7012,324082.9309,324850.1542,329472.9433,Mapping
Blocked,Female,ball,1,F_park.wav,None,726.5487864,4340,333390.7498,325617.3073,326401.5517,327168.4539,327935.7169,328702.8805,329470.1679,330254.3077,319462.9109,320230.1121,320997.3297,321781.5086,322548.6452,323315.7012,324082.9309,324850.1542,330257.292,Mapping
Blocked,Female,ball,1,F_ball.wav,space,0.049577509,4340,333390.7498,325617.3073,326401.5517,327168.4539,327935.7169,328702.8805,329470.1679,330254.3077,334156.8744,320230.1121,320997.3297,321781.5086,322548.6452,323315.7012,324082.9309,324850.1542,333394.1749,Mapping
Blocked,Female,ball,1,F_reek.wav,space,269.1638107,4340,333390.7498,325617.3073,326401.5517,327168.4539,327935.7169,328702.8805,329470.1679,330254.3077,334156.8744,334924.0515,320997.3297,321781.5086,322548.6452,323315.7012,324082.9309,324850.1542,334159.5693,Mapping
Blocked,Female,ball,1,F_priest.wav,None,733.988117,4340,333390.7498,325617.3073,326401.5517,327168.4539,327935.7169,328702.8805,329470.1679,330254.3077,334156.8744,334924.0515,335691.2733,321781.5086,322548.6452,323315.7012,324082.9309,324850.1542,334927.0231,Mapping
Blocked,Female,ball,1,F_ball.wav,None,737.4369089,4340,333390.7498,325617.3073,326401.5517,327168.4539,327935.7169,328702.8805,329470.1679,330254.3077,334156.8744,334924.0515,335691.2733,336458.582,322548.6452,323315.7012,324082.9309,324850.1542,335693.9337,Mapping
Blocked,Female,ball,1,F_romp.wav,space,490.6674094,4340,333390.7498,325617.3073,326401.5517,327168.4539,327935.7169,328702.8805,329470.1679,330254.3077,334156.8744,334924.0515,335691.2733,336458.582,337225.6952,323315.7012,324082.9309,324850.1542,336461.1366,Mapping
Blocked,Female,ball,1,F_jolt.wav,None,741.4860393,4340,333390.7498,325617.3073,326401.5517,327168.4539,327935.7169,328702.8805,329470.1679,330254.3077,334156.8744,334924.0515,335691.2733,336458.582,337225.6952,338009.8623,324082.9309,324850.1542,337229.0265,Mapping
Blocked,Female,ball,1,F_ball.wav,None,728.2242057,4340,333390.7498,325617.3073,326401.5517,327168.4539,327935.7169,328702.8805,329470.1679,330254.3077,334156.8744,334924.0515,335691.2733,336458.582,337225.6952,338009.8623,338777.1849,324850.1542,338012.8168,Mapping
Blocked,Female,ball,1,F_priest.wav,space,299.544608,4340,333390.7498,325617.3073,326401.5517,327168.4539,327935.7169,328702.8805,329470.1679,330254.3077,334156.8744,334924.0515,335691.2733,336458.582,337225.6952,338009.8623,338777.1849,339544.5975,338780.2472,Mapping
Blocked,Female,ball,1,F_jaw.wav,None,732.5239279,4340,333390.7498,340311.2924,326401.5517,327168.4539,327935.7169,328702.8805,329470.1679,330254.3077,334156.8744,334924.0515,335691.2733,336458.582,337225.6952,338009.8623,338777.1849,339544.5975,339547.833,Mapping
Blocked,Female,ball,1,F_dime.wav,None,736.8798379,4340,333390.7498,340311.2924,341078.5016,327168.4539,327935.7169,328702.8805,329470.1679,330254.3077,334156.8744,334924.0515,335691.2733,336458.582,337225.6952,338009.8623,338777.1849,339544.5975,340314.0248,Mapping
Blocked,Female,ball,1,F_jaw.wav,None,740.2285734,4340,333390.7498,340311.2924,341078.5016,341862.7971,327935.7169,328702.8805,329470.1679,330254.3077,334156.8744,334924.0515,335691.2733,336458.582,337225.6952,338009.8623,338777.1849,339544.5975,341081.3023,Mapping
Blocked,Female,ball,1,F_ball.wav,space,207.8571639,4340,333390.7498,340311.2924,341078.5016,341862.7971,342630.1115,328702.8805,329470.1679,330254.3077,334156.8744,334924.0515,335691.2733,336458.582,337225.6952,338009.8623,338777.1849,339544.5975,341865.8709,Mapping
Blocked,Female,ball,1,F_knife.wav,space,276.6830663,4340,333390.7498,340311.2924,341078.5016,341862.7971,342630.1115,343397.7982,329470.1679,330254.3077,334156.8744,334924.0515,335691.2733,336458.582,337225.6952,338009.8623,338777.1849,339544.5975,342633.1054,Mapping
Blocked,Female,ball,1,F_dime.wav,None,727.1470217,4340,333390.7498,340311.2924,341078.5016,341862.7971,342630.1115,343397.7982,344164.4453,330254.3077,334156.8744,334924.0515,335691.2733,336458.582,337225.6952,338009.8623,338777.1849,339544.5975,343401.3996,Mapping
Blocked,Female,ball,1,F_jaw.wav,None,730.6823488,4340,333390.7498,340311.2924,341078.5016,341862.7971,342630.1115,343397.7982,344164.4453,344931.3225,334156.8744,334924.0515,335691.2733,336458.582,337225.6952,338009.8623,338777.1849,339544.5975,344168.3229,Mapping
Blocked,Female,tile,17,F_gnash.wav,None,735.5833109,4340,348067.4335,340311.2924,341078.5016,341862.7971,342630.1115,343397.7982,344164.4453,344931.3225,334156.8744,334924.0515,335691.2733,336458.582,337225.6952,338009.8623,338777.1849,339544.5975,344934.2488,Mapping
Blocked,Female,tile,17,F_depth.wav,space,0.0486761,4340,348067.4335,340311.2924,341078.5016,341862.7971,342630.1115,343397.7982,344164.4453,344931.3225,348834.2017,334924.0515,335691.2733,336458.582,337225.6952,338009.8623,338777.1849,339544.5975,348070.4376,Mapping
Blocked,Female,tile,17,F_tile.wav,None,733.6224453,4340,348067.4335,340311.2924,341078.5016,341862.7971,342630.1115,343397.7982,344164.4453,344931.3225,348834.2017,349601.401,335691.2733,336458.582,337225.6952,338009.8623,338777.1849,339544.5975,348837.3593,Mapping
Blocked,Female,tile,17,F_priest.wav,space,366.4886684,4340,348067.4335,340311.2924,341078.5016,341862.7971,342630.1115,343397.7982,344164.4453,344931.3225,348834.2017,349601.401,350369.0814,336458.582,337225.6952,338009.8623,338777.1849,339544.5975,349604.3132,Mapping
Blocked,Female,tile,17,F_greet.wav,None,737.8097918,4340,348067.4335,340311.2924,341078.5016,341862.7971,342630.1115,343397.7982,344164.4453,344931.3225,348834.2017,349601.401,350369.0814,351136.1507,337225.6952,338009.8623,338777.1849,339544.5975,350372.249,Mapping
Blocked,Female,tile,17,F_tile.wav,None,741.1293817,4340,348067.4335,340311.2924,341078.5016,341862.7971,342630.1115,343397.7982,344164.4453,344931.3225,348834.2017,349601.401,350369.0814,351136.1507,351920.0925,338009.8623,338777.1849,339544.5975,351139.5201,Mapping
Blocked,Female,tile,17,F_romp.wav,space,305.8124071,4340,348067.4335,340311.2924,341078.5016,341862.7971,342630.1115,343397.7982,344164.4453,344931.3225,348834.2017,349601.401,350369.0814,351136.1507,351920.0925,352687.272,338777.1849,339544.5975,351922.9505,Mapping
Blocked,Female,tile,17,F_jolt.wav,None,730.2746113,4340,348067.4335,340311.2924,341078.5016,341862.7971,342630.1115,343397.7982,344164.4453,344931.3225,348834.2017,349601.401,350369.0814,351136.1507,351920.0925,352687.272,353454.2355,339544.5975,352689.9519,Mapping
Blocked,Female,tile,17,F_jolt.wav,None,733.685544,4340,348067.4335,340311.2924,341078.5016,341862.7971,342630.1115,343397.7982,344164.4453,344931.3225,348834.2017,349601.401,350369.0814,351136.1507,351920.0925,352687.272,353454.2355,354221.3864,353457.281,Mapping
Blocked,Female,tile,17,F_tile.wav,None,737.4858854,4340,348067.4335,354988.6867,341078.5016,341862.7971,342630.1115,343397.7982,344164.4453,344931.3225,348834.2017,349601.401,350369.0814,351136.1507,351920.0925,352687.272,353454.2355,354221.3864,354224.1625,Mapping
Blocked,Female,tile,17,F_knife.wav,space,393.2304765,4340,348067.4335,354988.6867,355756.3842,341862.7971,342630.1115,343397.7982,344164.4453,344931.3225,348834.2017,349601.401,350369.0814,351136.1507,351920.0925,352687.272,353454.2355,354221.3864,354991.5439,Mapping
Blocked,Female,tile,17,F_tile.wav,None,741.4938515,4340,348067.4335,354988.6867,355756.3842,356540.8011,342630.1115,343397.7982,344164.4453,344931.3225,348834.2017,349601.401,350369.0814,351136.1507,351920.0925,352687.272,353454.2355,354221.3864,355759.5112,Mapping
Blocked,Female,tile,17,F_greet.wav,space,454.7312268,4340,348067.4335,354988.6867,355756.3842,356540.8011,357307.3277,343397.7982,344164.4453,344931.3225,348834.2017,349601.401,350369.0814,351136.1507,351920.0925,352687.272,353454.2355,354221.3864,356544.0486,Mapping
Blocked,Female,tile,17,F_park.wav,None,730.0904234,4340,348067.4335,354988.6867,355756.3842,356540.8011,357307.3277,358074.1178,344164.4453,344931.3225,348834.2017,349601.401,350369.0814,351136.1507,351920.0925,352687.272,353454.2355,354221.3864,357310.1972,Mapping
Blocked,Female,tile,17,F_reek.wav,None,734.0409997,4340,348067.4335,354988.6867,355756.3842,356540.8011,357307.3277,358074.1178,358841.4328,344931.3225,348834.2017,349601.401,350369.0814,351136.1507,351920.0925,352687.272,353454.2355,354221.3864,358077.2228,Mapping
Blocked,Female,tile,17,F_gnash.wav,None,737.7175476,4340,348067.4335,354988.6867,355756.3842,356540.8011,357307.3277,358074.1178,358841.4328,359608.7006,348834.2017,349601.401,350369.0814,351136.1507,351920.0925,352687.272,353454.2355,354221.3864,358844.149,Mapping
Blocked,Female,done,22,F_greet.wav,None,741.1350906,4340,362761.3155,354988.6867,355756.3842,356540.8011,357307.3277,358074.1178,358841.4328,359608.7006,348834.2017,349601.401,350369.0814,351136.1507,351920.0925,352687.272,353454.2355,354221.3864,359611.3694,Mapping
Blocked,Female,done,22,F_dime.wav,space,0.034554021,4340,362761.3155,354988.6867,355756.3842,356540.8011,357307.3277,358074.1178,358841.4328,359608.7006,363528.1672,349601.401,350369.0814,351136.1507,351920.0925,352687.272,353454.2355,354221.3864,362764.636,Mapping
Blocked,Female,done,22,F_jolt.wav,space,386.7601608,4340,362761.3155,354988.6867,355756.3842,356540.8011,357307.3277,358074.1178,358841.4328,359608.7006,363528.1672,364295.3353,350369.0814,351136.1507,351920.0925,352687.272,353454.2355,354221.3864,363531.0478,Mapping
Blocked,Female,done,22,F_dime.wav,None,734.2726619,4340,362761.3155,354988.6867,355756.3842,356540.8011,357307.3277,358074.1178,358841.4328,359608.7006,363528.1672,364295.3353,365062.5761,351136.1507,351920.0925,352687.272,353454.2355,354221.3864,364298.4338,Mapping
Blocked,Female,done,22,F_park.wav,None,737.8906182,4340,362761.3155,354988.6867,355756.3842,356540.8011,357307.3277,358074.1178,358841.4328,359608.7006,363528.1672,364295.3353,365062.5761,365830.3157,351920.0925,352687.272,353454.2355,354221.3864,365065.4486,Mapping
Blocked,Female,done,22,F_reek.wav,None,740.3770054,4340,362761.3155,354988.6867,355756.3842,356540.8011,357307.3277,358074.1178,358841.4328,359608.7006,363528.1672,364295.3353,365062.5761,365830.3157,366614.6532,352687.272,353454.2355,354221.3864,365833.4112,Mapping
Blocked,Female,done,22,F_done.wav,None,726.5590023,4340,362761.3155,354988.6867,355756.3842,356540.8011,357307.3277,358074.1178,358841.4328,359608.7006,363528.1672,364295.3353,365062.5761,365830.3157,366614.6532,367380.9446,353454.2355,354221.3864,366618.3193,Mapping
Blocked,Female,done,22,F_lash.wav,space,630.0520233,4340,362761.3155,354988.6867,355756.3842,356540.8011,357307.3277,358074.1178,358841.4328,359608.7006,363528.1672,364295.3353,365062.5761,365830.3157,366614.6532,367380.9446,368148.1803,354221.3864,367383.7711,Mapping
Blocked,Female,done,22,F_done.wav,None,732.9409799,4340,362761.3155,354988.6867,355756.3842,356540.8011,357307.3277,358074.1178,358841.4328,359608.7006,363528.1672,364295.3353,365062.5761,365830.3157,366614.6532,367380.9446,368148.1803,368915.413,368151.1495,Mapping
Blocked,Female,done,22,F_park.wav,space,385.591033,4340,362761.3155,369682.6357,355756.3842,356540.8011,357307.3277,358074.1178,358841.4328,359608.7006,363528.1672,364295.3353,365062.5761,365830.3157,366614.6532,367380.9446,368148.1803,368915.413,368918.2148,Mapping
Blocked,Female,done,22,F_done.wav,None,737.9182614,4340,362761.3155,369682.6357,370449.8645,356540.8011,357307.3277,358074.1178,358841.4328,359608.7006,363528.1672,364295.3353,365062.5761,365830.3157,366614.6532,367380.9446,368148.1803,368915.413,369685.4076,Mapping
Blocked,Female,done,22,F_cling.wav,space,519.3361301,4340,362761.3155,369682.6357,370449.8645,371216.9839,357307.3277,358074.1178,358841.4328,359608.7006,363528.1672,364295.3353,365062.5761,365830.3157,366614.6532,367380.9446,368148.1803,368915.413,370452.4828,Mapping
Blocked,Female,done,22,F_done.wav,None,743.3285198,4340,362761.3155,369682.6357,370449.8645,371216.9839,372001.4405,358074.1178,358841.4328,359608.7006,363528.1672,364295.3353,365062.5761,365830.3157,366614.6532,367380.9446,368148.1803,368915.413,371219.6067,Mapping
Blocked,Female,done,22,F_lash.wav,None,728.851887,4340,362761.3155,369682.6357,370449.8645,371216.9839,372001.4405,372768.1795,358841.4328,359608.7006,363528.1672,364295.3353,365062.5761,365830.3157,366614.6532,367380.9446,368148.1803,368915.413,372004.7276,Mapping
Blocked,Female,done,22,F_knife.wav,space,56.744915,4340,362761.3155,369682.6357,370449.8645,371216.9839,372001.4405,372768.1795,373535.7343,359608.7006,363528.1672,364295.3353,365062.5761,365830.3157,366614.6532,367380.9446,368148.1803,368915.413,372771.0625,Mapping
Blocked,Female,done,22,F_knife.wav,None,733.6720228,4340,362761.3155,369682.6357,370449.8645,371216.9839,372001.4405,372768.1795,373535.7343,374303.107,363528.1672,364295.3353,365062.5761,365830.3157,366614.6532,367380.9446,368148.1803,368915.413,373538.9607,Mapping
Blocked,Female,ball,4,F_priest.wav,None,736.7290021,4340,377438.7625,369682.6357,370449.8645,371216.9839,372001.4405,372768.1795,373535.7343,374303.107,363528.1672,364295.3353,365062.5761,365830.3157,366614.6532,367380.9446,368148.1803,368915.413,374306.4912,Mapping
Blocked,Female,ball,4,F_lash.wav,space,0.03545543,4340,377438.7625,369682.6357,370449.8645,371216.9839,372001.4405,372768.1795,373535.7343,374303.107,378205.9858,364295.3353,365062.5761,365830.3157,366614.6532,367380.9446,368148.1803,368915.413,377442.0226,Mapping
Blocked,Female,ball,4,F_jolt.wav,None,733.5656565,4340,377438.7625,369682.6357,370449.8645,371216.9839,372001.4405,372768.1795,373535.7343,374303.107,378205.9858,378973.1019,365062.5761,365830.3157,366614.6532,367380.9446,368148.1803,368915.413,378208.8785,Mapping
Blocked,Female,ball,4,F_lash.wav,None,737.5177352,4340,377438.7625,369682.6357,370449.8645,371216.9839,372001.4405,372768.1795,373535.7343,374303.107,378205.9858,378973.1019,379739.969,365830.3157,366614.6532,367380.9446,368148.1803,368915.413,378975.7341,Mapping
Blocked,Female,ball,4,F_ball.wav,None,741.3340016,4340,377438.7625,369682.6357,370449.8645,371216.9839,372001.4405,372768.1795,373535.7343,374303.107,378205.9858,378973.1019,379739.969,380524.1055,366614.6532,367380.9446,368148.1803,368915.413,379742.7414,Mapping
Blocked,Female,ball,4,F_cad.wav,None,726.75581,4340,377438.7625,369682.6357,370449.8645,371216.9839,372001.4405,372768.1795,373535.7343,374303.107,378205.9858,378973.1019,379739.969,380524.1055,381291.0323,367380.9446,368148.1803,368915.413,380528.182,Mapping
Blocked,Female,ball,4,F_ball.wav,space,370.5936862,4340,377438.7625,369682.6357,370449.8645,371216.9839,372001.4405,372768.1795,373535.7343,374303.107,378205.9858,378973.1019,379739.969,380524.1055,381291.0323,382058.2911,368148.1803,368915.413,381294.2464,Mapping
Blocked,Female,ball,4,F_depth.wav,space,581.3050123,4340,377438.7625,369682.6357,370449.8645,371216.9839,372001.4405,372768.1795,373535.7343,374303.107,378205.9858,378973.1019,379739.969,380524.1055,381291.0323,382058.2911,382825.5031,368915.413,382061.5765,Mapping
Blocked,Female,ball,4,F_cad.wav,None,735.165658,4340,377438.7625,369682.6357,370449.8645,371216.9839,372001.4405,372768.1795,373535.7343,374303.107,378205.9858,378973.1019,379739.969,380524.1055,381291.0323,382058.2911,382825.5031,383592.6997,382828.1559,Mapping
