"Condition","Talker","Target","Trial","current_stimulus","response_response","response_time_response","subject_nr","time_Audio1","time_Audio10","time_Audio11","time_Audio12","time_Audio13","time_Audio14","time_Audio15","time_Audio16","time_Audio2","time_Audio3","time_Audio4","time_Audio5","time_Audio6","time_Audio7","time_Audio8","time_Audio9","time_response"
"Mixed","Both","done","37","M_park.wav","NA","NA","112","55093.6325048","NA","NA","NA","NA","NA","NA","NA","NA","NA","NA","NA","NA","NA","NA","NA","NA"
"Mixed","Both","done","37","M_reek.wav","None","710.527283954","112","55093.6325048","NA","NA","NA","NA","NA","NA","NA","55860.0599855","NA","NA","NA","NA","NA","NA","NA","55114.9505494"
"Mixed","Both","done","37","F_park.wav","None","721.977168811","112","55093.6325048","NA","NA","NA","NA","NA","NA","NA","55860.0599855","56626.7035777","NA","NA","NA","NA","NA","NA","55869.1116214"
"Mixed","Both","done","37","F_ball.wav","None","721.333781374","112","55093.6325048","NA","NA","NA","NA","NA","NA","NA","55860.0599855","56626.7035777","57376.8417004","NA","NA","NA","NA","NA","56635.2342583"
"Mixed","Both","done","37","F_gnash.wav","None","735.939078149","112","55093.6325048","NA","NA","NA","NA","NA","NA","NA","55860.0599855","56626.7035777","57376.8417004","58142.7748147","NA","NA","NA","NA","57386.4823093"
"Mixed","Both","done","37","F_priest.wav","None","735.733478679","112","55093.6325048","NA","NA","NA","NA","NA","NA","NA","55860.0599855","56626.7035777","57376.8417004","58142.7748147","58909.3587366","NA","NA","NA","58152.3508066"
"Mixed","Both","done","37","F_done.wav","None","735.236020526","112","55093.6325048","NA","NA","NA","NA","NA","NA","NA","55860.0599855","56626.7035777","57376.8417004","58142.7748147","58909.3587366","59676.6967295","NA","NA","58918.5955665"
"Mixed","Both","done","37","M_jaw.wav","space","400.332607562","112","55093.6325048","NA","NA","NA","NA","NA","NA","NA","55860.0599855","56626.7035777","57376.8417004","58142.7748147","58909.3587366","59676.6967295","60443.089583","NA","59686.3181697"
"Mixed","Both","done","37","F_done.wav","None","732.485315064","112","55093.6325048","NA","NA","NA","NA","NA","NA","NA","55860.0599855","56626.7035777","57376.8417004","58142.7748147","58909.3587366","59676.6967295","60443.089583","61209.6212547","60452.7382303"
"Mixed","Both","done","37","F_romp.wav","space","539.963758783","112","55093.6325048","61976.4902333","NA","NA","NA","NA","NA","NA","55860.0599855","56626.7035777","57376.8417004","58142.7748147","58909.3587366","59676.6967295","60443.089583","61209.6212547","61218.6209495"
"Mixed","Both","done","37","M_done.wav","None","731.255737017","112","55093.6325048","61976.4902333","62743.2380165","NA","NA","NA","NA","NA","55860.0599855","56626.7035777","57376.8417004","58142.7748147","58909.3587366","59676.6967295","60443.089583","61209.6212547","61985.6129788"
"Mixed","Both","done","37","M_cave.wav","space","437.855606084","112","55093.6325048","61976.4902333","62743.2380165","63509.8791353","NA","NA","NA","NA","55860.0599855","56626.7035777","57376.8417004","58142.7748147","58909.3587366","59676.6967295","60443.089583","61209.6212547","62752.7357879"
"Mixed","Both","done","37","M_ball.wav","None","728.524509585","112","55093.6325048","61976.4902333","62743.2380165","63509.8791353","64276.6204259","NA","NA","NA","55860.0599855","56626.7035777","57376.8417004","58142.7748147","58909.3587366","59676.6967295","60443.089583","61209.6212547","63519.5831244"
"Mixed","Both","done","37","F_tile.wav","None","728.114856174","112","55093.6325048","61976.4902333","62743.2380165","63509.8791353","64276.6204259","65043.0024582","NA","NA","55860.0599855","56626.7035777","57376.8417004","58142.7748147","58909.3587366","59676.6967295","60443.089583","61209.6212547","64285.7703784"
"Mixed","Both","done","37","M_done.wav","None","727.84494888","112","55093.6325048","61976.4902333","62743.2380165","63509.8791353","64276.6204259","65043.0024582","65809.7344736","NA","55860.0599855","56626.7035777","57376.8417004","58142.7748147","58909.3587366","59676.6967295","60443.089583","61209.6212547","65051.860243"
"Mixed","Both","done","37","M_depth.wav","space","499.420147506","112","55093.6325048","61976.4902333","62743.2380165","63509.8791353","64276.6204259","65043.0024582","65809.7344736","66576.6699243","55860.0599855","56626.7035777","57376.8417004","58142.7748147","58909.3587366","59676.6967295","60443.089583","61209.6212547","65819.1036292"
"Mixed","Both","tile","35","M_done.wav","None","725.304480526","112","69743.4343409","61976.4902333","62743.2380165","63509.8791353","64276.6204259","65043.0024582","65809.7344736","66576.6699243","55860.0599855","56626.7035777","57376.8417004","58142.7748147","58909.3587366","59676.6967295","60443.089583","61209.6212547","66586.3114607"
"Mixed","Both","tile","35","F_tile.wav","None","721.839587204","112","69743.4343409","61976.4902333","62743.2380165","63509.8791353","64276.6204259","65043.0024582","65809.7344736","66576.6699243","70510.2220073","56626.7035777","57376.8417004","58142.7748147","58909.3587366","59676.6967295","60443.089583","61209.6212547","69753.161518"
"Mixed","Both","tile","35","M_greet.wav","space","454.920368153","112","69743.4343409","61976.4902333","62743.2380165","63509.8791353","64276.6204259","65043.0024582","65809.7344736","66576.6699243","70510.2220073","71276.8186053","57376.8417004","58142.7748147","58909.3587366","59676.6967295","60443.089583","61209.6212547","70519.4826435"
"Mixed","Both","tile","35","F_bluff.wav","None","720.913616358","112","69743.4343409","61976.4902333","62743.2380165","63509.8791353","64276.6204259","65043.0024582","65809.7344736","66576.6699243","70510.2220073","71276.8186053","72043.8854542","58142.7748147","58909.3587366","59676.6967295","60443.089583","61209.6212547","71286.516411"
"Mixed","Both","tile","35","M_done.wav","None","718.971396214","112","69743.4343409","61976.4902333","62743.2380165","63509.8791353","64276.6204259","65043.0024582","65809.7344736","66576.6699243","70510.2220073","71276.8186053","72043.8854542","72810.0352982","58909.3587366","59676.6967295","60443.089583","61209.6212547","72054.2056237"
"Mixed","Both","tile","35","M_dime.wav","None","719.000767684","112","69743.4343409","61976.4902333","62743.2380165","63509.8791353","64276.6204259","65043.0024582","65809.7344736","66576.6699243","70510.2220073","71276.8186053","72043.8854542","72810.0352982","73560.0448052","59676.6967295","60443.089583","61209.6212547","72820.1068932"
"Mixed","Both","tile","35","M_tile.wav","None","735.505000455","112","69743.4343409","61976.4902333","62743.2380165","63509.8791353","64276.6204259","65043.0024582","65809.7344736","66576.6699243","70510.2220073","71276.8186053","72043.8854542","72810.0352982","73560.0448052","74326.2162913","60443.089583","61209.6212547","73569.5982275"
"Mixed","Both","tile","35","F_depth.wav","space","502.810839447","112","69743.4343409","61976.4902333","62743.2380165","63509.8791353","64276.6204259","65043.0024582","65809.7344736","66576.6699243","70510.2220073","71276.8186053","72043.8854542","72810.0352982","73560.0448052","74326.2162913","75092.9034767","61209.6212547","74335.4936228"
"Mixed","Both","tile","35","M_cad.wav","None","733.880300308","112","69743.4343409","61976.4902333","62743.2380165","63509.8791353","64276.6204259","65043.0024582","65809.7344736","66576.6699243","70510.2220073","71276.8186053","72043.8854542","72810.0352982","73560.0448052","74326.2162913","75092.9034767","75859.6926889","75102.7509219"
"Mixed","Both","tile","35","F_tile.wav","None","733.610083698","112","69743.4343409","76626.1575795","62743.2380165","63509.8791353","64276.6204259","65043.0024582","65809.7344736","66576.6699243","70510.2220073","71276.8186053","72043.8854542","72810.0352982","73560.0448052","74326.2162913","75092.9034767","75859.6926889","75869.0602988"
"Mixed","Both","tile","35","F_priest.wav","space","475.21165153","112","69743.4343409","76626.1575795","77393.0791175","63509.8791353","64276.6204259","65043.0024582","65809.7344736","66576.6699243","70510.2220073","71276.8186053","72043.8854542","72810.0352982","73560.0448052","74326.2162913","75092.9034767","75859.6926889","76635.0697787"
"Mixed","Both","tile","35","F_depth.wav","None","731.589333853","112","69743.4343409","76626.1575795","77393.0791175","78159.579872","64276.6204259","65043.0024582","65809.7344736","66576.6699243","70510.2220073","71276.8186053","72043.8854542","72810.0352982","73560.0448052","74326.2162913","75092.9034767","75859.6926889","77402.503615"
"Mixed","Both","tile","35","F_cad.wav","None","731.140415883","112","69743.4343409","76626.1575795","77393.0791175","78159.579872","78926.4012382","65043.0024582","65809.7344736","66576.6699243","70510.2220073","71276.8186053","72043.8854542","72810.0352982","73560.0448052","74326.2162913","75092.9034767","75859.6926889","78169.4461766"
"Mixed","Both","tile","35","M_tile.wav","None","730.739419349","112","69743.4343409","76626.1575795","77393.0791175","78159.579872","78926.4012382","79692.7956374","65809.7344736","66576.6699243","70510.2220073","71276.8186053","72043.8854542","72810.0352982","73560.0448052","74326.2162913","75092.9034767","75859.6926889","78935.8328467"
"Mixed","Both","tile","35","F_cave.wav","space","504.337222781","112","69743.4343409","76626.1575795","77393.0791175","78159.579872","78926.4012382","79692.7956374","80459.5780479","66576.6699243","70510.2220073","71276.8186053","72043.8854542","72810.0352982","73560.0448052","74326.2162913","75092.9034767","75859.6926889","79701.8766446"
"Mixed","Both","tile","35","M_cad.wav","None","729.039281257","112","69743.4343409","76626.1575795","77393.0791175","78159.579872","78926.4012382","79692.7956374","80459.5780479","81226.3317053","70510.2220073","71276.8186053","72043.8854542","72810.0352982","73560.0448052","74326.2162913","75092.9034767","75859.6926889","80469.0733459"
"Mixed","Both","cave","15","M_tile.wav","None","729.094004724","112","84359.8678351","76626.1575795","77393.0791175","78159.579872","78926.4012382","79692.7956374","80459.5780479","81226.3317053","70510.2220073","71276.8186053","72043.8854542","72810.0352982","73560.0448052","74326.2162913","75092.9034767","75859.6926889","81235.3344919"
"Mixed","Both","cave","15","F_cave.wav","None","722.001284361","112","84359.8678351","76626.1575795","77393.0791175","78159.579872","78926.4012382","79692.7956374","80459.5780479","81226.3317053","85126.6026329","71276.8186053","72043.8854542","72810.0352982","73560.0448052","74326.2162913","75092.9034767","75859.6926889","84369.9647821"
"Mixed","Both","cave","15","F_reek.wav","space","541.63390724","112","84359.8678351","76626.1575795","77393.0791175","78159.579872","78926.4012382","79692.7956374","80459.5780479","81226.3317053","85126.6026329","85893.3463969","72043.8854542","72810.0352982","73560.0448052","74326.2162913","75092.9034767","75859.6926889","85136.4525515"
"Mixed","Both","cave","15","F_romp.wav","None","720.39482533","112","84359.8678351","76626.1575795","77393.0791175","78159.579872","78926.4012382","79692.7956374","80459.5780479","81226.3317053","85126.6026329","85893.3463969","86659.6508271","72810.0352982","73560.0448052","74326.2162913","75092.9034767","75859.6926889","85902.7699669"
"Mixed","Both","cave","15","F_cling.wav","None","719.621894648","112","84359.8678351","76626.1575795","77393.0791175","78159.579872","78926.4012382","79692.7956374","80459.5780479","81226.3317053","85126.6026329","85893.3463969","86659.6508271","87409.685377","73560.0448052","74326.2162913","75092.9034767","75859.6926889","86669.244751"
"Mixed","Both","cave","15","M_cave.wav","space","79.8415677855","112","84359.8678351","76626.1575795","77393.0791175","78159.579872","78926.4012382","79692.7956374","80459.5780479","81226.3317053","85126.6026329","85893.3463969","86659.6508271","87409.685377","88176.4183199","74326.2162913","75092.9034767","75859.6926889","87414.1578627"
"Mixed","Both","cave","15","M_depth.wav","space","548.2409182","112","84359.8678351","76626.1575795","77393.0791175","78159.579872","78926.4012382","79692.7956374","80459.5780479","81226.3317053","85126.6026329","85893.3463969","86659.6508271","87409.685377","88176.4183199","88942.4435676","75092.9034767","75859.6926889","88185.780983"
"Mixed","Both","cave","15","M_bluff.wav","None","734.255635296","112","84359.8678351","76626.1575795","77393.0791175","78159.579872","78926.4012382","79692.7956374","80459.5780479","81226.3317053","85126.6026329","85893.3463969","86659.6508271","87409.685377","88176.4183199","88942.4435676","89709.3425359","75859.6926889","88951.6912185"
"Mixed","Both","cave","15","F_cave.wav","None","733.193319524","112","84359.8678351","76626.1575795","77393.0791175","78159.579872","78926.4012382","79692.7956374","80459.5780479","81226.3317053","85126.6026329","85893.3463969","86659.6508271","87409.685377","88176.4183199","88942.4435676","89709.3425359","90476.2343933","89718.7636326"
"Mixed","Both","cave","15","F_bluff.wav","space","463.663449977","112","84359.8678351","91242.6937188","77393.0791175","78159.579872","78926.4012382","79692.7956374","80459.5780479","81226.3317053","85126.6026329","85893.3463969","86659.6508271","87409.685377","88176.4183199","88942.4435676","89709.3425359","90476.2343933","90486.2361155"
"Mixed","Both","cave","15","M_park.wav","None","731.43938533","112","84359.8678351","91242.6937188","92009.3138139","78159.579872","78926.4012382","79692.7956374","80459.5780479","81226.3317053","85126.6026329","85893.3463969","86659.6508271","87409.685377","88176.4183199","88942.4435676","89709.3425359","90476.2343933","91252.1475877"
"Mixed","Both","cave","15","M_cave.wav","None","730.44199578","112","84359.8678351","91242.6937188","92009.3138139","92776.0297522","78926.4012382","79692.7956374","80459.5780479","81226.3317053","85126.6026329","85893.3463969","86659.6508271","87409.685377","88176.4183199","88942.4435676","89709.3425359","90476.2343933","92018.9293798"
"Mixed","Both","cave","15","M_cling.wav","None","730.072534876","112","84359.8678351","91242.6937188","92009.3138139","92776.0297522","93542.6847837","79692.7956374","80459.5780479","81226.3317053","85126.6026329","85893.3463969","86659.6508271","87409.685377","88176.4183199","88942.4435676","89709.3425359","90476.2343933","92785.102721"
"Mixed","Both","cave","15","F_dime.wav","space","0.0346272718161","112","84359.8678351","91242.6937188","92009.3138139","92776.0297522","93542.6847837","94310.0407086","80459.5780479","81226.3317053","85126.6026329","85893.3463969","86659.6508271","87409.685377","88176.4183199","88942.4435676","89709.3425359","90476.2343933","93552.4252553"
"Mixed","Both","cave","15","F_bluff.wav","None","727.429421386","112","84359.8678351","91242.6937188","92009.3138139","92776.0297522","93542.6847837","94310.0407086","95075.7036065","81226.3317053","85126.6026329","85893.3463969","86659.6508271","87409.685377","88176.4183199","88942.4435676","89709.3425359","90476.2343933","94319.0703932"
"Mixed","Both","cave","15","M_gnash.wav","None","727.587717585","112","84359.8678351","91242.6937188","92009.3138139","92776.0297522","93542.6847837","94310.0407086","95075.7036065","95842.6712111","85126.6026329","85893.3463969","86659.6508271","87409.685377","88176.4183199","88942.4435676","89709.3425359","90476.2343933","95084.964861"
"Mixed","Both","done","47","M_jolt.wav","None","726.406061207","112","98975.4109131","91242.6937188","92009.3138139","92776.0297522","93542.6847837","94310.0407086","95075.7036065","95842.6712111","85126.6026329","85893.3463969","86659.6508271","87409.685377","88176.4183199","88942.4435676","89709.3425359","90476.2343933","95852.0177972"
"Mixed","Both","done","47","M_cad.wav","None","727.534539881","112","98975.4109131","91242.6937188","92009.3138139","92776.0297522","93542.6847837","94310.0407086","95075.7036065","95842.6712111","99742.5593835","85893.3463969","86659.6508271","87409.685377","88176.4183199","88942.4435676","89709.3425359","90476.2343933","98984.2349981"
"Mixed","Both","done","47","M_tile.wav","None","725.322103361","112","98975.4109131","91242.6937188","92009.3138139","92776.0297522","93542.6847837","94310.0407086","95075.7036065","95842.6712111","99742.5593835","100509.176387","86659.6508271","87409.685377","88176.4183199","88942.4435676","89709.3425359","90476.2343933","99752.1335203"
"Mixed","Both","done","47","F_jaw.wav","None","724.836703041","112","98975.4109131","91242.6937188","92009.3138139","92776.0297522","93542.6847837","94310.0407086","95075.7036065","95842.6712111","99742.5593835","100509.176387","101276.388547","87409.685377","88176.4183199","88942.4435676","89709.3425359","90476.2343933","100518.500094"
"Mixed","Both","done","47","M_done.wav","None","723.289605114","112","98975.4109131","91242.6937188","92009.3138139","92776.0297522","93542.6847837","94310.0407086","95075.7036065","95842.6712111","99742.5593835","100509.176387","101276.388547","102042.902286","88176.4183199","88942.4435676","89709.3425359","90476.2343933","101286.044305"
"Mixed","Both","done","47","M_bluff.wav","space","449.157088296","112","98975.4109131","91242.6937188","92009.3138139","92776.0297522","93542.6847837","94310.0407086","95075.7036065","95842.6712111","99742.5593835","100509.176387","101276.388547","102042.902286","102809.124786","88942.4435676","89709.3425359","90476.2343933","102052.58587"
"Mixed","Both","done","47","F_cad.wav","None","723.494276986","112","98975.4109131","91242.6937188","92009.3138139","92776.0297522","93542.6847837","94310.0407086","95075.7036065","95842.6712111","99742.5593835","100509.176387","101276.388547","102042.902286","102809.124786","103576.737015","89709.3425359","90476.2343933","102817.94918"
"Mixed","Both","done","47","M_tile.wav","None","720.831067301","112","98975.4109131","91242.6937188","92009.3138139","92776.0297522","93542.6847837","94310.0407086","95075.7036065","95842.6712111","99742.5593835","100509.176387","101276.388547","102042.902286","102809.124786","103576.737015","104343.06927","90476.2343933","103586.584151"
"Mixed","Both","done","47","M_done.wav","None","720.564251649","112","98975.4109131","91242.6937188","92009.3138139","92776.0297522","93542.6847837","94310.0407086","95075.7036065","95842.6712111","99742.5593835","100509.176387","101276.388547","102042.902286","102809.124786","103576.737015","104343.06927","105109.308774","104352.868175"
"Mixed","Both","done","47","F_greet.wav","space","526.52033139","112","98975.4109131","105876.109426","92009.3138139","92776.0297522","93542.6847837","94310.0407086","95075.7036065","95842.6712111","99742.5593835","100509.176387","101276.388547","102042.902286","102809.124786","103576.737015","104343.06927","105109.308774","105119.142925"
"Mixed","Both","done","47","F_done.wav","None","718.648620532","112","98975.4109131","105876.109426","106625.235319","92776.0297522","93542.6847837","94310.0407086","95075.7036065","95842.6712111","99742.5593835","100509.176387","101276.388547","102042.902286","102809.124786","103576.737015","104343.06927","105109.308774","105886.328805"
"Mixed","Both","done","47","F_jaw.wav","space","563.452810864","112","98975.4109131","105876.109426","106625.235319","107392.172006","93542.6847837","94310.0407086","95075.7036065","95842.6712111","99742.5593835","100509.176387","101276.388547","102042.902286","102809.124786","103576.737015","104343.06927","105109.308774","106634.189565"
"Mixed","Both","done","47","M_jolt.wav","None","741.039183573","112","98975.4109131","105876.109426","106625.235319","107392.172006","108158.648027","94310.0407086","95075.7036065","95842.6712111","99742.5593835","100509.176387","101276.388547","102042.902286","102809.124786","103576.737015","104343.06927","105109.308774","107395.721922"
"Mixed","Both","done","47","F_greet.wav","None","734.808744513","112","98975.4109131","105876.109426","106625.235319","107392.172006","108158.648027","108925.650259","95075.7036065","95842.6712111","99742.5593835","100509.176387","101276.388547","102042.902286","102809.124786","103576.737015","104343.06927","105109.308774","108167.8425"
"Mixed","Both","done","47","F_done.wav","None","734.327363316","112","98975.4109131","105876.109426","106625.235319","107392.172006","108158.648027","108925.650259","109692.021779","95842.6712111","99742.5593835","100509.176387","101276.388547","102042.902286","102809.124786","103576.737015","104343.06927","105109.308774","108934.807013"
"Mixed","Both","done","47","F_park.wav","space","488.658170798","112","98975.4109131","105876.109426","106625.235319","107392.172006","108158.648027","108925.650259","109692.021779","110459.127893","99742.5593835","100509.176387","101276.388547","102042.902286","102809.124786","103576.737015","104343.06927","105109.308774","109700.908626"
"Mixed","Both","done","39","M_priest.wav","None","731.942717801","112","113592.674844","105876.109426","106625.235319","107392.172006","108158.648027","108925.650259","109692.021779","110459.127893","99742.5593835","100509.176387","101276.388547","102042.902286","102809.124786","103576.737015","104343.06927","105109.308774","110468.834974"
"Mixed","Both","done","39","F_bluff.wav","None","721.714372514","112","113592.674844","105876.109426","106625.235319","107392.172006","108158.648027","108925.650259","109692.021779","110459.127893","114359.389236","100509.176387","101276.388547","102042.902286","102809.124786","103576.737015","104343.06927","105109.308774","113602.511777"
"Mixed","Both","done","39","M_done.wav","None","720.964320586","112","113592.674844","105876.109426","106625.235319","107392.172006","108158.648027","108925.650259","109692.021779","110459.127893","114359.389236","115125.892774","101276.388547","102042.902286","102809.124786","103576.737015","104343.06927","105109.308774","114369.320467"
"Mixed","Both","done","39","F_depth.wav","space","421.550789382","112","113592.674844","105876.109426","106625.235319","107392.172006","108158.648027","108925.650259","109692.021779","110459.127893","114359.389236","115125.892774","115892.577176","102042.902286","102809.124786","103576.737015","104343.06927","105109.308774","115135.87409"
"Mixed","Both","done","39","F_done.wav","None","720.039895619","112","113592.674844","105876.109426","106625.235319","107392.172006","108158.648027","108925.650259","109692.021779","110459.127893","114359.389236","115125.892774","115892.577176","116658.684664","102809.124786","103576.737015","104343.06927","105109.308774","115902.286112"
"Mixed","Both","done","39","F_priest.wav","space","545.633359463","112","113592.674844","105876.109426","106625.235319","107392.172006","108158.648027","108925.650259","109692.021779","110459.127893","114359.389236","115125.892774","115892.577176","116658.684664","117425.98401","103576.737015","104343.06927","105109.308774","116667.799371"
"Mixed","Both","done","39","F_done.wav","None","718.842162285","112","113592.674844","105876.109426","106625.235319","107392.172006","108158.648027","108925.650259","109692.021779","110459.127893","114359.389236","115125.892774","115892.577176","116658.684664","117425.98401","118175.771222","104343.06927","105109.308774","117435.44499"
"Mixed","Both","done","39","M_knife.wav","space","515.87955025","112","113592.674844","105876.109426","106625.235319","107392.172006","108158.648027","108925.650259","109692.021779","110459.127893","114359.389236","115125.892774","115892.577176","116658.684664","117425.98401","118175.771222","118942.091111","105109.308774","118185.518496"
"Mixed","Both","done","39","F_gnash.wav","None","734.410839737","112","113592.674844","105876.109426","106625.235319","107392.172006","108158.648027","108925.650259","109692.021779","110459.127893","114359.389236","115125.892774","115892.577176","116658.684664","117425.98401","118175.771222","118942.091111","119708.46696","118951.710387"
"Mixed","Both","done","39","M_romp.wav","None","734.760513529","112","113592.674844","120475.482486","106625.235319","107392.172006","108158.648027","108925.650259","109692.021779","110459.127893","114359.389236","115125.892774","115892.577176","116658.684664","117425.98401","118175.771222","118942.091111","119708.46696","119717.396473"
"Mixed","Both","done","39","M_romp.wav","None","733.722004108","112","113592.674844","120475.482486","121242.09207","107392.172006","108158.648027","108925.650259","109692.021779","110459.127893","114359.389236","115125.892774","115892.577176","116658.684664","117425.98401","118175.771222","118942.091111","119708.46696","120484.521446"
"Mixed","Both","done","39","F_park.wav","None","732.797579025","112","113592.674844","120475.482486","121242.09207","122008.624051","108158.648027","108925.650259","109692.021779","110459.127893","114359.389236","115125.892774","115892.577176","116658.684664","117425.98401","118175.771222","118942.091111","119708.46696","121251.616739"
"Mixed","Both","done","39","M_tile.wav","None","732.679784414","112","113592.674844","120475.482486","121242.09207","122008.624051","122775.446963","108925.650259","109692.021779","110459.127893","114359.389236","115125.892774","115892.577176","116658.684664","117425.98401","118175.771222","118942.091111","119708.46696","122018.097088"
"Mixed","Both","done","39","M_done.wav","None","732.292700792","112","113592.674844","120475.482486","121242.09207","122008.624051","122775.446963","123541.982963","109692.021779","110459.127893","114359.389236","115125.892774","115892.577176","116658.684664","117425.98401","118175.771222","118942.091111","119708.46696","122784.472319"
"Mixed","Both","done","39","F_greet.wav","space","485.895716818","112","113592.674844","120475.482486","121242.09207","122008.624051","122775.446963","123541.982963","124308.645414","110459.127893","114359.389236","115125.892774","115892.577176","116658.684664","117425.98401","118175.771222","118942.091111","119708.46696","123551.387673"
"Mixed","Both","done","39","M_dime.wav","None","730.161267333","112","113592.674844","120475.482486","121242.09207","122008.624051","122775.446963","123541.982963","124308.645414","125075.281586","114359.389236","115125.892774","115892.577176","116658.684664","117425.98401","118175.771222","118942.091111","119708.46696","124318.371046"
"Mixed","Both","cave","13","M_cad.wav","None","730.29853974","112","128208.926235","120475.482486","121242.09207","122008.624051","122775.446963","123541.982963","124308.645414","125075.281586","114359.389236","115125.892774","115892.577176","116658.684664","117425.98401","118175.771222","118942.091111","119708.46696","125084.499557"
"Mixed","Both","cave","13","F_cave.wav","None","721.882871352","112","128208.926235","120475.482486","121242.09207","122008.624051","122775.446963","123541.982963","124308.645414","125075.281586","128975.780992","115125.892774","115892.577176","116658.684664","117425.98401","118175.771222","118942.091111","119708.46696","128218.85252"
"Mixed","Both","cave","13","M_priest.wav","space","579.404862016","112","128208.926235","120475.482486","121242.09207","122008.624051","122775.446963","123541.982963","124308.645414","125075.281586","128975.780992","129742.487037","115892.577176","116658.684664","117425.98401","118175.771222","118942.091111","119708.46696","128985.717479"
"Mixed","Both","cave","13","F_jolt.wav","None","719.915299094","112","128208.926235","120475.482486","121242.09207","122008.624051","122775.446963","123541.982963","124308.645414","125075.281586","128975.780992","129742.487037","130508.890402","116658.684664","117425.98401","118175.771222","118942.091111","119708.46696","129752.237402"
"Mixed","Both","cave","13","M_cave.wav","None","719.371465268","112","128208.926235","120475.482486","121242.09207","122008.624051","122775.446963","123541.982963","124308.645414","125075.281586","128975.780992","129742.487037","130508.890402","131275.328086","117425.98401","118175.771222","118942.091111","119708.46696","130518.746814"
"Mixed","Both","cave","13","F_bluff.wav","space","576.894383412","112","128208.926235","120475.482486","121242.09207","122008.624051","122775.446963","123541.982963","124308.645414","125075.281586","128975.780992","129742.487037","130508.890402","131275.328086","132025.063666","118175.771222","118942.091111","119708.46696","131284.16732"
"Mixed","Both","cave","13","M_cave.wav","None","735.544883646","112","128208.926235","120475.482486","121242.09207","122008.624051","122775.446963","123541.982963","124308.645414","125075.281586","128975.780992","129742.487037","130508.890402","131275.328086","132025.063666","132791.421583","118942.091111","119708.46696","132034.662228"
"Mixed","Both","cave","13","M_reek.wav","space","676.523283939","112","128208.926235","120475.482486","121242.09207","122008.624051","122775.446963","123541.982963","124308.645414","125075.281586","128975.780992","129742.487037","130508.890402","131275.328086","132025.063666","132791.421583","133558.226563","119708.46696","132800.578956"
"Mixed","Both","cave","13","M_greet.wav","None","734.009843436","112","128208.926235","120475.482486","121242.09207","122008.624051","122775.446963","123541.982963","124308.645414","125075.281586","128975.780992","129742.487037","130508.890402","131275.328086","132025.063666","132791.421583","133558.226563","134325.199733","133567.689707"
"Mixed","Both","cave","13","M_park.wav","None","733.034095843","112","128208.926235","135091.827867","121242.09207","122008.624051","122775.446963","123541.982963","124308.645414","125075.281586","128975.780992","129742.487037","130508.890402","131275.328086","132025.063666","132791.421583","133558.226563","134325.199733","134334.703997"
"Mixed","Both","cave","13","F_cling.wav","None","732.591670356","112","128208.926235","135091.827867","135858.43714","122008.624051","122775.446963","123541.982963","124308.645414","125075.281586","128975.780992","129742.487037","130508.890402","131275.328086","132025.063666","132791.421583","133558.226563","134325.199733","135101.304305"
"Mixed","Both","cave","13","F_cave.wav","None","732.101632282","112","128208.926235","135091.827867","135858.43714","136625.146895","122775.446963","123541.982963","124308.645414","125075.281586","128975.780992","129742.487037","130508.890402","131275.328086","132025.063666","132791.421583","133558.226563","134325.199733","135867.951607"
"Mixed","Both","cave","13","M_ball.wav","space","618.49598214","112","128208.926235","135091.827867","135858.43714","136625.146895","137391.762662","123541.982963","124308.645414","125075.281586","128975.780992","129742.487037","130508.890402","131275.328086","132025.063666","132791.421583","133558.226563","134325.199733","136634.519452"
"Mixed","Both","cave","13","F_park.wav","None","730.151992175","112","128208.926235","135091.827867","135858.43714","136625.146895","137391.762662","138158.593922","124308.645414","125075.281586","128975.780992","129742.487037","130508.890402","131275.328086","132025.063666","132791.421583","133558.226563","134325.199733","137401.765621"
"Mixed","Both","cave","13","F_tile.wav","None","729.392974288","112","128208.926235","135091.827867","135858.43714","136625.146895","137391.762662","138158.593922","138925.083855","125075.281586","128975.780992","129742.487037","130508.890402","131275.328086","132025.063666","132791.421583","133558.226563","134325.199733","138168.598426"
"Mixed","Both","cave","13","F_ball.wav","None","729.055049014","112","128208.926235","135091.827867","135858.43714","136625.146895","137391.762662","138158.593922","138925.083855","139691.351803","128975.780992","129742.487037","130508.890402","131275.328086","132025.063666","132791.421583","133558.226563","134325.199733","138935.112166"
"Mixed","Both","ball","3","F_jolt.wav","None","729.863843648","112","142825.036336","135091.827867","135858.43714","136625.146895","137391.762662","138158.593922","138925.083855","139691.351803","128975.780992","129742.487037","130508.890402","131275.328086","132025.063666","132791.421583","133558.226563","134325.199733","139700.619241"
"Mixed","Both","ball","3","F_ball.wav","None","722.919525928","112","142825.036336","135091.827867","135858.43714","136625.146895","137391.762662","138158.593922","138925.083855","139691.351803","143592.068557","129742.487037","130508.890402","131275.328086","132025.063666","132791.421583","133558.226563","134325.199733","142834.698896"
"Mixed","Both","ball","3","F_tile.wav","space","458.978872048","112","142825.036336","135091.827867","135858.43714","136625.146895","137391.762662","138158.593922","138925.083855","139691.351803","143592.068557","144358.790988","130508.890402","131275.328086","132025.063666","132791.421583","133558.226563","134325.199733","143601.859424"
"Mixed","Both","ball","3","F_ball.wav","None","720.798295108","112","142825.036336","135091.827867","135858.43714","136625.146895","137391.762662","138158.593922","138925.083855","139691.351803","143592.068557","144358.790988","145124.912079","131275.328086","132025.063666","132791.421583","133558.226563","134325.199733","144368.703669"
"Mixed","Both","ball","3","M_jaw.wav","space","526.600097772","112","142825.036336","135091.827867","135858.43714","136625.146895","137391.762662","138158.593922","138925.083855","139691.351803","143592.068557","144358.790988","145124.912079","145892.008299","132025.063666","132791.421583","133558.226563","134325.199733","145134.160039"
"Mixed","Both","ball","3","F_gnash.wav","None","718.766105943","112","142825.036336","135091.827867","135858.43714","136625.146895","137391.762662","138158.593922","138925.083855","139691.351803","143592.068557","144358.790988","145124.912079","145892.008299","146658.25646","132791.421583","133558.226563","134325.199733","145902.372371"
"Mixed","Both","ball","3","M_ball.wav","None","719.505645917","112","142825.036336","135091.827867","135858.43714","136625.146895","137391.762662","138158.593922","138925.083855","139691.351803","143592.068557","144358.790988","145124.912079","145892.008299","146658.25646","147425.204896","133558.226563","134325.199733","146667.992294"
"Mixed","Both","ball","3","F_cave.wav","space","449.438744108","112","142825.036336","135091.827867","135858.43714","136625.146895","137391.762662","138158.593922","138925.083855","139691.351803","143592.068557","144358.790988","145124.912079","145892.008299","146658.25646","147425.204896","148174.960573","134325.199733","147435.285457"
"Mixed","Both","ball","3","M_dime.wav","None","734.854811104","112","142825.036336","135091.827867","135858.43714","136625.146895","137391.762662","138158.593922","138925.083855","139691.351803","143592.068557","144358.790988","145124.912079","145892.008299","146658.25646","147425.204896","148174.960573","148941.372904","148184.843573"
"Mixed","Both","ball","3","F_lash.wav","None","734.331382555","112","142825.036336","149707.957444","135858.43714","136625.146895","137391.762662","138158.593922","138925.083855","139691.351803","143592.068557","144358.790988","145124.912079","145892.008299","146658.25646","147425.204896","148174.960573","148941.372904","148951.570332"
"Mixed","Both","ball","3","M_done.wav","None","734.501427272","112","142825.036336","149707.957444","150474.507048","136625.146895","137391.762662","138158.593922","138925.083855","139691.351803","143592.068557","144358.790988","145124.912079","145892.008299","146658.25646","147425.204896","148174.960573","148941.372904","149717.673491"
"Mixed","Both","ball","3","M_done.wav","None","734.565735213","112","142825.036336","149707.957444","150474.507048","151241.330888","137391.762662","138158.593922","138925.083855","139691.351803","143592.068557","144358.790988","145124.912079","145892.008299","146658.25646","147425.204896","148174.960573","148941.372904","150483.848069"
"Mixed","Both","ball","3","M_dime.wav","None","734.206786146","112","142825.036336","149707.957444","150474.507048","151241.330888","152007.856376","138158.593922","138925.083855","139691.351803","143592.068557","144358.790988","145124.912079","145892.008299","146658.25646","147425.204896","148174.960573","148941.372904","151250.990356"
"Mixed","Both","ball","3","M_ball.wav","None","734.020046075","112","142825.036336","149707.957444","150474.507048","151241.330888","152007.856376","152774.788426","138925.083855","139691.351803","143592.068557","144358.790988","145124.912079","145892.008299","146658.25646","147425.204896","148174.960573","148941.372904","152017.412581"
"Mixed","Both","ball","3","F_cling.wav","space","556.08183553","112","142825.036336","149707.957444","150474.507048","151241.330888","152007.856376","152774.788426","153541.126246","139691.351803","143592.068557","144358.790988","145124.912079","145892.008299","146658.25646","147425.204896","148174.960573","148941.372904","152784.573418"
"Mixed","Both","ball","3","M_lash.wav","None","731.848420342","112","142825.036336","149707.957444","150474.507048","151241.330888","152007.856376","152774.788426","153541.126246","154307.971419","143592.068557","144358.790988","145124.912079","145892.008299","146658.25646","147425.204896","148174.960573","148941.372904","153551.487536"
"Mixed","Both","done","40","M_dime.wav","None","732.024957659","112","157441.685013","149707.957444","150474.507048","151241.330888","152007.856376","152774.788426","153541.126246","154307.971419","143592.068557","144358.790988","145124.912079","145892.008299","146658.25646","147425.204896","148174.960573","148941.372904","154317.755484"
"Mixed","Both","done","40","M_done.wav","None","721.679745126","112","157441.685013","149707.957444","150474.507048","151241.330888","152007.856376","152774.788426","153541.126246","154307.971419","158208.485047","144358.790988","145124.912079","145892.008299","146658.25646","147425.204896","148174.960573","148941.372904","157451.470006"
"Mixed","Both","done","40","M_greet.wav","space","505.648113089","112","157441.685013","149707.957444","150474.507048","151241.330888","152007.856376","152774.788426","153541.126246","154307.971419","158208.485047","158975.040525","145124.912079","145892.008299","146658.25646","147425.204896","148174.960573","148941.372904","158218.876017"
"Mixed","Both","done","40","F_done.wav","None","720.470881672","112","157441.685013","149707.957444","150474.507048","151241.330888","152007.856376","152774.788426","153541.126246","154307.971419","158208.485047","158975.040525","159741.798511","145892.008299","146658.25646","147425.204896","148174.960573","148941.372904","158985.184775"
"Mixed","Both","done","40","M_greet.wav","space","499.635640532","112","157441.685013","149707.957444","150474.507048","151241.330888","152007.856376","152774.788426","153541.126246","154307.971419","158208.485047","158975.040525","159741.798511","160508.335129","146658.25646","147425.204896","148174.960573","148941.372904","159752.885736"
"Mixed","Both","done","40","M_tile.wav","None","720.182733145","112","157441.685013","149707.957444","150474.507048","151241.330888","152007.856376","152774.788426","153541.126246","154307.971419","158208.485047","158975.040525","159741.798511","160508.335129","161274.92678","147425.204896","148174.960573","148941.372904","160517.737675"
"Mixed","Both","done","40","F_jaw.wav","None","718.985927408","112","157441.685013","149707.957444","150474.507048","151241.330888","152007.856376","152774.788426","153541.126246","154307.971419","158208.485047","158975.040525","159741.798511","160508.335129","161274.92678","162041.519359","148174.960573","148941.372904","161285.287142"
"Mixed","Both","done","40","F_jolt.wav","None","719.211623073","112","157441.685013","149707.957444","150474.507048","151241.330888","152007.856376","152774.788426","153541.126246","154307.971419","158208.485047","158975.040525","159741.798511","160508.335129","161274.92678","162041.519359","162807.778032","148941.372904","162051.510878"
"Mixed","Both","done","40","F_done.wav","None","719.981152797","112","157441.685013","149707.957444","150474.507048","151241.330888","152007.856376","152774.788426","153541.126246","154307.971419","158208.485047","158975.040525","159741.798511","160508.335129","161274.92678","162041.519359","162807.778032","163558.225636","162817.102976"
"Mixed","Both","done","40","M_jolt.wav","space","452.432768187","112","157441.685013","164324.341162","150474.507048","151241.330888","152007.856376","152774.788426","153541.126246","154307.971419","158208.485047","158975.040525","159741.798511","160508.335129","161274.92678","162041.519359","162807.778032","163558.225636","163567.960233"
"Mixed","Both","done","40","M_done.wav","None","734.63004292","112","157441.685013","164324.341162","165090.969295","151241.330888","152007.856376","152774.788426","153541.126246","154307.971419","158208.485047","158975.040525","159741.798511","160508.335129","161274.92678","162041.519359","162807.778032","163558.225636","164334.324333"
"Mixed","Both","done","40","F_priest.wav","space","607.92940238","112","157441.685013","164324.341162","165090.969295","165857.647205","152007.856376","152774.788426","153541.126246","154307.971419","158208.485047","158975.040525","159741.798511","160508.335129","161274.92678","162041.519359","162807.778032","163558.225636","165100.476651"
"Mixed","Both","done","40","F_ball.wav","None","732.393490965","112","157441.685013","164324.341162","165090.969295","165857.647205","166624.079942","152774.788426","153541.126246","154307.971419","158208.485047","158975.040525","159741.798511","160508.335129","161274.92678","162041.519359","162807.778032","163558.225636","165868.897365"
"Mixed","Both","done","40","M_lash.wav","None","734.858212061","112","157441.685013","164324.341162","165090.969295","165857.647205","166624.079942","167390.973345","153541.126246","154307.971419","158208.485047","158975.040525","159741.798511","160508.335129","161274.92678","162041.519359","162807.778032","163558.225636","166633.064487"
"Mixed","Both","done","40","F_knife.wav","None","734.097339096","112","157441.685013","164324.341162","165090.969295","165857.647205","166624.079942","167390.973345","168157.97094","154307.971419","158208.485047","158975.040525","159741.798511","160508.335129","161274.92678","162041.519359","162807.778032","163558.225636","167400.613336"
"Mixed","Both","done","40","F_knife.wav","None","732.623824268","112","157441.685013","164324.341162","165090.969295","165857.647205","166624.079942","167390.973345","168157.97094","168924.44696","158208.485047","158975.040525","159741.798511","160508.335129","161274.92678","162041.519359","162807.778032","163558.225636","168168.225565"
"Mixed","Both","tile","36","F_cad.wav","None","733.156837174","112","172058.051417","164324.341162","165090.969295","165857.647205","166624.079942","167390.973345","168157.97094","168924.44696","158208.485047","158975.040525","159741.798511","160508.335129","161274.92678","162041.519359","162807.778032","163558.225636","168934.019242"
"Mixed","Both","tile","36","F_tile.wav","None","721.990154125","112","172058.051417","164324.341162","165090.969295","165857.647205","166624.079942","167390.973345","168157.97094","168924.44696","172824.577833","158975.040525","159741.798511","160508.335129","161274.92678","162041.519359","162807.778032","163558.225636","172068.111573"
"Mixed","Both","tile","36","F_dime.wav","space","401.914023445","112","172058.051417","164324.341162","165090.969295","165857.647205","166624.079942","167390.973345","168157.97094","168924.44696","172824.577833","173591.127128","159741.798511","160508.335129","161274.92678","162041.519359","162807.778032","163558.225636","172834.329435"
"Mixed","Both","tile","36","M_tile.wav","None","721.757038264","112","172058.051417","164324.341162","165090.969295","165857.647205","166624.079942","167390.973345","168157.97094","168924.44696","172824.577833","173591.127128","174357.785869","160508.335129","161274.92678","162041.519359","162807.778032","163558.225636","173600.751969"
"Mixed","Both","tile","36","F_jolt.wav","space","668.379687006","112","172058.051417","164324.341162","165090.969295","165857.647205","166624.079942","167390.973345","168157.97094","168924.44696","172824.577833","173591.127128","174357.785869","175124.6802","161274.92678","162041.519359","162807.778032","163558.225636","174367.825619"
"Mixed","Both","tile","36","M_reek.wav","None","720.164801111","112","172058.051417","164324.341162","165090.969295","165857.647205","166624.079942","167390.973345","168157.97094","168924.44696","172824.577833","173591.127128","174357.785869","175124.6802","175891.433548","162041.519359","162807.778032","163558.225636","175134.769109"
"Mixed","Both","tile","36","M_park.wav","None","720.457896474","112","172058.051417","164324.341162","165090.969295","165857.647205","166624.079942","167390.973345","168157.97094","168924.44696","172824.577833","173591.127128","174357.785869","175124.6802","175891.433548","176657.593286","162807.778032","163558.225636","175901.344992"
"Mixed","Both","tile","36","F_done.wav","None","720.477065188","112","172058.051417","164324.341162","165090.969295","165857.647205","166624.079942","167390.973345","168157.97094","168924.44696","172824.577833","173591.127128","174357.785869","175124.6802","175891.433548","176657.593286","177424.69538","163558.225636","176667.957049"
"Mixed","Both","tile","36","F_cad.wav","space","401.001965394","112","172058.051417","164324.341162","165090.969295","165857.647205","166624.079942","167390.973345","168157.97094","168924.44696","172824.577833","173591.127128","174357.785869","175124.6802","175891.433548","176657.593286","177424.69538","178191.214067","177435.108611"
"Mixed","Both","tile","36","F_priest.wav","None","719.518631115","112","172058.051417","178957.955667","165090.969295","165857.647205","166624.079942","167390.973345","168157.97094","168924.44696","172824.577833","173591.127128","174357.785869","175124.6802","175891.433548","176657.593286","177424.69538","178191.214067","178201.226301"
"Mixed","Both","tile","36","F_tile.wav","None","719.585103216","112","172058.051417","178957.955667","179724.71458","165857.647205","166624.079942","167390.973345","168157.97094","168924.44696","172824.577833","173591.127128","174357.785869","175124.6802","175891.433548","176657.593286","177424.69538","178191.214067","178967.755808"
"Mixed","Both","tile","36","M_cad.wav","space","645.310800057","112","172058.051417","178957.955667","179724.71458","180491.457416","166624.079942","167390.973345","168157.97094","168924.44696","172824.577833","173591.127128","174357.785869","175124.6802","175891.433548","176657.593286","177424.69538","178191.214067","179734.784938"
"Mixed","Both","tile","36","M_tile.wav","None","718.537627603","112","172058.051417","178957.955667","179724.71458","180491.457416","181257.503069","167390.973345","168157.97094","168924.44696","172824.577833","173591.127128","174357.785869","175124.6802","175891.433548","176657.593286","177424.69538","178191.214067","180501.43997"
"Mixed","Both","tile","36","M_jolt.wav","space","657.266490627","112","172058.051417","178957.955667","179724.71458","180491.457416","181257.503069","182007.161357","168157.97094","168924.44696","172824.577833","173591.127128","174357.785869","175124.6802","175891.433548","176657.593286","177424.69538","178191.214067","181266.749174"
"Mixed","Both","tile","36","M_gnash.wav","None","735.271266196","112","172058.051417","178957.955667","179724.71458","180491.457416","181257.503069","182007.161357","182773.843286","168924.44696","172824.577833","173591.127128","174357.785869","175124.6802","175891.433548","176657.593286","177424.69538","178191.214067","182016.953151"
"Mixed","Both","tile","36","M_priest.wav","None","735.160582582","112","172058.051417","178957.955667","179724.71458","180491.457416","181257.503069","182007.161357","182773.843286","183540.569427","172824.577833","173591.127128","174357.785869","175124.6802","175891.433548","176657.593286","177424.69538","178191.214067","182783.522542"
"Mixed","Both","ball","1","F_lash.wav","None","734.671781189","112","186674.449357","178957.955667","179724.71458","180491.457416","181257.503069","182007.161357","182773.843286","183540.569427","172824.577833","173591.127128","174357.785869","175124.6802","175891.433548","176657.593286","177424.69538","178191.214067","183550.480562"
"Mixed","Both","ball","1","M_cave.wav","None","720.988745219","112","186674.449357","178957.955667","179724.71458","180491.457416","181257.503069","182007.161357","182773.843286","183540.569427","187440.92445","173591.127128","174357.785869","175124.6802","175891.433548","176657.593286","177424.69538","178191.214067","186685.077771"
"Mixed","Both","ball","1","F_romp.wav","None","721.253396594","112","186674.449357","178957.955667","179724.71458","180491.457416","181257.503069","182007.161357","182773.843286","183540.569427","187440.92445","188207.87505","174357.785869","175124.6802","175891.433548","176657.593286","177424.69538","178191.214067","187451.385911"
"Mixed","Both","ball","1","F_greet.wav","None","722.065282869","112","186674.449357","178957.955667","179724.71458","180491.457416","181257.503069","182007.161357","182773.843286","183540.569427","187440.92445","188207.87505","188974.326955","175124.6802","175891.433548","176657.593286","177424.69538","178191.214067","188217.77289"
"Mixed","Both","ball","1","F_ball.wav","None","721.435808227","112","186674.449357","178957.955667","179724.71458","180491.457416","181257.503069","182007.161357","182773.843286","183540.569427","187440.92445","188207.87505","188974.326955","189741.05557","175891.433548","176657.593286","177424.69538","178191.214067","188984.94764"
"Mixed","Both","ball","1","F_priest.wav","space","525.089791394","112","186674.449357","178957.955667","179724.71458","180491.457416","181257.503069","182007.161357","182773.843286","183540.569427","187440.92445","188207.87505","188974.326955","189741.05557","190507.615994","176657.593286","177424.69538","178191.214067","189750.768834"
"Mixed","Both","ball","1","M_reek.wav","None","721.552366274","112","186674.449357","178957.955667","179724.71458","180491.457416","181257.503069","182007.161357","182773.843286","183540.569427","187440.92445","188207.87505","188974.326955","189741.05557","190507.615994","191274.298851","177424.69538","178191.214067","190517.571341"
"Mixed","Both","ball","1","F_ball.wav","None","721.406746074","112","186674.449357","178957.955667","179724.71458","180491.457416","181257.503069","182007.161357","182773.843286","183540.569427","187440.92445","188207.87505","188974.326955","189741.05557","190507.615994","191274.298851","192040.980163","178191.214067","191284.420532"
"Mixed","Both","ball","1","M_done.wav","None","720.943915192","112","186674.449357","178957.955667","179724.71458","180491.457416","181257.503069","182007.161357","182773.843286","183540.569427","187440.92445","188207.87505","188974.326955","189741.05557","190507.615994","191274.298851","192040.980163","192808.236534","192051.415653"
"Mixed","Both","ball","1","F_jaw.wav","space","17.8537695901","112","186674.449357","193574.37834","179724.71458","180491.457416","181257.503069","182007.161357","182773.843286","183540.569427","187440.92445","188207.87505","188974.326955","189741.05557","190507.615994","191274.298851","192040.980163","192808.236534","192817.998029"
"Mixed","Both","ball","1","M_ball.wav","None","720.460988116","112","186674.449357","193574.37834","194340.938764","180491.457416","181257.503069","182007.161357","182773.843286","183540.569427","187440.92445","188207.87505","188974.326955","189741.05557","190507.615994","191274.298851","192040.980163","192808.236534","193584.086657"
"Mixed","Both","ball","1","F_lash.wav","space","549.128551735","112","186674.449357","193574.37834","194340.938764","195107.426225","181257.503069","182007.161357","182773.843286","183540.569427","187440.92445","188207.87505","188974.326955","189741.05557","190507.615994","191274.298851","192040.980163","192808.236534","194350.628532"
"Mixed","Both","ball","1","M_ball.wav","None","719.930448686","112","186674.449357","193574.37834","194340.938764","195107.426225","195874.21049","182007.161357","182773.843286","183540.569427","187440.92445","188207.87505","188974.326955","189741.05557","190507.615994","191274.298851","192040.980163","192808.236534","195117.448352"
"Mixed","Both","ball","1","M_depth.wav","space","567.242335062","112","186674.449357","193574.37834","194340.938764","195107.426225","195874.21049","196640.889637","182773.843286","183540.569427","187440.92445","188207.87505","188974.326955","189741.05557","190507.615994","191274.298851","192040.980163","192808.236534","195884.483665"
"Mixed","Both","ball","1","M_done.wav","None","718.565143878","112","186674.449357","193574.37834","194340.938764","195107.426225","195874.21049","196640.889637","197390.449608","183540.569427","187440.92445","188207.87505","188974.326955","189741.05557","190507.615994","191274.298851","192040.980163","192808.236534","196650.916711"
"Mixed","Both","ball","1","M_lash.wav","None","736.573808827","112","186674.449357","193574.37834","194340.938764","195107.426225","195874.21049","196640.889637","197390.449608","198174.426323","187440.92445","188207.87505","188974.326955","189741.05557","190507.615994","191274.298851","192040.980163","192808.236534","197399.527214"
"Mixed","Both","tile","32","F_bluff.wav","None","718.044188805","112","201290.739704","193574.37834","194340.938764","195107.426225","195874.21049","196640.889637","197390.449608","198174.426323","187440.92445","188207.87505","188974.326955","189741.05557","190507.615994","191274.298851","192040.980163","192808.236534","198184.888403"
"Mixed","Both","tile","32","M_tile.wav","None","721.605234663","112","201290.739704","193574.37834","194340.938764","195107.426225","195874.21049","196640.889637","197390.449608","198174.426323","202057.338466","188207.87505","188974.326955","189741.05557","190507.615994","191274.298851","192040.980163","192808.236534","201300.794913"
"Mixed","Both","tile","32","F_dime.wav","space","520.446024253","112","201290.739704","193574.37834","194340.938764","195107.426225","195874.21049","196640.889637","197390.449608","198174.426323","202057.338466","202823.717098","188974.326955","189741.05557","190507.615994","191274.298851","192040.980163","192808.236534","202067.207862"
"Mixed","Both","tile","32","M_done.wav","None","721.351713408","112","201290.739704","193574.37834","194340.938764","195107.426225","195874.21049","196640.889637","197390.449608","198174.426323","202057.338466","202823.717098","203590.779618","189741.05557","190507.615994","191274.298851","192040.980163","192808.236534","202833.515384"
"Mixed","Both","tile","32","M_cling.wav","None","720.913925441","112","201290.739704","193574.37834","194340.938764","195107.426225","195874.21049","196640.889637","197390.449608","198174.426323","202057.338466","202823.717098","203590.779618","204356.95636","190507.615994","191274.298851","192040.980163","192808.236534","203600.552862"
"Mixed","Both","tile","32","F_tile.wav","None","721.895238268","112","201290.739704","193574.37834","194340.938764","195107.426225","195874.21049","196640.889637","197390.449608","198174.426323","202057.338466","202823.717098","203590.779618","204356.95636","205124.170066","191274.298851","192040.980163","192808.236534","204366.389823"
"Mixed","Both","tile","32","F_cling.wav","space","429.401291069","112","201290.739704","193574.37834","194340.938764","195107.426225","195874.21049","196640.889637","197390.449608","198174.426323","202057.338466","202823.717098","203590.779618","204356.95636","205124.170066","205890.158831","192040.980163","192808.236534","205134.165914"
"Mixed","Both","tile","32","M_reek.wav","None","721.206711605","112","201290.739704","193574.37834","194340.938764","195107.426225","195874.21049","196640.889637","197390.449608","198174.426323","202057.338466","202823.717098","203590.779618","204356.95636","205124.170066","205890.158831","206656.946807","192808.236534","205899.506963"
"Mixed","Both","tile","32","M_lash.wav","None","719.941888005","112","201290.739704","193574.37834","194340.938764","195107.426225","195874.21049","196640.889637","197390.449608","198174.426323","202057.338466","202823.717098","203590.779618","204356.95636","205124.170066","205890.158831","206656.946807","207424.197613","206667.41847"
"Mixed","Both","tile","32","F_cling.wav","None","719.284896972","112","201290.739704","208190.2006","194340.938764","195107.426225","195874.21049","196640.889637","197390.449608","198174.426323","202057.338466","202823.717098","203590.779618","204356.95636","205124.170066","205890.158831","206656.946807","207424.197613","207434.719054"
"Mixed","Both","tile","32","F_cave.wav","None","721.512173768","112","201290.739704","208190.2006","208957.366693","195107.426225","195874.21049","196640.889637","197390.449608","198174.426323","202057.338466","202823.717098","203590.779618","204356.95636","205124.170066","205890.158831","206656.946807","207424.197613","208199.552133"
"Mixed","Both","tile","32","M_romp.wav","None","720.558377448","112","201290.739704","208190.2006","208957.366693","209723.932683","195874.21049","196640.889637","197390.449608","198174.426323","202057.338466","202823.717098","203590.779618","204356.95636","205124.170066","205890.158831","206656.946807","207424.197613","208967.267625"
"Mixed","Both","tile","32","M_tile.wav","None","720.450167079","112","201290.739704","208190.2006","208957.366693","209723.932683","210490.462809","196640.889637","197390.449608","198174.426323","202057.338466","202823.717098","203590.779618","204356.95636","205124.170066","205890.158831","206656.946807","207424.197613","209733.927913"
"Mixed","Both","tile","32","M_cling.wav","space","502.75024178","112","201290.739704","208190.2006","208957.366693","209723.932683","210490.462809","211256.848242","197390.449608","198174.426323","202057.338466","202823.717098","203590.779618","204356.95636","205124.170066","205890.158831","206656.946807","207424.197613","210500.704449"
"Mixed","Both","tile","32","F_tile.wav","None","720.427288441","112","201290.739704","208190.2006","208957.366693","209723.932683","210490.462809","211256.848242","212023.550886","198174.426323","202057.338466","202823.717098","203590.779618","204356.95636","205124.170066","205890.158831","206656.946807","207424.197613","211266.705581"
"Mixed","Both","tile","32","F_priest.wav","space","626.665858668","112","201290.739704","208190.2006","208957.366693","209723.932683","210490.462809","211256.848242","212023.550886","212790.409353","202057.338466","202823.717098","203590.779618","204356.95636","205124.170066","205890.158831","206656.946807","207424.197613","212032.713515"
"Mixed","Both","tile","30","F_jaw.wav","None","718.985309126","112","215907.339223","208190.2006","208957.366693","209723.932683","210490.462809","211256.848242","212023.550886","212790.409353","202057.338466","202823.717098","203590.779618","204356.95636","205124.170066","205890.158831","206656.946807","207424.197613","212800.530725"
"Mixed","Both","tile","30","M_tile.wav","None","721.962328535","112","215907.339223","208190.2006","208957.366693","209723.932683","210490.462809","211256.848242","212023.550886","212790.409353","216673.70858","202823.717098","203590.779618","204356.95636","205124.170066","205890.158831","206656.946807","207424.197613","215917.265817"
"Mixed","Both","tile","30","M_reek.wav","space","510.969585739","112","215907.339223","208190.2006","208957.366693","209723.932683","210490.462809","211256.848242","212023.550886","212790.409353","216673.70858","217440.33795","203590.779618","204356.95636","205124.170066","205890.158831","206656.946807","207424.197613","216684.366365"
"Mixed","Both","tile","30","M_greet.wav","None","721.901421668","112","215907.339223","208190.2006","208957.366693","209723.932683","210490.462809","211256.848242","212023.550886","212790.409353","216673.70858","217440.33795","218206.979069","204356.95636","205124.170066","205890.158831","206656.946807","207424.197613","217450.137783"
"Mixed","Both","tile","30","F_tile.wav","None","722.634469043","112","215907.339223","208190.2006","208957.366693","209723.932683","210490.462809","211256.848242","212023.550886","212790.409353","216673.70858","217440.33795","218206.979069","218973.835371","205124.170066","205890.158831","206656.946807","207424.197613","218216.675019"
"Mixed","Both","tile","30","F_jolt.wav","space","443.101640791","112","215907.339223","208190.2006","208957.366693","209723.932683","210490.462809","211256.848242","212023.550886","212790.409353","216673.70858","217440.33795","218206.979069","218973.835371","219740.407854","205890.158831","206656.946807","207424.197613","218984.094634"
"Mixed","Both","tile","30","M_tile.wav","None","721.048724605","112","215907.339223","208190.2006","208957.366693","209723.932683","210490.462809","211256.848242","212023.550886","212790.409353","216673.70858","217440.33795","218206.979069","218973.835371","219740.407854","220506.658179","206656.946807","207424.197613","219750.990511"
"Mixed","Both","tile","30","F_gnash.wav","space","647.608877276","112","215907.339223","208190.2006","208957.366693","209723.932683","210490.462809","211256.848242","212023.550886","212790.409353","216673.70858","217440.33795","218206.979069","218973.835371","219740.407854","220506.658179","221273.673705","207424.197613","220515.631285"
"Mixed","Both","tile","30","M_park.wav","None","721.11365071","112","215907.339223","208190.2006","208957.366693","209723.932683","210490.462809","211256.848242","212023.550886","212790.409353","216673.70858","217440.33795","218206.979069","218973.835371","219740.407854","220506.658179","221273.673705","222040.545776","221283.518059"
"Mixed","Both","tile","30","F_done.wav","None","720.876206527","112","215907.339223","222807.034163","208957.366693","209723.932683","210490.462809","211256.848242","212023.550886","212790.409353","216673.70858","217440.33795","218206.979069","218973.835371","219740.407854","220506.658179","221273.673705","222040.545776","222050.726818"
"Mixed","Both","tile","30","M_greet.wav","None","721.445392584","112","215907.339223","222807.034163","223573.639109","209723.932683","210490.462809","211256.848242","212023.550886","212790.409353","216673.70858","217440.33795","218206.979069","218973.835371","219740.407854","220506.658179","221273.673705","222040.545776","222817.032484"
"Mixed","Both","tile","30","M_reek.wav","None","721.516193007","112","215907.339223","222807.034163","223573.639109","224340.189331","210490.462809","211256.848242","212023.550886","212790.409353","216673.70858","217440.33795","218206.979069","218973.835371","219740.407854","220506.658179","221273.673705","222040.545776","223583.764809"
"Mixed","Both","tile","30","F_reek.wav","None","721.493623452","112","215907.339223","222807.034163","223573.639109","224340.189331","225106.954428","211256.848242","212023.550886","212790.409353","216673.70858","217440.33795","218206.979069","218973.835371","219740.407854","220506.658179","221273.673705","222040.545776","224350.695622"
"Mixed","Both","tile","30","F_jaw.wav","None","721.890291432","112","215907.339223","222807.034163","223573.639109","224340.189331","225106.954428","225872.76882","212023.550886","212790.409353","216673.70858","217440.33795","218206.979069","218973.835371","219740.407854","220506.658179","221273.673705","222040.545776","225117.006854"
"Mixed","Both","tile","30","F_tile.wav","None","726.197988377","112","215907.339223","222807.034163","223573.639109","224340.189331","225106.954428","225872.76882","226639.818973","212790.409353","216673.70858","217440.33795","218206.979069","218973.835371","219740.407854","220506.658179","221273.673705","222040.545776","225882.337082"
"Mixed","Both","tile","30","M_gnash.wav","space","449.502742849","112","215907.339223","222807.034163","223573.639109","224340.189331","225106.954428","225872.76882","226639.818973","227406.619934","216673.70858","217440.33795","218206.979069","218973.835371","219740.407854","220506.658179","221273.673705","222040.545776","226649.629318"
"Mixed","Both","cave","21","M_greet.wav","None","724.626465817","112","230540.282825","222807.034163","223573.639109","224340.189331","225106.954428","225872.76882","226639.818973","227406.619934","216673.70858","217440.33795","218206.979069","218973.835371","219740.407854","220506.658179","221273.673705","222040.545776","227416.259306"
"Mixed","Both","cave","21","M_cave.wav","None","721.607398824","112","230540.282825","222807.034163","223573.639109","224340.189331","225106.954428","225872.76882","226639.818973","227406.619934","231306.69361","217440.33795","218206.979069","218973.835371","219740.407854","220506.658179","221273.673705","222040.545776","230550.162424"
"Mixed","Both","cave","21","M_knife.wav","space","526.403773343","112","230540.282825","222807.034163","223573.639109","224340.189331","225106.954428","225872.76882","226639.818973","227406.619934","231306.69361","232073.540019","218206.979069","218973.835371","219740.407854","220506.658179","221273.673705","222040.545776","231316.585885"
"Mixed","Both","cave","21","F_done.wav","None","720.619593514","112","230540.282825","222807.034163","223573.639109","224340.189331","225106.954428","225872.76882","226639.818973","227406.619934","231306.69361","232073.540019","232840.140018","218973.835371","219740.407854","220506.658179","221273.673705","222040.545776","232083.582861"
"Mixed","Both","cave","21","F_cave.wav","None","720.132338116","112","230540.282825","222807.034163","223573.639109","224340.189331","225106.954428","225872.76882","226639.818973","227406.619934","231306.69361","232073.540019","232840.140018","233606.224317","219740.407854","220506.658179","221273.673705","222040.545776","232850.642599"
"Mixed","Both","cave","21","F_cad.wav","None","721.900184988","112","230540.282825","222807.034163","223573.639109","224340.189331","225106.954428","225872.76882","226639.818973","227406.619934","231306.69361","232073.540019","232840.140018","233606.224317","234373.474815","220506.658179","221273.673705","222040.545776","233615.602748"
"Mixed","Both","cave","21","M_park.wav","space","16.8811136391","112","230540.282825","222807.034163","223573.639109","224340.189331","225106.954428","225872.76882","226639.818973","227406.619934","231306.69361","232073.540019","232840.140018","233606.224317","234373.474815","235140.097074","221273.673705","222040.545776","234378.089829"
"Mixed","Both","cave","21","F_jolt.wav","None","719.673835556","112","230540.282825","222807.034163","223573.639109","224340.189331","225106.954428","225872.76882","226639.818973","227406.619934","231306.69361","232073.540019","232840.140018","233606.224317","234373.474815","235140.097074","235906.555781","222040.545776","235150.048092"
"Mixed","Both","cave","21","M_knife.wav","None","719.18472508","112","230540.282825","222807.034163","223573.639109","224340.189331","225106.954428","225872.76882","226639.818973","227406.619934","231306.69361","232073.540019","232840.140018","233606.224317","234373.474815","235140.097074","235906.555781","236673.361998","235917.303536"
"Mixed","Both","cave","21","M_cling.wav","None","719.587885775","112","230540.282825","237439.96818","223573.639109","224340.189331","225106.954428","225872.76882","226639.818973","227406.619934","231306.69361","232073.540019","232840.140018","233606.224317","234373.474815","235140.097074","235906.555781","236673.361998","236683.807691"
"Mixed","Both","cave","21","F_priest.wav","None","719.460506807","112","230540.282825","237439.96818","238206.665568","224340.189331","225106.954428","225872.76882","226639.818973","227406.619934","231306.69361","232073.540019","232840.140018","233606.224317","234373.474815","235140.097074","235906.555781","236673.361998","237450.467669"
"Mixed","Both","cave","21","M_cave.wav","None","721.236392157","112","230540.282825","237439.96818","238206.665568","238972.979273","225106.954428","225872.76882","226639.818973","227406.619934","231306.69361","232073.540019","232840.140018","233606.224317","234373.474815","235140.097074","235906.555781","236673.361998","238216.045545"
"Mixed","Both","cave","21","F_greet.wav","space","500.606441405","112","230540.282825","237439.96818","238206.665568","238972.979273","239739.974394","225872.76882","226639.818973","227406.619934","231306.69361","232073.540019","232840.140018","233606.224317","234373.474815","235140.097074","235906.555781","236673.361998","238982.22105"
"Mixed","Both","cave","21","F_cave.wav","None","719.57149962","112","230540.282825","237439.96818","238206.665568","238972.979273","239739.974394","240506.760206","226639.818973","227406.619934","231306.69361","232073.540019","232840.140018","233606.224317","234373.474815","235140.097074","235906.555781","236673.361998","239750.036405"
"Mixed","Both","cave","21","M_romp.wav","space","566.270606709","112","230540.282825","237439.96818","238206.665568","238972.979273","239739.974394","240506.760206","241273.275491","227406.619934","231306.69361","232073.540019","232840.140018","233606.224317","234373.474815","235140.097074","235906.555781","236673.361998","240516.499131"
"Mixed","Both","cave","21","F_priest.wav","None","717.04494406","112","230540.282825","237439.96818","238206.665568","238972.979273","239739.974394","240506.760206","241273.275491","242040.176933","231306.69361","232073.540019","232840.140018","233606.224317","234373.474815","235140.097074","235906.555781","236673.361998","241284.888619"
"Mixed","Both","ball","5","M_lash.wav","None","718.456006143","112","245156.481657","237439.96818","238206.665568","238972.979273","239739.974394","240506.760206","241273.275491","242040.176933","231306.69361","232073.540019","232840.140018","233606.224317","234373.474815","235140.097074","235906.555781","236673.361998","242050.259349"
"Mixed","Both","ball","5","F_cad.wav","None","721.858446719","112","245156.481657","237439.96818","238206.665568","238972.979273","239739.974394","240506.760206","241273.275491","242040.176933","245923.277362","232073.540019","232840.140018","233606.224317","234373.474815","235140.097074","235906.555781","236673.361998","245166.573967"
"Mixed","Both","ball","5","M_ball.wav","None","722.2548055","112","245156.481657","237439.96818","238206.665568","238972.979273","239739.974394","240506.760206","241273.275491","242040.176933","245923.277362","246689.355169","232840.140018","233606.224317","234373.474815","235140.097074","235906.555781","236673.361998","245932.941159"
"Mixed","Both","ball","5","M_cad.wav","space","471.920203883","112","245156.481657","237439.96818","238206.665568","238972.979273","239739.974394","240506.760206","241273.275491","242040.176933","245923.277362","246689.355169","247456.399757","233606.224317","234373.474815","235140.097074","235906.555781","236673.361998","246698.745348"
"Mixed","Both","ball","5","M_cling.wav","None","721.370263724","112","245156.481657","237439.96818","238206.665568","238972.979273","239739.974394","240506.760206","241273.275491","242040.176933","245923.277362","246689.355169","247456.399757","248223.12899","234373.474815","235140.097074","235906.555781","236673.361998","247466.272864"
"Mixed","Both","ball","5","F_ball.wav","None","721.384794801","112","245156.481657","237439.96818","238206.665568","238972.979273","239739.974394","240506.760206","241273.275491","242040.176933","245923.277362","246689.355169","247456.399757","248223.12899","248989.315626","235140.097074","235906.555781","236673.361998","248233.562317"
"Mixed","Both","ball","5","F_done.wav","space","643.7259831","112","245156.481657","237439.96818","238206.665568","238972.979273","239739.974394","240506.760206","241273.275491","242040.176933","245923.277362","246689.355169","247456.399757","248223.12899","248989.315626","249756.238091","235906.555781","236673.361998","248998.907694"
"Mixed","Both","ball","5","F_lash.wav","None","721.008223016","112","245156.481657","237439.96818","238206.665568","238972.979273","239739.974394","240506.760206","241273.275491","242040.176933","245923.277362","246689.355169","247456.399757","248223.12899","248989.315626","249756.238091","250523.146335","236673.361998","249766.393781"
"Mixed","Both","ball","5","M_cave.wav","None","720.715746051","112","245156.481657","237439.96818","238206.665568","238972.979273","239739.974394","240506.760206","241273.275491","242040.176933","245923.277362","246689.355169","247456.399757","248223.12899","248989.315626","249756.238091","250523.146335","251289.74015","250533.495566"
"Mixed","Both","ball","5","F_jaw.wav","None","722.133919247","112","245156.481657","252056.311396","238206.665568","238972.979273","239739.974394","240506.760206","241273.275491","242040.176933","245923.277362","246689.355169","247456.399757","248223.12899","248989.315626","249756.238091","250523.146335","251289.74015","251298.90958"
"Mixed","Both","ball","5","M_ball.wav","None","721.117669949","112","245156.481657","252056.311396","252822.986833","238972.979273","239739.974394","240506.760206","241273.275491","242040.176933","245923.277362","246689.355169","247456.399757","248223.12899","248989.315626","249756.238091","250523.146335","251289.74015","252066.670521"
"Mixed","Both","ball","5","F_done.wav","space","401.789736236","112","245156.481657","252056.311396","252822.986833","253589.764296","239739.974394","240506.760206","241273.275491","242040.176933","245923.277362","246689.355169","247456.399757","248223.12899","248989.315626","249756.238091","250523.146335","251289.74015","252832.723594"
"Mixed","Both","ball","5","M_greet.wav","None","721.174557693","112","245156.481657","252056.311396","252822.986833","253589.764296","254355.863436","240506.760206","241273.275491","242040.176933","245923.277362","246689.355169","247456.399757","248223.12899","248989.315626","249756.238091","250523.146335","251289.74015","253599.428093"
"Mixed","Both","ball","5","F_ball.wav","None","721.837732126","112","245156.481657","252056.311396","252822.986833","253589.764296","254355.863436","255122.717884","241273.275491","242040.176933","245923.277362","246689.355169","247456.399757","248223.12899","248989.315626","249756.238091","250523.146335","251289.74015","254365.624622"
"Mixed","Both","ball","5","F_done.wav","space","565.978438943","112","245156.481657","252056.311396","252822.986833","253589.764296","254355.863436","255122.717884","255889.55409","242040.176933","245923.277362","246689.355169","247456.399757","248223.12899","248989.315626","249756.238091","250523.146335","251289.74015","255132.5239"
"Mixed","Both","ball","5","M_bluff.wav","None","719.480603002","112","245156.481657","252056.311396","252822.986833","253589.764296","254355.863436","255122.717884","255889.55409","256656.317332","245923.277362","246689.355169","247456.399757","248223.12899","248989.315626","249756.238091","250523.146335","251289.74015","255900.347293"
"Mixed","Both","done","45","M_greet.wav","None","720.580019522","112","259789.66363","252056.311396","252822.986833","253589.764296","254355.863436","255122.717884","255889.55409","256656.317332","245923.277362","246689.355169","247456.399757","248223.12899","248989.315626","249756.238091","250523.146335","251289.74015","256666.309779"
"Mixed","Both","done","45","F_done.wav","None","721.021826612","112","259789.66363","252056.311396","252822.986833","253589.764296","254355.863436","255122.717884","255889.55409","256656.317332","260556.296401","246689.355169","247456.399757","248223.12899","248989.315626","249756.238091","250523.146335","251289.74015","259800.265146"
"Mixed","Both","done","45","F_knife.wav","space","372.16454267","112","259789.66363","252056.311396","252822.986833","253589.764296","254355.863436","255122.717884","255889.55409","256656.317332","260556.296401","261323.051295","247456.399757","248223.12899","248989.315626","249756.238091","250523.146335","251289.74015","260566.250511"
"Mixed","Both","done","45","F_cave.wav","None","720.66596942","112","259789.66363","252056.311396","252822.986833","253589.764296","254355.863436","255122.717884","255889.55409","256656.317332","260556.296401","261323.051295","262089.455279","248223.12899","248989.315626","249756.238091","250523.146335","251289.74015","261333.219043"
"Mixed","Both","done","45","F_knife.wav","None","721.332235495","112","259789.66363","252056.311396","252822.986833","253589.764296","254355.863436","255122.717884","255889.55409","256656.317332","260556.296401","261323.051295","262089.455279","262856.163179","248989.315626","249756.238091","250523.146335","251289.74015","262099.529038"
"Mixed","Both","done","45","M_gnash.wav","None","721.905440907","112","259789.66363","252056.311396","252822.986833","253589.764296","254355.863436","255122.717884","255889.55409","256656.317332","260556.296401","261323.051295","262089.455279","262856.163179","263622.776163","249756.238091","250523.146335","251289.74015","262866.762221"
"Mixed","Both","done","45","M_knife.wav","None","722.306128126","112","259789.66363","252056.311396","252822.986833","253589.764296","254355.863436","255122.717884","255889.55409","256656.317332","260556.296401","261323.051295","262089.455279","262856.163179","263622.776163","264388.793681","250523.146335","251289.74015","263633.248136"
"Mixed","Both","done","45","F_ball.wav","None","724.530004081","112","259789.66363","252056.311396","252822.986833","253589.764296","254355.863436","255122.717884","255889.55409","256656.317332","260556.296401","261323.051295","262089.455279","262856.163179","263622.776163","264388.793681","265155.370492","251289.74015","264398.214778"
"Mixed","Both","done","45","M_done.wav","None","724.939966458","112","259789.66363","252056.311396","252822.986833","253589.764296","254355.863436","255122.717884","255889.55409","256656.317332","260556.296401","261323.051295","262089.455279","262856.163179","263622.776163","264388.793681","265155.370492","265922.580178","265164.694508"
"Mixed","Both","done","45","F_park.wav","space","454.003054067","112","259789.66363","266689.367536","252822.986833","253589.764296","254355.863436","255122.717884","255889.55409","256656.317332","260556.296401","261323.051295","262089.455279","262856.163179","263622.776163","264388.793681","265155.370492","265922.580178","265932.227589"
"Mixed","Both","done","45","M_cad.wav","None","727.626673179","112","259789.66363","266689.367536","267455.759771","253589.764296","254355.863436","255122.717884","255889.55409","256656.317332","260556.296401","261323.051295","262089.455279","262856.163179","263622.776163","264388.793681","265155.370492","265922.580178","266694.862145"
"Mixed","Both","done","45","M_done.wav","None","724.478063057","112","259789.66363","266689.367536","267455.759771","268222.10934","254355.863436","255122.717884","255889.55409","256656.317332","260556.296401","261323.051295","262089.455279","262856.163179","263622.776163","264388.793681","265155.370492","265922.580178","267465.411201"
"Mixed","Both","done","45","M_dime.wav","space","618.871317245","112","259789.66363","266689.367536","267455.759771","268222.10934","268989.28409","255122.717884","255889.55409","256656.317332","260556.296401","261323.051295","262089.455279","262856.163179","263622.776163","264388.793681","265155.370492","265922.580178","268231.354208"
"Mixed","Both","done","45","F_done.wav","None","723.181394744","112","259789.66363","266689.367536","267455.759771","268222.10934","268989.28409","269755.54369","255889.55409","256656.317332","260556.296401","261323.051295","262089.455279","262856.163179","263622.776163","264388.793681","265155.370492","265922.580178","268999.623119"
"Mixed","Both","done","45","M_romp.wav","space","660.633067251","112","259789.66363","266689.367536","267455.759771","268222.10934","268989.28409","269755.54369","270522.576839","256656.317332","260556.296401","261323.051295","262089.455279","262856.163179","263622.776163","264388.793681","265155.370492","265922.580178","269765.550977"
"Mixed","Both","done","45","F_dime.wav","None","723.139038077","112","259789.66363","266689.367536","267455.759771","268222.10934","268989.28409","269755.54369","270522.576839","271289.641833","260556.296401","261323.051295","262089.455279","262856.163179","263622.776163","264388.793681","265155.370492","265922.580178","270532.644106"
"Mixed","Both","tile","26","M_lash.wav","space","518.519881181","112","274422.723171","266689.367536","267455.759771","268222.10934","268989.28409","269755.54369","270522.576839","271289.641833","260556.296401","261323.051295","262089.455279","262856.163179","263622.776163","264388.793681","265155.370492","265922.580178","271299.662106"
"Mixed","Both","tile","26","M_tile.wav","None","722.657966195","112","274422.723171","266689.367536","267455.759771","268222.10934","268989.28409","269755.54369","270522.576839","271289.641833","275189.27803","261323.051295","262089.455279","262856.163179","263622.776163","264388.793681","265155.370492","265922.580178","274432.22898"
"Mixed","Both","tile","26","M_cave.wav","space","626.301344601","112","274422.723171","266689.367536","267455.759771","268222.10934","268989.28409","269755.54369","270522.576839","271289.641833","275189.27803","275955.718496","262089.455279","262856.163179","263622.776163","264388.793681","265155.370492","265922.580178","275199.733926"
"Mixed","Both","tile","26","F_cling.wav","None","721.663668286","112","274422.723171","266689.367536","267455.759771","268222.10934","268989.28409","269755.54369","270522.576839","271289.641833","275189.27803","275955.718496","276722.53708","262856.163179","263622.776163","264388.793681","265155.370492","265922.580178","275966.725337"
"Mixed","Both","tile","26","F_romp.wav","None","722.556866822","112","274422.723171","266689.367536","267455.759771","268222.10934","268989.28409","269755.54369","270522.576839","271289.641833","275189.27803","275955.718496","276722.53708","277489.283008","263622.776163","264388.793681","265155.370492","265922.580178","276732.856322"
"Mixed","Both","tile","26","M_tile.wav","None","723.548073089","112","274422.723171","266689.367536","267455.759771","268222.10934","268989.28409","269755.54369","270522.576839","271289.641833","275189.27803","275955.718496","276722.53708","277489.283008","278255.38864","264388.793681","265155.370492","265922.580178","277499.098917"
"Mixed","Both","tile","26","F_reek.wav","space","537.02507657","112","274422.723171","266689.367536","267455.759771","268222.10934","268989.28409","269755.54369","270522.576839","271289.641833","275189.27803","275955.718496","276722.53708","277489.283008","278255.38864","279022.483006","265155.370492","265922.580178","278265.02523"
"Mixed","Both","tile","26","F_tile.wav","None","722.422376857","112","274422.723171","266689.367536","267455.759771","268222.10934","268989.28409","269755.54369","270522.576839","271289.641833","275189.27803","275955.718496","276722.53708","277489.283008","278255.38864","279022.483006","279789.02859","265922.580178","279032.921897"
"Mixed","Both","tile","26","M_romp.wav","space","603.17247815","112","274422.723171","266689.367536","267455.759771","268222.10934","268989.28409","269755.54369","270522.576839","271289.641833","275189.27803","275955.718496","276722.53708","277489.283008","278255.38864","279022.483006","279789.02859","280555.645593","279798.768443"
"Mixed","Both","tile","26","F_bluff.wav","None","722.805750556","112","274422.723171","281322.086368","267455.759771","268222.10934","268989.28409","269755.54369","270522.576839","271289.641833","275189.27803","275955.718496","276722.53708","277489.283008","278255.38864","279022.483006","279789.02859","280555.645593","280565.265797"
"Mixed","Both","tile","26","F_greet.wav","None","724.193933886","112","274422.723171","281322.086368","282089.087054","268222.10934","268989.28409","269755.54369","270522.576839","271289.641833","275189.27803","275955.718496","276722.53708","277489.283008","278255.38864","279022.483006","279789.02859","280555.645593","281331.028866"
"Mixed","Both","tile","26","F_tile.wav","None","721.680363524","112","274422.723171","281322.086368","282089.087054","282855.266579","268989.28409","269755.54369","270522.576839","271289.641833","275189.27803","275955.718496","276722.53708","277489.283008","278255.38864","279022.483006","279789.02859","280555.645593","282100.758925"
"Mixed","Both","tile","26","M_cave.wav","space","560.846798006","112","274422.723171","281322.086368","282089.087054","282855.266579","283622.353524","269755.54369","270522.576839","271289.641833","275189.27803","275955.718496","276722.53708","277489.283008","278255.38864","279022.483006","279789.02859","280555.645593","282865.097638"
"Mixed","Both","tile","26","M_ball.wav","None","722.743606777","112","274422.723171","281322.086368","282089.087054","282855.266579","283622.353524","284389.02556","270522.576839","271289.641833","275189.27803","275955.718496","276722.53708","277489.283008","278255.38864","279022.483006","279789.02859","280555.645593","283632.618043"
"Mixed","Both","tile","26","M_bluff.wav","None","723.488093703","112","274422.723171","281322.086368","282089.087054","282855.266579","283622.353524","284389.02556","285155.119753","271289.641833","275189.27803","275955.718496","276722.53708","277489.283008","278255.38864","279022.483006","279789.02859","280555.645593","284399.052325"
"Mixed","Both","tile","26","F_cave.wav","None","724.756318145","112","274422.723171","281322.086368","282089.087054","282855.266579","283622.353524","284389.02556","285155.119753","285922.043146","275189.27803","275955.718496","276722.53708","277489.283008","278255.38864","279022.483006","279789.02859","280555.645593","285164.974928"
"Mixed","Both","ball","12","M_jolt.wav","None","725.357967429","112","289055.523007","281322.086368","282089.087054","282855.266579","283622.353524","284389.02556","285155.119753","285922.043146","275189.27803","275955.718496","276722.53708","277489.283008","278255.38864","279022.483006","279789.02859","280555.645593","285931.577091"
"Mixed","Both","ball","12","F_ball.wav","None","721.825365326","112","289055.523007","281322.086368","282089.087054","282855.266579","283622.353524","284389.02556","285155.119753","285922.043146","289821.891126","275955.718496","276722.53708","277489.283008","278255.38864","279022.483006","279789.02859","280555.645593","289065.74084"
"Mixed","Both","ball","12","M_jaw.wav","space","522.960213013","112","289055.523007","281322.086368","282089.087054","282855.266579","283622.353524","284389.02556","285155.119753","285922.043146","289821.891126","290588.971579","276722.53708","277489.283008","278255.38864","279022.483006","279789.02859","280555.645593","289830.831151"
"Mixed","Both","ball","12","M_tile.wav","None","721.687474404","112","289055.523007","281322.086368","282089.087054","282855.266579","283622.353524","284389.02556","285155.119753","285922.043146","289821.891126","290588.971579","291355.583326","277489.283008","278255.38864","279022.483006","279789.02859","280555.645593","290598.653617"
"Mixed","Both","ball","12","F_cad.wav","None","721.623166697","112","289055.523007","281322.086368","282089.087054","282855.266579","283622.353524","284389.02556","285155.119753","285922.043146","289821.891126","290588.971579","291355.583326","292122.280714","278255.38864","279022.483006","279789.02859","280555.645593","291365.980789"
"Mixed","Both","ball","12","M_jolt.wav","None","722.433197894","112","289055.523007","281322.086368","282089.087054","282855.266579","283622.353524","284389.02556","285155.119753","285922.043146","289821.891126","290588.971579","291355.583326","292122.280714","292888.468896","279022.483006","279789.02859","280555.645593","292132.380753"
"Mixed","Both","ball","12","M_jaw.wav","None","724.679334206","112","289055.523007","281322.086368","282089.087054","282855.266579","283622.353524","284389.02556","285155.119753","285922.043146","289821.891126","290588.971579","291355.583326","292122.280714","292888.468896","293654.786002","279789.02859","280555.645593","292898.283878"
"Mixed","Both","ball","12","F_cad.wav","None","726.140482351","112","289055.523007","281322.086368","282089.087054","282855.266579","283622.353524","284389.02556","285155.119753","285922.043146","289821.891126","290588.971579","291355.583326","292122.280714","292888.468896","293654.786002","294421.862435","280555.645593","293663.939664"
"Mixed","Both","ball","12","F_ball.wav","None","725.241100299","112","289055.523007","281322.086368","282089.087054","282855.266579","283622.353524","284389.02556","285155.119753","285922.043146","289821.891126","290588.971579","291355.583326","292122.280714","292888.468896","293654.786002","294421.862435","295188.499225","294431.999884"
"Mixed","Both","ball","12","F_cave.wav","space","531.078457716","112","289055.523007","295955.034607","282089.087054","282855.266579","283622.353524","284389.02556","285155.119753","285922.043146","289821.891126","290588.971579","291355.583326","292122.280714","292888.468896","293654.786002","294421.862435","295188.499225","295198.600501"
"Mixed","Both","ball","12","F_dime.wav","None","726.479953388","112","289055.523007","295955.034607","296721.714682","282855.266579","283622.353524","284389.02556","285155.119753","285922.043146","289821.891126","290588.971579","291355.583326","292122.280714","292888.468896","293654.786002","294421.862435","295188.499225","295964.580919"
"Mixed","Both","ball","12","M_ball.wav","None","727.359857643","112","289055.523007","295955.034607","296721.714682","297488.389809","283622.353524","284389.02556","285155.119753","285922.043146","289821.891126","290588.971579","291355.583326","292122.280714","292888.468896","293654.786002","294421.862435","295188.499225","296730.773738"
"Mixed","Both","ball","12","M_greet.wav","space","492.848073016","112","289055.523007","295955.034607","296721.714682","297488.389809","298255.011141","284389.02556","285155.119753","285922.043146","289821.891126","290588.971579","291355.583326","292122.280714","292888.468896","293654.786002","294421.862435","295188.499225","297492.777582"
"Mixed","Both","ball","12","M_ball.wav","None","728.858724586","112","289055.523007","295955.034607","296721.714682","297488.389809","298255.011141","299021.711002","285155.119753","285922.043146","289821.891126","290588.971579","291355.583326","292122.280714","292888.468896","293654.786002","294421.862435","295188.499225","298264.676793"
"Mixed","Both","ball","12","F_priest.wav","space","610.050014802","112","289055.523007","295955.034607","296721.714682","297488.389809","298255.011141","299021.711002","299788.312856","285922.043146","289821.891126","290588.971579","291355.583326","292122.280714","292888.468896","293654.786002","294421.862435","295188.499225","299031.53124"
"Mixed","Both","ball","12","F_greet.wav","None","729.260957683","112","289055.523007","295955.034607","296721.714682","297488.389809","298255.011141","299021.711002","299788.312856","300555.094339","289821.891126","290588.971579","291355.583326","292122.280714","292888.468896","293654.786002","294421.862435","295188.499225","299797.767344"
"Mixed","Both","ball","4","M_reek.wav","None","729.632582748","112","303688.565852","295955.034607","296721.714682","297488.389809","298255.011141","299021.711002","299788.312856","300555.094339","289821.891126","290588.971579","291355.583326","292122.280714","292888.468896","293654.786002","294421.862435","295188.499225","300564.683316"
"Mixed","Both","ball","4","M_gnash.wav","None","721.686546924","112","303688.565852","295955.034607","296721.714682","297488.389809","298255.011141","299021.711002","299788.312856","300555.094339","304455.048674","290588.971579","291355.583326","292122.280714","292888.468896","293654.786002","294421.862435","295188.499225","303698.529546"
"Mixed","Both","ball","4","F_lash.wav","None","723.130999715","112","303688.565852","295955.034607","296721.714682","297488.389809","298255.011141","299021.711002","299788.312856","300555.094339","304455.048674","305221.899412","291355.583326","292122.280714","292888.468896","293654.786002","294421.862435","295188.499225","304464.434835"
"Mixed","Both","ball","4","M_priest.wav","None","722.718254779","112","303688.565852","295955.034607","296721.714682","297488.389809","298255.011141","299021.711002","299788.312856","300555.094339","304455.048674","305221.899412","305988.474986","292122.280714","292888.468896","293654.786002","294421.862435","295188.499225","305232.116627"
"Mixed","Both","ball","4","M_gnash.wav","None","723.372772452","112","303688.565852","295955.034607","296721.714682","297488.389809","298255.011141","299021.711002","299788.312856","300555.094339","304455.048674","305221.899412","305988.474986","306754.955645","292888.468896","293654.786002","294421.862435","295188.499225","305998.550291"
"Mixed","Both","ball","4","F_ball.wav","None","724.361814326","112","303688.565852","295955.034607","296721.714682","297488.389809","298255.011141","299021.711002","299788.312856","300555.094339","304455.048674","305221.899412","305988.474986","306754.955645","307521.498756","293654.786002","294421.862435","295188.499225","306764.770317"
"Mixed","Both","ball","4","F_cave.wav","space","398.404918611","112","303688.565852","295955.034607","296721.714682","297488.389809","298255.011141","299021.711002","299788.312856","300555.094339","304455.048674","305221.899412","305988.474986","306754.955645","307521.498756","308288.670414","294421.862435","295188.499225","307530.981378"
"Mixed","Both","ball","4","M_ball.wav","None","723.42471336","112","303688.565852","295955.034607","296721.714682","297488.389809","298255.011141","299021.711002","299788.312856","300555.094339","304455.048674","305221.899412","305988.474986","306754.955645","307521.498756","308288.670414","309054.789959","295188.499225","308298.518168"
"Mixed","Both","ball","4","M_tile.wav","None","724.541134317","112","303688.565852","295955.034607","296721.714682","297488.389809","298255.011141","299021.711002","299788.312856","300555.094339","304455.048674","305221.899412","305988.474986","306754.955645","307521.498756","308288.670414","309054.789959","309821.52383","309064.538469"
"Mixed","Both","ball","4","M_ball.wav","space","81.8722110707","112","303688.565852","310588.445368","296721.714682","297488.389809","298255.011141","299021.711002","299788.312856","300555.094339","304455.048674","305221.899412","305988.474986","306754.955645","307521.498756","308288.670414","309054.789959","309821.52383","309831.509784"
"Mixed","Both","ball","4","M_park.wav","space","587.342550163","112","303688.565852","310588.445368","311354.964363","297488.389809","298255.011141","299021.711002","299788.312856","300555.094339","304455.048674","305221.899412","305988.474986","306754.955645","307521.498756","308288.670414","309054.789959","309821.52383","310597.975293"
"Mixed","Both","ball","4","F_cave.wav","None","722.87624178","112","303688.565852","310588.445368","311354.964363","312121.788512","298255.011141","299021.711002","299788.312856","300555.094339","304455.048674","305221.899412","305988.474986","306754.955645","307521.498756","308288.670414","309054.789959","309821.52383","311364.522732"
"Mixed","Both","ball","4","F_ball.wav","None","722.483902238","112","303688.565852","310588.445368","311354.964363","312121.788512","312888.001427","299021.711002","299788.312856","300555.094339","304455.048674","305221.899412","305988.474986","306754.955645","307521.498756","308288.670414","309054.789959","309821.52383","312132.107754"
"Mixed","Both","ball","4","F_priest.wav","None","735.083289444","112","303688.565852","310588.445368","311354.964363","312121.788512","312888.001427","313654.625541","299788.312856","300555.094339","304455.048674","305221.899412","305988.474986","306754.955645","307521.498756","308288.670414","309054.789959","309821.52383","312892.513178"
"Mixed","Both","ball","4","F_jolt.wav","space","0.931226764806","112","303688.565852","310588.445368","311354.964363","312121.788512","312888.001427","313654.625541","314421.37518","300555.094339","304455.048674","305221.899412","305988.474986","306754.955645","307521.498756","308288.670414","309054.789959","309821.52383","313664.317782"
"Mixed","Both","ball","4","F_romp.wav","None","729.682668694","112","303688.565852","310588.445368","311354.964363","312121.788512","312888.001427","313654.625541","314421.37518","315187.916745","304455.048674","305221.899412","305988.474986","306754.955645","307521.498756","308288.670414","309054.789959","309821.52383","314431.060309"
"Mixed","Both","tile","28","F_park.wav","None","730.898952344","112","318321.630649","310588.445368","311354.964363","312121.788512","312888.001427","313654.625541","314421.37518","315187.916745","304455.048674","305221.899412","305988.474986","306754.955645","307521.498756","308288.670414","309054.789959","309821.52383","315197.717505"
"Mixed","Both","tile","28","F_bluff.wav","None","722.066828865","112","318321.630649","310588.445368","311354.964363","312121.788512","312888.001427","313654.625541","314421.37518","315187.916745","319088.349679","305221.899412","305988.474986","306754.955645","307521.498756","308288.670414","309054.789959","309821.52383","318332.016672"
"Mixed","Both","tile","28","M_cling.wav","None","723.064218531","112","318321.630649","310588.445368","311354.964363","312121.788512","312888.001427","313654.625541","314421.37518","315187.916745","319088.349679","319854.69492","305988.474986","306754.955645","307521.498756","308288.670414","309054.789959","309821.52383","319098.496093"
"Mixed","Both","tile","28","F_tile.wav","None","724.819080206","112","318321.630649","310588.445368","311354.964363","312121.788512","312888.001427","313654.625541","314421.37518","315187.916745","319088.349679","319854.69492","320621.259982","306754.955645","307521.498756","308288.670414","309054.789959","309821.52383","319864.111997"
"Mixed","Both","tile","28","M_gnash.wav","space","506.036433391","112","318321.630649","310588.445368","311354.964363","312121.788512","312888.001427","313654.625541","314421.37518","315187.916745","319088.349679","319854.69492","320621.259982","321387.584508","307521.498756","308288.670414","309054.789959","309821.52383","320631.081766"
"Mixed","Both","tile","28","M_tile.wav","None","725.362295751","112","318321.630649","310588.445368","311354.964363","312121.788512","312888.001427","313654.625541","314421.37518","315187.916745","319088.349679","319854.69492","320621.259982","321387.584508","322154.165957","308288.670414","309054.789959","309821.52383","321396.938515"
"Mixed","Both","tile","28","M_priest.wav","space","581.304725376","112","318321.630649","310588.445368","311354.964363","312121.788512","312888.001427","313654.625541","314421.37518","315187.916745","319088.349679","319854.69492","320621.259982","321387.584508","322154.165957","322921.183957","309054.789959","309821.52383","322163.80873"
"Mixed","Both","tile","28","M_tile.wav","None","725.052196067","112","318321.630649","310588.445368","311354.964363","312121.788512","312888.001427","313654.625541","314421.37518","315187.916745","319088.349679","319854.69492","320621.259982","321387.584508","322154.165957","322921.183957","323687.902677","309821.52383","322930.439028"
"Mixed","Both","tile","28","F_gnash.wav","space","535.442733206","112","318321.630649","310588.445368","311354.964363","312121.788512","312888.001427","313654.625541","314421.37518","315187.916745","319088.349679","319854.69492","320621.259982","321387.584508","322154.165957","322921.183957","323687.902677","324454.283473","323697.61285"
