"Condition","Talker","Target","Trial","current_stimulus","response_response","response_time_response","subject_nr","time_Audio1","time_Audio10","time_Audio11","time_Audio12","time_Audio13","time_Audio14","time_Audio15","time_Audio16","time_Audio2","time_Audio3","time_Audio4","time_Audio5","time_Audio6","time_Audio7","time_Audio8","time_Audio9","time_response","title"
"Blocked","Female","ball","6","F_lash.wav","NA","NA","206","633123.69525","NA","NA","NA","NA","NA","NA","NA","NA","NA","NA","NA","NA","NA","NA","NA","NA","Mapping"
"Blocked","Female","ball","6","F_lash.wav","None","716.34997541","206","633123.69525","NA","NA","NA","NA","NA","NA","NA","633873.1484","NA","NA","NA","NA","NA","NA","NA","633138.845356","Mapping"
"Blocked","Female","ball","6","F_ball.wav","None","735.450077336","206","633123.69525","NA","NA","NA","NA","NA","NA","NA","633873.1484","634640.004291","NA","NA","NA","NA","NA","NA","633882.921984","Mapping"
"Blocked","Female","ball","6","F_romp.wav","space","480.70774693","206","633123.69525","NA","NA","NA","NA","NA","NA","NA","633873.1484","634640.004291","635406.381273","NA","NA","NA","NA","NA","634650.396839","Mapping"
"Blocked","Female","ball","6","F_done.wav","None","734.708370845","206","633123.69525","NA","NA","NA","NA","NA","NA","NA","633873.1484","634640.004291","635406.381273","636172.98797","NA","NA","NA","NA","635415.717994","Mapping"
"Blocked","Female","ball","6","F_jolt.wav","None","734.552238369","206","633123.69525","NA","NA","NA","NA","NA","NA","NA","633873.1484","634640.004291","635406.381273","636172.98797","636939.928884","NA","NA","NA","636182.136405","Mapping"
"Blocked","Female","ball","6","F_ball.wav","None","733.128495776","206","633123.69525","NA","NA","NA","NA","NA","NA","NA","633873.1484","634640.004291","635406.381273","636172.98797","636939.928884","637706.697588","NA","NA","636949.94455","Mapping"
"Blocked","Female","ball","6","F_knife.wav","space","461.754193093","206","633123.69525","NA","NA","NA","NA","NA","NA","NA","633873.1484","634640.004291","635406.381273","636172.98797","636939.928884","637706.697588","638473.329019","NA","637717.132184","Mapping"
"Blocked","Female","ball","6","F_ball.wav","None","729.53497569","206","633123.69525","NA","NA","NA","NA","NA","NA","NA","633873.1484","634640.004291","635406.381273","636172.98797","636939.928884","637706.697588","638473.329019","639240.00559","638483.131046","Mapping"
"Blocked","Female","ball","6","F_reek.wav","space","480.838527175","206","633123.69525","640007.290304","NA","NA","NA","NA","NA","NA","633873.1484","634640.004291","635406.381273","636172.98797","636939.928884","637706.697588","638473.329019","639240.00559","639250.149563","Mapping"
"Blocked","Female","ball","6","F_cad.wav","None","724.949627969","206","633123.69525","640007.290304","640773.307717","NA","NA","NA","NA","NA","633873.1484","634640.004291","635406.381273","636172.98797","636939.928884","637706.697588","638473.329019","639240.00559","640017.001434","Mapping"
"Blocked","Female","ball","6","F_jolt.wav","None","725.015791017","206","633123.69525","640007.290304","640773.307717","641540.715792","NA","NA","NA","NA","633873.1484","634640.004291","635406.381273","636172.98797","636939.928884","637706.697588","638473.329019","639240.00559","640783.009263","Mapping"
"Blocked","Female","ball","6","F_greet.wav","None","720.088497736","206","633123.69525","640007.290304","640773.307717","641540.715792","642307.333001","NA","NA","NA","633873.1484","634640.004291","635406.381273","636172.98797","636939.928884","637706.697588","638473.329019","639240.00559","641550.950352","Mapping"
"Blocked","Female","ball","6","F_depth.wav","None","719.967611018","206","633123.69525","640007.290304","640773.307717","641540.715792","642307.333001","643074.272987","NA","NA","633873.1484","634640.004291","635406.381273","636172.98797","636939.928884","637706.697588","638473.329019","639240.00559","642317.355159","Mapping"
"Blocked","Female","ball","6","F_ball.wav","None","719.464277034","206","633123.69525","640007.290304","640773.307717","641540.715792","642307.333001","643074.272987","643823.492402","NA","633873.1484","634640.004291","635406.381273","636172.98797","636939.928884","637706.697588","638473.329019","639240.00559","643084.484978","Mapping"
"Blocked","Female","ball","6","F_cling.wav","space","479.910080059","206","633123.69525","640007.290304","640773.307717","641540.715792","642307.333001","643074.272987","643823.492402","644589.870311","633873.1484","634640.004291","635406.381273","636172.98797","636939.928884","637706.697588","638473.329019","639240.00559","643835.018997","Mapping"
"Blocked","Female","tile","16","F_bluff.wav","None","734.653647174","206","647740.48589","640007.290304","640773.307717","641540.715792","642307.333001","643074.272987","643823.492402","644589.870311","633873.1484","634640.004291","635406.381273","636172.98797","636939.928884","637706.697588","638473.329019","639240.00559","644599.523008","Mapping"
"Blocked","Female","tile","16","F_tile.wav","None","722.132750932","206","647740.48589","640007.290304","640773.307717","641540.715792","642307.333001","643074.272987","643823.492402","644589.870311","648507.218112","634640.004291","635406.381273","636172.98797","636939.928884","637706.697588","638473.329019","639240.00559","647750.860197","Mapping"
"Blocked","Female","tile","16","F_done.wav","space","517.071152804","206","647740.48589","640007.290304","640773.307717","641540.715792","642307.333001","643074.272987","643823.492402","644589.870311","648507.218112","649274.074931","635406.381273","636172.98797","636939.928884","637706.697588","638473.329019","639240.00559","648517.720107","Mapping"
"Blocked","Female","tile","16","F_cad.wav","None","718.491308973","206","647740.48589","640007.290304","640773.307717","641540.715792","642307.333001","643074.272987","643823.492402","644589.870311","648507.218112","649274.074931","650023.731207","636172.98797","636939.928884","637706.697588","638473.329019","639240.00559","649283.933227","Mapping"
"Blocked","Female","tile","16","F_lash.wav","None","732.005578699","206","647740.48589","640007.290304","640773.307717","641540.715792","642307.333001","643074.272987","643823.492402","644589.870311","648507.218112","649274.074931","650023.731207","650790.223201","636939.928884","637706.697588","638473.329019","639240.00559","650033.872088","Mapping"
"Blocked","Female","tile","16","F_tile.wav","None","729.380079923","206","647740.48589","640007.290304","640773.307717","641540.715792","642307.333001","643074.272987","643823.492402","644589.870311","648507.218112","649274.074931","650023.731207","650790.223201","651556.853087","637706.697588","638473.329019","639240.00559","650799.819628","Mapping"
"Blocked","Female","tile","16","F_dime.wav","space","587.954364804","206","647740.48589","640007.290304","640773.307717","641540.715792","642307.333001","643074.272987","643823.492402","644589.870311","648507.218112","649274.074931","650023.731207","650790.223201","651556.853087","652323.474006","638473.329019","639240.00559","651566.844946","Mapping"
"Blocked","Female","tile","16","F_lash.wav","None","725.29311938","206","647740.48589","640007.290304","640773.307717","641540.715792","642307.333001","643074.272987","643823.492402","644589.870311","648507.218112","649274.074931","650023.731207","650790.223201","651556.853087","652323.474006","653090.526531","639240.00559","652333.352708","Mapping"
"Blocked","Female","tile","16","F_tile.wav","None","721.267375164","206","647740.48589","640007.290304","640773.307717","641540.715792","642307.333001","643074.272987","643823.492402","644589.870311","648507.218112","649274.074931","650023.731207","650790.223201","651556.853087","652323.474006","653090.526531","653840.635438","653100.675451","Mapping"
"Blocked","Female","tile","16","F_bluff.wav","space","504.458432115","206","647740.48589","654606.819495","640773.307717","641540.715792","642307.333001","643074.272987","643823.492402","644589.870311","648507.218112","649274.074931","650023.731207","650790.223201","651556.853087","652323.474006","653090.526531","653840.635438","653850.299264","Mapping"
"Blocked","Female","tile","16","F_cling.wav","None","731.882527791","206","647740.48589","654606.819495","655373.431448","641540.715792","642307.333001","643074.272987","643823.492402","644589.870311","648507.218112","649274.074931","650023.731207","650790.223201","651556.853087","652323.474006","653090.526531","653840.635438","654616.557214","Mapping"
"Blocked","Female","tile","16","F_greet.wav","None","728.482550097","206","647740.48589","654606.819495","655373.431448","656140.110492","642307.333001","643074.272987","643823.492402","644589.870311","648507.218112","649274.074931","650023.731207","650790.223201","651556.853087","652323.474006","653090.526531","653840.635438","655383.387444","Mapping"
"Blocked","Female","tile","16","F_reek.wav","None","724.616648396","206","647740.48589","654606.819495","655373.431448","656140.110492","656907.082632","643074.272987","643823.492402","644589.870311","648507.218112","649274.074931","650023.731207","650790.223201","651556.853087","652323.474006","653090.526531","653840.635438","656150.689163","Mapping"
"Blocked","Female","tile","16","F_tile.wav","None","721.447932301","206","647740.48589","654606.819495","655373.431448","656140.110492","656907.082632","657656.788995","643823.492402","644589.870311","648507.218112","649274.074931","650023.731207","650790.223201","651556.853087","652323.474006","653090.526531","653840.635438","656917.283184","Mapping"
"Blocked","Female","tile","16","F_greet.wav","space","632.105225231","206","647740.48589","654606.819495","655373.431448","656140.110492","656907.082632","657656.788995","658423.307887","644589.870311","648507.218112","649274.074931","650023.731207","650790.223201","651556.853087","652323.474006","653090.526531","653840.635438","657666.532279","Mapping"
"Blocked","Female","tile","16","F_greet.wav","None","732.40070208","206","647740.48589","654606.819495","655373.431448","656140.110492","656907.082632","657656.788995","658423.307887","659189.544814","648507.218112","649274.074931","650023.731207","650790.223201","651556.853087","652323.474006","653090.526531","653840.635438","658433.485251","Mapping"
"Blocked","Female","done","21","F_jaw.wav","None","730.601623218","206","662323.108254","654606.819495","655373.431448","656140.110492","656907.082632","657656.788995","658423.307887","659189.544814","648507.218112","649274.074931","650023.731207","650790.223201","651556.853087","652323.474006","653090.526531","653840.635438","659198.63667","Mapping"
"Blocked","Female","done","21","F_done.wav","None","722.935673723","206","662323.108254","654606.819495","655373.431448","656140.110492","656907.082632","657656.788995","658423.307887","659189.544814","663072.965184","649274.074931","650023.731207","650790.223201","651556.853087","652323.474006","653090.526531","653840.635438","662332.401382","Mapping"
"Blocked","Female","done","21","F_park.wav","space","567.607676523","206","662323.108254","654606.819495","655373.431448","656140.110492","656907.082632","657656.788995","658423.307887","659189.544814","663072.965184","663839.50139","650023.731207","650790.223201","651556.853087","652323.474006","653090.526531","653840.635438","663082.960445","Mapping"
"Blocked","Female","done","21","F_done.wav","None","736.191783828","206","662323.108254","654606.819495","655373.431448","656140.110492","656907.082632","657656.788995","658423.307887","659189.544814","663072.965184","663839.50139","664606.62688","650790.223201","651556.853087","652323.474006","653090.526531","653840.635438","663848.697747","Mapping"
"Blocked","Female","done","21","F_greet.wav","space","610.085600783","206","662323.108254","654606.819495","655373.431448","656140.110492","656907.082632","657656.788995","658423.307887","659189.544814","663072.965184","663839.50139","664606.62688","665372.911419","651556.853087","652323.474006","653090.526531","653840.635438","664616.452405","Mapping"
"Blocked","Female","done","21","F_depth.wav","None","728.813365422","206","662323.108254","654606.819495","655373.431448","656140.110492","656907.082632","657656.788995","658423.307887","659189.544814","663072.965184","663839.50139","664606.62688","665372.911419","666139.941065","652323.474006","653090.526531","653840.635438","665382.391597","Mapping"
"Blocked","Female","done","21","F_done.wav","None","724.903251976","206","662323.108254","654606.819495","655373.431448","656140.110492","656907.082632","657656.788995","658423.307887","659189.544814","663072.965184","663839.50139","664606.62688","665372.911419","666139.941065","666906.908259","653090.526531","653840.635438","666149.735054","Mapping"
"Blocked","Female","done","21","F_depth.wav","space","557.294276921","206","662323.108254","654606.819495","655373.431448","656140.110492","656907.082632","657656.788995","658423.307887","659189.544814","663072.965184","663839.50139","664606.62688","665372.911419","666139.941065","666906.908259","667655.89332","653840.635438","666917.180538","Mapping"
"Blocked","Female","done","21","F_knife.wav","None","736.348843813","206","662323.108254","654606.819495","655373.431448","656140.110492","656907.082632","657656.788995","658423.307887","659189.544814","663072.965184","663839.50139","664606.62688","665372.911419","666139.941065","666906.908259","667655.89332","668423.124238","667665.076692","Mapping"
"Blocked","Female","done","21","F_cave.wav","None","725.315998192","206","662323.108254","669189.370749","655373.431448","656140.110492","656907.082632","657656.788995","658423.307887","659189.544814","663072.965184","663839.50139","664606.62688","665372.911419","666139.941065","666906.908259","667655.89332","668423.124238","668439.5098","Mapping"
"Blocked","Female","done","21","F_tile.wav","None","731.620658102","206","662323.108254","669189.370749","669956.201288","656140.110492","656907.082632","657656.788995","658423.307887","659189.544814","663072.965184","663839.50139","664606.62688","665372.911419","666139.941065","666906.908259","667655.89332","668423.124238","669199.540692","Mapping"
"Blocked","Female","done","21","F_reek.wav","None","728.81707552","206","662323.108254","669189.370749","669956.201288","670723.150549","656907.082632","657656.788995","658423.307887","659189.544814","663072.965184","663839.50139","664606.62688","665372.911419","666139.941065","666906.908259","667655.89332","668423.124238","669965.635708","Mapping"
"Blocked","Female","done","21","F_jaw.wav","None","725.433174841","206","662323.108254","669189.370749","669956.201288","670723.150549","671489.473425","657656.788995","658423.307887","659189.544814","663072.965184","663839.50139","664606.62688","665372.911419","666139.941065","666906.908259","667655.89332","668423.124238","670732.938663","Mapping"
"Blocked","Female","done","21","F_tile.wav","None","722.97184699","206","662323.108254","669189.370749","669956.201288","670723.150549","671489.473425","672256.15216","658423.307887","659189.544814","663072.965184","663839.50139","664606.62688","665372.911419","666139.941065","666906.908259","667655.89332","668423.124238","671498.850958","Mapping"
"Blocked","Female","done","21","F_done.wav","None","720.1061206","206","662323.108254","669189.370749","669956.201288","670723.150549","671489.473425","672256.15216","673006.174807","659189.544814","663072.965184","663839.50139","664606.62688","665372.911419","666139.941065","666906.908259","667655.89332","668423.124238","672265.359338","Mapping"
"Blocked","Female","done","21","F_bluff.wav","space","482.875051035","206","662323.108254","669189.370749","669956.201288","670723.150549","671489.473425","672256.15216","673006.174807","673772.78336","663072.965184","663839.50139","664606.62688","665372.911419","666139.941065","666906.908259","667655.89332","668423.124238","673015.533171","Mapping"
"Blocked","Female","cave","10","F_ball.wav","None","728.313123196","206","676906.794483","669189.370749","669956.201288","670723.150549","671489.473425","672256.15216","673006.174807","673772.78336","663072.965184","663839.50139","664606.62688","665372.911419","666139.941065","666906.908259","667655.89332","668423.124238","673783.727782","Mapping"
"Blocked","Female","cave","10","F_depth.wav","None","720.607599535","206","676906.794483","669189.370749","669956.201288","670723.150549","671489.473425","672256.15216","673006.174807","673772.78336","677656.133857","663839.50139","664606.62688","665372.911419","666139.941065","666906.908259","667655.89332","668423.124238","676916.983595","Mapping"
"Blocked","Female","cave","10","F_cave.wav","None","734.75072757","206","676906.794483","669189.370749","669956.201288","670723.150549","671489.473425","672256.15216","673006.174807","673772.78336","677656.133857","678422.720149","664606.62688","665372.911419","666139.941065","666906.908259","667655.89332","668423.124238","677666.085215","Mapping"
"Blocked","Female","cave","10","F_dime.wav","space","474.360730295","206","676906.794483","669189.370749","669956.201288","670723.150549","671489.473425","672256.15216","673006.174807","673772.78336","677656.133857","678422.720149","679189.694144","665372.911419","666139.941065","666906.908259","667655.89332","668423.124238","678431.924544","Mapping"
"Blocked","Female","cave","10","F_depth.wav","None","733.485281642","206","676906.794483","669189.370749","669956.201288","670723.150549","671489.473425","672256.15216","673006.174807","673772.78336","677656.133857","678422.720149","679189.694144","679956.398231","666139.941065","666906.908259","667655.89332","668423.124238","679193.876639","Mapping"
"Blocked","Female","cave","10","F_cave.wav","None","724.31644125","206","676906.794483","669189.370749","669956.201288","670723.150549","671489.473425","672256.15216","673006.174807","673772.78336","677656.133857","678422.720149","679189.694144","679956.398231","680724.087344","666906.908259","667655.89332","668423.124238","679966.354536","Mapping"
"Blocked","Female","cave","10","F_cad.wav","space","523.120744794","206","676906.794483","669189.370749","669956.201288","670723.150549","671489.473425","672256.15216","673006.174807","673772.78336","677656.133857","678422.720149","679189.694144","679956.398231","680724.087344","681472.939152","667655.89332","668423.124238","680735.105658","Mapping"
"Blocked","Female","cave","10","F_cave.wav","None","734.480819345","206","676906.794483","669189.370749","669956.201288","670723.150549","671489.473425","672256.15216","673006.174807","673772.78336","677656.133857","678422.720149","679189.694144","679956.398231","680724.087344","681472.939152","682239.647567","668423.124238","681482.618746","Mapping"
"Blocked","Female","cave","10","F_jolt.wav","space","640.666231164","206","676906.794483","669189.370749","669956.201288","670723.150549","671489.473425","672256.15216","673006.174807","673772.78336","677656.133857","678422.720149","679189.694144","679956.398231","680724.087344","681472.939152","682239.647567","683005.914793","682249.530598","Mapping"
"Blocked","Female","cave","10","F_park.wav","None","728.633426654","206","676906.794483","683772.51407","669956.201288","670723.150549","671489.473425","672256.15216","673006.174807","673772.78336","677656.133857","678422.720149","679189.694144","679956.398231","680724.087344","681472.939152","682239.647567","683005.914793","683015.184423","Mapping"
"Blocked","Female","cave","10","F_dime.wav","None","725.670929038","206","676906.794483","683772.51407","684539.341517","670723.150549","671489.473425","672256.15216","673006.174807","673772.78336","677656.133857","678422.720149","679189.694144","679956.398231","680724.087344","681472.939152","682239.647567","683005.914793","683781.762368","Mapping"
"Blocked","Female","cave","10","F_knife.wav","None","722.419663653","206","676906.794483","683772.51407","684539.341517","685289.709819","671489.473425","672256.15216","673006.174807","673772.78336","677656.133857","678422.720149","679189.694144","679956.398231","680724.087344","681472.939152","682239.647567","683005.914793","684548.899297","Mapping"
"Blocked","Female","cave","10","F_bluff.wav","None","735.108440975","206","676906.794483","683772.51407","684539.341517","685289.709819","686056.192847","672256.15216","673006.174807","673772.78336","677656.133857","678422.720149","679189.694144","679956.398231","680724.087344","681472.939152","682239.647567","683005.914793","685299.686838","Mapping"
"Blocked","Female","cave","10","F_knife.wav","None","732.602901349","206","676906.794483","683772.51407","684539.341517","685289.709819","686056.192847","686822.794907","673006.174807","673772.78336","677656.133857","678422.720149","679189.694144","679956.398231","680724.087344","681472.939152","682239.647567","683005.914793","686065.781545","Mapping"
"Blocked","Female","cave","10","F_cave.wav","None","728.984956542","206","676906.794483","683772.51407","684539.341517","685289.709819","686056.192847","686822.794907","687589.490956","673772.78336","677656.133857","678422.720149","679189.694144","679956.398231","680724.087344","681472.939152","682239.647567","683005.914793","686832.831906","Mapping"
"Blocked","Female","cave","10","F_dime.wav","space","490.71568338","206","676906.794483","683772.51407","684539.341517","685289.709819","686056.192847","686822.794907","687589.490956","688356.474535","677656.133857","678422.720149","679189.694144","679956.398231","680724.087344","681472.939152","682239.647567","683005.914793","687599.427782","Mapping"
"Blocked","Female","cave","11","F_done.wav","None","722.602385038","206","691473.119709","683772.51407","684539.341517","685289.709819","686056.192847","686822.794907","687589.490956","688356.474535","677656.133857","678422.720149","679189.694144","679956.398231","680724.087344","681472.939152","682239.647567","683005.914793","688366.358493","Mapping"
"Blocked","Female","cave","11","F_bluff.wav","None","718.354036071","206","691473.119709","683772.51407","684539.341517","685289.709819","686056.192847","686822.794907","687589.490956","688356.474535","692222.745068","678422.720149","679189.694144","679956.398231","680724.087344","681472.939152","682239.647567","683005.914793","691483.797315","Mapping"
"Blocked","Female","cave","11","F_cave.wav","None","732.62856272","206","691473.119709","683772.51407","684539.341517","685289.709819","686056.192847","686822.794907","687589.490956","688356.474535","692222.745068","692989.452247","679189.694144","679956.398231","680724.087344","681472.939152","682239.647567","683005.914793","692232.928306","Mapping"
"Blocked","Female","cave","11","F_tile.wav","space","386.888211942","206","691473.119709","683772.51407","684539.341517","685289.709819","686056.192847","686822.794907","687589.490956","688356.474535","692222.745068","692989.452247","693755.403497","679956.398231","680724.087344","681472.939152","682239.647567","683005.914793","692999.179145","Mapping"
"Blocked","Female","cave","11","F_depth.wav","None","728.856958856","206","691473.119709","683772.51407","684539.341517","685289.709819","686056.192847","686822.794907","687589.490956","688356.474535","692222.745068","692989.452247","693755.403497","694522.618648","680724.087344","681472.939152","682239.647567","683005.914793","693764.935616","Mapping"
"Blocked","Female","cave","11","F_dime.wav","None","725.051964313","206","691473.119709","683772.51407","684539.341517","685289.709819","686056.192847","686822.794907","687589.490956","688356.474535","692222.745068","692989.452247","693755.403497","694522.618648","695289.026237","681472.939152","682239.647567","683005.914793","694532.401197","Mapping"
"Blocked","Female","cave","11","F_gnash.wav","None","722.723890096","206","691473.119709","683772.51407","684539.341517","685289.709819","686056.192847","686822.794907","687589.490956","688356.474535","692222.745068","692989.452247","693755.403497","694522.618648","695289.026237","696056.553962","682239.647567","683005.914793","695298.209918","Mapping"
"Blocked","Female","cave","11","F_cave.wav","None","721.645493992","206","691473.119709","683772.51407","684539.341517","685289.709819","686056.192847","686822.794907","687589.490956","688356.474535","692222.745068","692989.452247","693755.403497","694522.618648","695289.026237","696056.553962","696823.411708","683005.914793","696066.464509","Mapping"
"Blocked","Female","cave","11","F_reek.wav","space","536.170327221","206","691473.119709","683772.51407","684539.341517","685289.709819","686056.192847","686822.794907","687589.490956","688356.474535","692222.745068","692989.452247","693755.403497","694522.618648","695289.026237","696056.553962","696823.411708","697572.647818","696833.777976","Mapping"
"Blocked","Female","cave","11","F_cave.wav","None","731.668889086","206","691473.119709","698339.325007","684539.341517","685289.709819","686056.192847","686822.794907","687589.490956","688356.474535","692222.745068","692989.452247","693755.403497","694522.618648","695289.026237","696056.553962","696823.411708","697572.647818","697582.890726","Mapping"
"Blocked","Female","cave","11","F_greet.wav","None","729.39151933","206","691473.119709","698339.325007","699105.545856","685289.709819","686056.192847","686822.794907","687589.490956","688356.474535","692222.745068","692989.452247","693755.403497","694522.618648","695289.026237","696056.553962","696823.411708","697572.647818","698348.938438","Mapping"
"Blocked","Female","cave","11","F_gnash.wav","space","31.1114807264","206","691473.119709","698339.325007","699105.545856","699872.8383","686056.192847","686822.794907","687589.490956","688356.474535","692222.745068","692989.452247","693755.403497","694522.618648","695289.026237","696056.553962","696823.411708","697572.647818","699114.851969","Mapping"
"Blocked","Female","cave","11","F_greet.wav","None","721.015708143","206","691473.119709","698339.325007","699105.545856","699872.8383","700639.030087","686822.794907","687589.490956","688356.474535","692222.745068","692989.452247","693755.403497","694522.618648","695289.026237","696056.553962","696823.411708","697572.647818","699883.887531","Mapping"
"Blocked","Female","cave","11","F_priest.wav","None","719.919689174","206","691473.119709","698339.325007","699105.545856","699872.8383","700639.030087","701405.588553","687589.490956","688356.474535","692222.745068","692989.452247","693755.403497","694522.618648","695289.026237","696056.553962","696823.411708","697572.647818","700648.617857","Mapping"
"Blocked","Female","cave","11","F_cave.wav","None","720.379429724","206","691473.119709","698339.325007","699105.545856","699872.8383","700639.030087","701405.588553","702155.913571","688356.474535","692222.745068","692989.452247","693755.403497","694522.618648","695289.026237","696056.553962","696823.411708","697572.647818","701414.812117","Mapping"
"Blocked","Female","cave","11","F_romp.wav","space","596.144053707","206","691473.119709","698339.325007","699105.545856","699872.8383","700639.030087","701405.588553","702155.913571","702922.473893","692222.745068","692989.452247","693755.403497","694522.618648","695289.026237","696056.553962","696823.411708","697572.647818","702165.735695","Mapping"
"Blocked","Female","tile","17","F_gnash.wav","None","729.314535216","206","706056.391337","698339.325007","699105.545856","699872.8383","700639.030087","701405.588553","702155.913571","702922.473893","692222.745068","692989.452247","693755.403497","694522.618648","695289.026237","696056.553962","696823.411708","697572.647818","702932.54521","Mapping"
"Blocked","Female","tile","17","F_romp.wav","None","719.634631503","206","706056.391337","698339.325007","699105.545856","699872.8383","700639.030087","701405.588553","702155.913571","702922.473893","706805.608278","692989.452247","693755.403497","694522.618648","695289.026237","696056.553962","696823.411708","697572.647818","706066.664235","Mapping"
"Blocked","Female","tile","17","F_tile.wav","None","734.258833021","206","706056.391337","698339.325007","699105.545856","699872.8383","700639.030087","701405.588553","702155.913571","702922.473893","706805.608278","707572.114185","693755.403497","694522.618648","695289.026237","696056.553962","696823.411708","697572.647818","706815.797699","Mapping"
"Blocked","Female","tile","17","F_park.wav","space","508.264972566","206","706056.391337","698339.325007","699105.545856","699872.8383","700639.030087","701405.588553","702155.913571","702922.473893","706805.608278","707572.114185","708339.164237","694522.618648","695289.026237","696056.553962","696823.411708","697572.647818","707581.484606","Mapping"
"Blocked","Female","tile","17","F_cave.wav","None","728.097629471","206","706056.391337","698339.325007","699105.545856","699872.8383","700639.030087","701405.588553","702155.913571","702922.473893","706805.608278","707572.114185","708339.164237","709105.446921","695289.026237","696056.553962","696823.411708","697572.647818","708348.876604","Mapping"
"Blocked","Female","tile","17","F_knife.wav","None","726.75303524","206","706056.391337","698339.325007","699105.545856","699872.8383","700639.030087","701405.588553","702155.913571","702922.473893","706805.608278","707572.114185","708339.164237","709105.446921","709872.235412","696056.553962","696823.411708","697572.647818","709114.493947","Mapping"
"Blocked","Female","tile","17","F_gnash.wav","None","723.336362222","206","706056.391337","698339.325007","699105.545856","699872.8383","700639.030087","701405.588553","702155.913571","702922.473893","706805.608278","707572.114185","708339.164237","709105.446921","709872.235412","710639.327511","696823.411708","697572.647818","709881.674161","Mapping"
"Blocked","Female","tile","17","F_tile.wav","None","718.563964707","206","706056.391337","698339.325007","699105.545856","699872.8383","700639.030087","701405.588553","702155.913571","702922.473893","706805.608278","707572.114185","708339.164237","709105.446921","709872.235412","710639.327511","711388.912987","697572.647818","710650.664274","Mapping"
"Blocked","Female","tile","17","F_cad.wav","space","474.474196875","206","706056.391337","698339.325007","699105.545856","699872.8383","700639.030087","701405.588553","702155.913571","702922.473893","706805.608278","707572.114185","708339.164237","709105.446921","709872.235412","710639.327511","711388.912987","712155.758057","711399.200107","Mapping"
"Blocked","Female","tile","17","F_tile.wav","None","730.818353622","206","706056.391337","712922.022191","699105.545856","699872.8383","700639.030087","701405.588553","702155.913571","702922.473893","706805.608278","707572.114185","708339.164237","709105.446921","709872.235412","710639.327511","711388.912987","712155.758057","712165.43456","Mapping"
"Blocked","Female","tile","17","F_ball.wav","space","646.164567355","206","706056.391337","712922.022191","713689.078735","699872.8383","700639.030087","701405.588553","702155.913571","702922.473893","706805.608278","707572.114185","708339.164237","709105.446921","709872.235412","710639.327511","711388.912987","712155.758057","712931.488146","Mapping"
"Blocked","Female","tile","17","F_lash.wav","None","724.420632614","206","706056.391337","712922.022191","713689.078735","714455.942046","700639.030087","701405.588553","702155.913571","702922.473893","706805.608278","707572.114185","708339.164237","709105.446921","709872.235412","710639.327511","711388.912987","712155.758057","713698.776262","Mapping"
"Blocked","Female","tile","17","F_tile.wav","None","720.635734295","206","706056.391337","712922.022191","713689.078735","714455.942046","715205.84999","701405.588553","702155.913571","702922.473893","706805.608278","707572.114185","708339.164237","709105.446921","709872.235412","710639.327511","711388.912987","712155.758057","714466.504021","Mapping"
"Blocked","Female","tile","17","F_bluff.wav","space","593.981696322","206","706056.391337","712922.022191","713689.078735","714455.942046","715205.84999","715972.000038","702155.913571","702922.473893","706805.608278","707572.114185","708339.164237","709105.446921","709872.235412","710639.327511","711388.912987","712155.758057","715215.641505","Mapping"
"Blocked","Female","tile","17","F_lash.wav","None","732.423890062","206","706056.391337","712922.022191","713689.078735","714455.942046","715205.84999","715972.000038","716739.020409","702922.473893","706805.608278","707572.114185","708339.164237","709105.446921","709872.235412","710639.327511","711388.912987","712155.758057","715982.313129","Mapping"
"Blocked","Female","tile","17","F_gnash.wav","None","729.73377406","206","706056.391337","712922.022191","713689.078735","714455.942046","715205.84999","715972.000038","716739.020409","717505.8729","706805.608278","707572.114185","708339.164237","709105.446921","709872.235412","710639.327511","711388.912987","712155.758057","716748.824292","Mapping"
"Blocked","Female","ball","5","F_gnash.wav","None","725.645576807","206","720638.611466","712922.022191","713689.078735","714455.942046","715205.84999","715972.000038","716739.020409","717505.8729","706805.608278","707572.114185","708339.164237","709105.446921","709872.235412","710639.327511","711388.912987","712155.758057","717516.58606","Mapping"
"Blocked","Female","ball","5","F_reek.wav","None","720.997466939","206","720638.611466","712922.022191","713689.078735","714455.942046","715205.84999","715972.000038","716739.020409","717505.8729","721388.548781","707572.114185","708339.164237","709105.446921","709872.235412","710639.327511","711388.912987","712155.758057","720647.856054","Mapping"
"Blocked","Female","ball","5","F_ball.wav","None","734.371372033","206","720638.611466","712922.022191","713689.078735","714455.942046","715205.84999","715972.000038","716739.020409","717505.8729","721388.548781","722155.997048","708339.164237","709105.446921","709872.235412","710639.327511","711388.912987","712155.758057","721398.2157","Mapping"
"Blocked","Female","ball","5","F_reek.wav","space","451.792941749","206","720638.611466","712922.022191","713689.078735","714455.942046","715205.84999","715972.000038","716739.020409","717505.8729","721388.548781","722155.997048","722921.807315","709105.446921","709872.235412","710639.327511","711388.912987","712155.758057","722165.694575","Mapping"
"Blocked","Female","ball","5","F_ball.wav","None","727.885227476","206","720638.611466","712922.022191","713689.078735","714455.942046","715205.84999","715972.000038","716739.020409","717505.8729","721388.548781","722155.997048","722921.807315","723688.367637","709872.235412","710639.327511","711388.912987","712155.758057","722931.40467","Mapping"
"Blocked","Female","ball","5","F_dime.wav","None","726.386974158","206","720638.611466","712922.022191","713689.078735","714455.942046","715205.84999","715972.000038","716739.020409","717505.8729","721388.548781","722155.997048","722921.807315","723688.367637","724455.221982","710639.327511","711388.912987","712155.758057","723697.18","Mapping"
"Blocked","Female","ball","5","F_jolt.wav","None","429.9464543","206","720638.611466","712922.022191","713689.078735","714455.942046","715205.84999","715972.000038","716739.020409","717505.8729","721388.548781","722155.997048","722921.807315","723688.367637","724455.221982","725222.498657","711388.912987","712155.758057","724757.369221","Mapping"
"Blocked","Female","ball","5","F_lash.wav","None","717.503500608","206","720638.611466","712922.022191","713689.078735","714455.942046","715205.84999","715972.000038","716739.020409","717505.8729","721388.548781","722155.997048","722921.807315","723688.367637","724455.221982","725222.498657","725971.979324","712155.758057","725233.959708","Mapping"
"Blocked","Female","ball","5","F_greet.wav","None","733.912559022","206","720638.611466","712922.022191","713689.078735","714455.942046","715205.84999","715972.000038","716739.020409","717505.8729","721388.548781","722155.997048","722921.807315","723688.367637","724455.221982","725222.498657","725971.979324","726738.858094","725981.912131","Mapping"
"Blocked","Female","ball","5","F_park.wav","None","730.976959487","206","720638.611466","727505.431091","713689.078735","714455.942046","715205.84999","715972.000038","716739.020409","717505.8729","721388.548781","722155.997048","722921.807315","723688.367637","724455.221982","725222.498657","725971.979324","726738.858094","726748.551601","Mapping"
"Blocked","Female","ball","5","F_priest.wav","None","728.411440272","206","720638.611466","727505.431091","728271.946273","714455.942046","715205.84999","715972.000038","716739.020409","717505.8729","721388.548781","722155.997048","722921.807315","723688.367637","724455.221982","725222.498657","725971.979324","726738.858094","727514.937239","Mapping"
"Blocked","Female","ball","5","F_ball.wav","None","724.945299531","206","720638.611466","727505.431091","728271.946273","729039.183993","715205.84999","715972.000038","716739.020409","717505.8729","721388.548781","722155.997048","722921.807315","723688.367637","724455.221982","725222.498657","725971.979324","726738.858094","728282.125182","Mapping"
"Blocked","Female","ball","5","F_done.wav","space","456.079628173","206","720638.611466","727505.431091","728271.946273","729039.183993","729805.579834","715972.000038","716739.020409","717505.8729","721388.548781","722155.997048","722921.807315","723688.367637","724455.221982","725222.498657","725971.979324","726738.858094","729049.269841","Mapping"
"Blocked","Female","ball","5","F_bluff.wav","None","718.779149232","206","720638.611466","727505.431091","728271.946273","729039.183993","729805.579834","730555.332882","716739.020409","717505.8729","721388.548781","722155.997048","722921.807315","723688.367637","724455.221982","725222.498657","725971.979324","726738.858094","729815.449879","Mapping"
"Blocked","Female","ball","5","F_ball.wav","None","725.720705901","206","720638.611466","727505.431091","728271.946273","729039.183993","729805.579834","730555.332882","731321.635971","717505.8729","721388.548781","722155.997048","722921.807315","723688.367637","724455.221982","725222.498657","725971.979324","726738.858094","730572.265989","Mapping"
"Blocked","Female","ball","5","F_cave.wav","space","630.486703565","206","720638.611466","727505.431091","728271.946273","729039.183993","729805.579834","730555.332882","731321.635971","732088.763316","721388.548781","722155.997048","722921.807315","723688.367637","724455.221982","725222.498657","725971.979324","726738.858094","731330.821507","Mapping"
"Blocked","Female","done","22","F_ball.wav","None","726.659974112","206","735205.563695","727505.431091","728271.946273","729039.183993","729805.579834","730555.332882","731321.635971","732088.763316","721388.548781","722155.997048","722921.807315","723688.367637","724455.221982","725222.498657","725971.979324","726738.858094","732098.339338","Mapping"
"Blocked","Female","done","22","F_done.wav","None","719.671423081","206","735205.563695","727505.431091","728271.946273","729039.183993","729805.579834","730555.332882","731321.635971","732088.763316","735954.770743","722155.997048","722921.807315","723688.367637","724455.221982","725222.498657","725971.979324","726738.858094","735215.881423","Mapping"
"Blocked","Female","done","22","F_park.wav","space","613.324808393","206","735205.563695","727505.431091","728271.946273","729039.183993","729805.579834","730555.332882","731321.635971","732088.763316","735954.770743","736722.001662","722921.807315","723688.367637","724455.221982","725222.498657","725971.979324","726738.858094","735963.928763","Mapping"
"Blocked","Female","done","22","F_done.wav","None","730.541952798","206","735205.563695","727505.431091","728271.946273","729039.183993","729805.579834","730555.332882","731321.635971","732088.763316","735954.770743","736722.001662","737488.689981","723688.367637","724455.221982","725222.498657","725971.979324","726738.858094","736731.956729","Mapping"
"Blocked","Female","done","22","F_jaw.wav","space","542.93751021","206","735205.563695","727505.431091","728271.946273","729039.183993","729805.579834","730555.332882","731321.635971","732088.763316","735954.770743","736722.001662","737488.689981","738254.917632","724455.221982","725222.498657","725971.979324","726738.858094","737498.280224","Mapping"
"Blocked","Female","done","22","F_jolt.wav","None","725.024757034","206","735205.563695","727505.431091","728271.946273","729039.183993","729805.579834","730555.332882","731321.635971","732088.763316","735954.770743","736722.001662","737488.689981","738254.917632","739021.69592","725222.498657","725971.979324","726738.858094","738264.332265","Mapping"
"Blocked","Female","done","22","F_lash.wav","None","722.321346577","206","735205.563695","727505.431091","728271.946273","729039.183993","729805.579834","730555.332882","731321.635971","732088.763316","735954.770743","736722.001662","737488.689981","738254.917632","739021.69592","739771.50802","725971.979324","726738.858094","739030.949165","Mapping"
"Blocked","Female","done","22","F_cling.wav","None","736.15591976","206","735205.563695","727505.431091","728271.946273","729039.183993","729805.579834","730555.332882","731321.635971","732088.763316","735954.770743","736722.001662","737488.689981","738254.917632","739021.69592","739771.50802","740538.604448","726738.858094","739780.998091","Mapping"
"Blocked","Female","done","22","F_done.wav","None","732.552815287","206","735205.563695","727505.431091","728271.946273","729039.183993","729805.579834","730555.332882","731321.635971","732088.763316","735954.770743","736722.001662","737488.689981","738254.917632","739021.69592","739771.50802","740538.604448","741305.185793","740548.341549","Mapping"
"Blocked","Female","done","22","F_greet.wav","space","542.683679028","206","735205.563695","742071.810732","728271.946273","729039.183993","729805.579834","730555.332882","731321.635971","732088.763316","735954.770743","736722.001662","737488.689981","738254.917632","739021.69592","739771.50802","740538.604448","741305.185793","741314.481085","Mapping"
"Blocked","Female","done","22","F_romp.wav","None","726.450973016","206","735205.563695","742071.810732","742839.032374","729039.183993","729805.579834","730555.332882","731321.635971","732088.763316","735954.770743","736722.001662","737488.689981","738254.917632","739021.69592","739771.50802","740538.604448","741305.185793","742081.444259","Mapping"
"Blocked","Female","done","22","F_done.wav","None","722.414407704","206","735205.563695","742071.810732","742839.032374","743605.912381","729805.579834","730555.332882","731321.635971","732088.763316","735954.770743","736722.001662","737488.689981","738254.917632","739021.69592","739771.50802","740538.604448","741305.185793","742849.521694","Mapping"
"Blocked","Female","done","22","F_ball.wav","space","544.065374066","206","735205.563695","742071.810732","742839.032374","743605.912381","744354.66649","730555.332882","731321.635971","732088.763316","735954.770743","736722.001662","737488.689981","738254.917632","739021.69592","739771.50802","740538.604448","741305.185793","743617.049727","Mapping"
"Blocked","Female","done","22","F_bluff.wav","None","734.688583732","206","735205.563695","742071.810732","742839.032374","743605.912381","744354.66649","745121.808057","731321.635971","732088.763316","735954.770743","736722.001662","737488.689981","738254.917632","739021.69592","739771.50802","740538.604448","741305.185793","744364.1309","Mapping"
"Blocked","Female","done","22","F_dime.wav","None","731.185033044","206","735205.563695","742071.810732","742839.032374","743605.912381","744354.66649","745121.808057","745888.445054","732088.763316","735954.770743","736722.001662","737488.689981","738254.917632","739021.69592","739771.50802","740538.604448","741305.185793","745131.45828","Mapping"
"Blocked","Female","done","22","F_cave.wav","space","614.557481924","206","735205.563695","742071.810732","742839.032374","743605.912381","744354.66649","745121.808057","745888.445054","746654.704859","735954.770743","736722.001662","737488.689981","738254.917632","739021.69592","739771.50802","740538.604448","741305.185793","745898.497202","Mapping"
"Blocked","Female","ball","2","F_tile.wav","None","725.588379777","206","749772.224065","742071.810732","742839.032374","743605.912381","744354.66649","745121.808057","745888.445054","746654.704859","735954.770743","736722.001662","737488.689981","738254.917632","739021.69592","739771.50802","740538.604448","741305.185793","746664.107434","Mapping"
"Blocked","Female","ball","2","F_priest.wav","None","720.050469448","206","749772.224065","742071.810732","742839.032374","743605.912381","744354.66649","745121.808057","745888.445054","746654.704859","750521.433587","736722.001662","737488.689981","738254.917632","739021.69592","739771.50802","740538.604448","741305.185793","749782.144815","Mapping"
"Blocked","Female","ball","2","F_done.wav","None","734.650246246","206","749772.224065","742071.810732","742839.032374","743605.912381","744354.66649","745121.808057","745888.445054","746654.704859","750521.433587","751288.432625","737488.689981","738254.917632","739021.69592","739771.50802","740538.604448","741305.185793","750531.414316","Mapping"
"Blocked","Female","ball","2","F_ball.wav","None","731.59747012","206","749772.224065","742071.810732","742839.032374","743605.912381","744354.66649","745121.808057","745888.445054","746654.704859","750521.433587","751288.432625","752054.564741","738254.917632","739021.69592","739771.50802","740538.604448","741305.185793","751298.379654","Mapping"
"Blocked","Female","ball","2","F_cad.wav","space","705.323622416","206","749772.224065","742071.810732","742839.032374","743605.912381","744354.66649","745121.808057","745888.445054","746654.704859","750521.433587","751288.432625","752054.564741","752821.244404","739021.69592","739771.50802","740538.604448","741305.185793","752063.634337","Mapping"
"Blocked","Female","ball","2","F_ball.wav","None","726.262686541","206","749772.224065","742071.810732","742839.032374","743605.912381","744354.66649","745121.808057","745888.445054","746654.704859","750521.433587","751288.432625","752054.564741","752821.244404","753588.005069","739771.50802","740538.604448","741305.185793","752830.720871","Mapping"
"Blocked","Female","ball","2","F_dime.wav","None","723.138800502","206","749772.224065","742071.810732","742839.032374","743605.912381","744354.66649","745121.808057","745888.445054","746654.704859","750521.433587","751288.432625","752054.564741","752821.244404","753588.005069","754355.273706","740538.604448","741305.185793","753597.694248","Mapping"
"Blocked","Female","ball","2","F_park.wav","space","0.0392649963032","206","749772.224065","742071.810732","742839.032374","743605.912381","744354.66649","745121.808057","745888.445054","746654.704859","750521.433587","751288.432625","752054.564741","752821.244404","753588.005069","754355.273706","755104.467769","741305.185793","754365.588034","Mapping"
"Blocked","Female","ball","2","F_ball.wav","None","734.037464979","206","749772.224065","742071.810732","742839.032374","743605.912381","744354.66649","745121.808057","745888.445054","746654.704859","750521.433587","751288.432625","752054.564741","752821.244404","753588.005069","754355.273706","755104.467769","755871.567907","755113.921667","Mapping"
"Blocked","Female","ball","2","F_jaw.wav","space","727.571107505","206","749772.224065","756638.248806","742839.032374","743605.912381","744354.66649","745121.808057","745888.445054","746654.704859","750521.433587","751288.432625","752054.564741","752821.244404","753588.005069","754355.273706","755104.467769","755871.567907","755881.271308","Mapping"
"Blocked","Female","ball","2","F_tile.wav","None","727.304291038","206","749772.224065","756638.248806","757404.777592","743605.912381","744354.66649","745121.808057","745888.445054","746654.704859","750521.433587","751288.432625","752054.564741","752821.244404","753588.005069","754355.273706","755104.467769","755871.567907","756647.727438","Mapping"
"Blocked","Female","ball","2","F_tile.wav","None","724.270065257","206","749772.224065","756638.248806","757404.777592","758171.356154","744354.66649","745121.808057","745888.445054","746654.704859","750521.433587","751288.432625","752054.564741","752821.244404","753588.005069","754355.273706","755104.467769","755871.567907","757414.670825","Mapping"
"Blocked","Female","ball","2","F_ball.wav","None","722.382562875","206","749772.224065","756638.248806","757404.777592","758171.356154","758937.811048","745121.808057","745888.445054","746654.704859","750521.433587","751288.432625","752054.564741","752821.244404","753588.005069","754355.273706","755104.467769","755871.567907","758180.92692","Mapping"
"Blocked","Female","ball","2","F_priest.wav","space","709.452630515","206","749772.224065","756638.248806","757404.777592","758171.356154","758937.811048","759687.887491","745888.445054","746654.704859","750521.433587","751288.432625","752054.564741","752821.244404","753588.005069","754355.273706","755104.467769","755871.567907","758947.33451","Mapping"
"Blocked","Female","ball","2","F_park.wav","None","732.593935303","206","749772.224065","756638.248806","757404.777592","758171.356154","758937.811048","759687.887491","760454.770589","746654.704859","750521.433587","751288.432625","752054.564741","752821.244404","753588.005069","754355.273706","755104.467769","755871.567907","759697.713942","Mapping"
"Blocked","Female","ball","2","F_tile.wav","None","729.489836376","206","749772.224065","756638.248806","757404.777592","758171.356154","758937.811048","759687.887491","760454.770589","761221.633591","750521.433587","751288.432625","752054.564741","752821.244404","753588.005069","754355.273706","755104.467769","755871.567907","760464.849017","Mapping"
"Blocked","Female","ball","3","F_cad.wav","None","726.844241348","206","764355.052338","756638.248806","757404.777592","758171.356154","758937.811048","759687.887491","760454.770589","761221.633591","750521.433587","751288.432625","752054.564741","752821.244404","753588.005069","754355.273706","755104.467769","755871.567907","761231.525278","Mapping"
"Blocked","Female","ball","3","F_ball.wav","None","718.341359985","206","764355.052338","756638.248806","757404.777592","758171.356154","758937.811048","759687.887491","760454.770589","761221.633591","765104.712944","751288.432625","752054.564741","752821.244404","753588.005069","754355.273706","755104.467769","755871.567907","764365.498064","Mapping"
"Blocked","Female","ball","3","F_jolt.wav","space","614.293757215","206","764355.052338","756638.248806","757404.777592","758171.356154","758937.811048","759687.887491","760454.770589","761221.633591","765104.712944","765871.387968","752054.564741","752821.244404","753588.005069","754355.273706","755104.467769","755871.567907","765114.397176","Mapping"
"Blocked","Female","ball","3","F_ball.wav","None","729.882795538","206","764355.052338","756638.248806","757404.777592","758171.356154","758937.811048","759687.887491","760454.770589","761221.633591","765104.712944","765871.387968","766638.003322","752821.244404","753588.005069","754355.273706","755104.467769","755871.567907","765881.231115","Mapping"
"Blocked","Female","ball","3","F_cave.wav","space","608.975978161","206","764355.052338","756638.248806","757404.777592","758171.356154","758937.811048","759687.887491","760454.770589","761221.633591","765104.712944","765871.387968","766638.003322","767405.091093","753588.005069","754355.273706","755104.467769","755871.567907","766647.736713","Mapping"
"Blocked","Female","ball","3","F_bluff.wav","None","723.374390509","206","764355.052338","756638.248806","757404.777592","758171.356154","758937.811048","759687.887491","760454.770589","761221.633591","765104.712944","765871.387968","766638.003322","767405.091093","768171.665637","754355.273706","755104.467769","755871.567907","767414.82974","Mapping"
"Blocked","Female","ball","3","F_jaw.wav","None","720.130545291","206","764355.052338","756638.248806","757404.777592","758171.356154","758937.811048","759687.887491","760454.770589","761221.633591","765104.712944","765871.387968","766638.003322","767405.091093","768171.665637","768921.222978","755104.467769","755871.567907","768182.01119","Mapping"
"Blocked","Female","ball","3","F_ball.wav","None","734.821528225","206","764355.052338","756638.248806","757404.777592","758171.356154","758937.811048","759687.887491","760454.770589","761221.633591","765104.712944","765871.387968","766638.003322","767405.091093","768171.665637","768921.222978","769687.533487","755871.567907","768931.499895","Mapping"
"Blocked","Female","ball","3","F_depth.wav","space","600.00377192","206","764355.052338","756638.248806","757404.777592","758171.356154","758937.811048","759687.887491","760454.770589","761221.633591","765104.712944","765871.387968","766638.003322","767405.091093","768171.665637","768921.222978","769687.533487","770454.599307","769696.651933","Mapping"
"Blocked","Female","ball","3","F_gnash.wav","None","729.302168271","206","764355.052338","771221.309268","757404.777592","758171.356154","758937.811048","759687.887491","760454.770589","761221.633591","765104.712944","765871.387968","766638.003322","767405.091093","768171.665637","768921.222978","769687.533487","770454.599307","770464.244583","Mapping"
"Blocked","Female","ball","3","F_ball.wav","None","725.9259969","206","764355.052338","771221.309268","771987.711293","758171.356154","758937.811048","759687.887491","760454.770589","761221.633591","765104.712944","765871.387968","766638.003322","767405.091093","768171.665637","768921.222978","769687.533487","770454.599307","771231.671517","Mapping"
"Blocked","Female","ball","3","F_jolt.wav","space","659.561042063","206","764355.052338","771221.309268","771987.711293","772754.938192","758937.811048","759687.887491","760454.770589","761221.633591","765104.712944","765871.387968","766638.003322","767405.091093","768171.665637","768921.222978","769687.533487","770454.599307","771997.045232","Mapping"
"Blocked","Female","ball","3","F_done.wav","None","719.625665457","206","764355.052338","771221.309268","771987.711293","772754.938192","773504.312812","759687.887491","760454.770589","761221.633591","765104.712944","765871.387968","766638.003322","767405.091093","768171.665637","768921.222978","769687.533487","770454.599307","772765.173061","Mapping"
"Blocked","Female","ball","3","F_cling.wav","None","735.102257488","206","764355.052338","771221.309268","771987.711293","772754.938192","773504.312812","774271.251561","760454.770589","761221.633591","765104.712944","765871.387968","766638.003322","767405.091093","768171.665637","768921.222978","769687.533487","770454.599307","773514.055477","Mapping"
"Blocked","Female","ball","3","F_cling.wav","None","732.292182278","206","764355.052338","771221.309268","771987.711293","772754.938192","773504.312812","774271.251561","775038.017173","761221.633591","765104.712944","765871.387968","766638.003322","767405.091093","768171.665637","768921.222978","769687.533487","770454.599307","774280.946923","Mapping"
"Blocked","Female","ball","3","F_knife.wav","None","729.052047158","206","764355.052338","771221.309268","771987.711293","772754.938192","773504.312812","774271.251561","775038.017173","775804.218545","765104.712944","765871.387968","766638.003322","767405.091093","768171.665637","768921.222978","769687.533487","770454.599307","775048.511748","Mapping"
"Blocked","Female","done","20","F_knife.wav","None","727.779181063","206","778938.223485","771221.309268","771987.711293","772754.938192","773504.312812","774271.251561","775038.017173","775804.218545","765104.712944","765871.387968","766638.003322","767405.091093","768171.665637","768921.222978","769687.533487","770454.599307","775813.866913","Mapping"
"Blocked","Female","done","20","F_greet.wav","None","719.080902287","206","778938.223485","771221.309268","771987.711293","772754.938192","773504.312812","774271.251561","775038.017173","775804.218545","779687.327578","765871.387968","766638.003322","767405.091093","768171.665637","768921.222978","769687.533487","770454.599307","778948.39281","Mapping"
"Blocked","Female","done","20","F_tile.wav","None","735.125754669","206","778938.223485","771221.309268","771987.711293","772754.938192","773504.312812","774271.251561","775038.017173","775804.218545","779687.327578","780454.484294","766638.003322","767405.091093","768171.665637","768921.222978","769687.533487","770454.599307","779696.471375","Mapping"
"Blocked","Female","done","20","F_done.wav","None","731.192144041","206","778938.223485","771221.309268","771987.711293","772754.938192","773504.312812","774271.251561","775038.017173","775804.218545","779687.327578","780454.484294","781221.125619","767405.091093","768171.665637","768921.222978","769687.533487","770454.599307","780464.477081","Mapping"
"Blocked","Female","done","20","F_dime.wav","space","537.569335953","206","778938.223485","771221.309268","771987.711293","772754.938192","773504.312812","774271.251561","775038.017173","775804.218545","779687.327578","780454.484294","781221.125619","781987.796315","768171.665637","768921.222978","769687.533487","770454.599307","781230.86272","Mapping"
"Blocked","Female","done","20","F_done.wav","None","725.52221673","206","778938.223485","771221.309268","771987.711293","772754.938192","773504.312812","774271.251561","775038.017173","775804.218545","779687.327578","780454.484294","781221.125619","781987.796315","782754.787315","768921.222978","769687.533487","770454.599307","781997.432935","Mapping"
"Blocked","Female","done","20","F_ball.wav","None","721.950338746","206","778938.223485","771221.309268","771987.711293","772754.938192","773504.312812","774271.251561","775038.017173","775804.218545","779687.327578","780454.484294","781221.125619","781987.796315","782754.787315","783521.514281","769687.533487","770454.599307","782765.084638","Mapping"
"Blocked","Female","done","20","F_jolt.wav","space","0.0395741662942","206","778938.223485","771221.309268","771987.711293","772754.938192","773504.312812","774271.251561","775038.017173","775804.218545","779687.327578","780454.484294","781221.125619","781987.796315","782754.787315","783521.514281","784270.705252","770454.599307","783531.858598","Mapping"
"Blocked","Female","done","20","F_done.wav","None","734.051686944","206","778938.223485","771221.309268","771987.711293","772754.938192","773504.312812","774271.251561","775038.017173","775804.218545","779687.327578","780454.484294","781221.125619","781987.796315","782754.787315","783521.514281","784270.705252","785037.73428","784280.371861","Mapping"
"Blocked","Female","done","20","F_park.wav","space","608.961756196","206","778938.223485","785803.915864","771987.711293","772754.938192","773504.312812","774271.251561","775038.017173","775804.218545","779687.327578","780454.484294","781221.125619","781987.796315","782754.787315","783521.514281","784270.705252","785037.73428","785047.395015","Mapping"
"Blocked","Female","done","20","F_done.wav","None","728.374648665","206","778938.223485","785803.915864","786571.055267","772754.938192","773504.312812","774271.251561","775038.017173","775804.218545","779687.327578","780454.484294","781221.125619","781987.796315","782754.787315","783521.514281","784270.705252","785037.73428","785813.296797","Mapping"
"Blocked","Female","done","20","F_cling.wav","space","675.191911549","206","778938.223485","785803.915864","786571.055267","787338.049358","773504.312812","774271.251561","775038.017173","775804.218545","779687.327578","780454.484294","781221.125619","781987.796315","782754.787315","783521.514281","784270.705252","785037.73428","786581.132458","Mapping"
"Blocked","Female","done","20","F_park.wav","None","720.451157889","206","778938.223485","785803.915864","786571.055267","787338.049358","788104.084704","774271.251561","775038.017173","775804.218545","779687.327578","780454.484294","781221.125619","781987.796315","782754.787315","783521.514281","784270.705252","785037.73428","787348.351318","Mapping"
"Blocked","Female","done","20","F_cave.wav","None","720.07489411","206","778938.223485","785803.915864","786571.055267","787338.049358","788104.084704","788853.693677","775038.017173","775804.218545","779687.327578","780454.484294","781221.125619","781987.796315","782754.787315","783521.514281","784270.705252","785037.73428","788113.298683","Mapping"
"Blocked","Female","done","20","F_depth.wav","None","735.973198403","206","778938.223485","785803.915864","786571.055267","787338.049358","788104.084704","788853.693677","789620.907281","775804.218545","779687.327578","780454.484294","781221.125619","781987.796315","782754.787315","783521.514281","784270.705252","785037.73428","788862.717824","Mapping"
"Blocked","Female","done","20","F_bluff.wav","None","732.063703297","206","778938.223485","785803.915864","786571.055267","787338.049358","788104.084704","788853.693677","789620.907281","790387.571485","779687.327578","780454.484294","781221.125619","781987.796315","782754.787315","783521.514281","784270.705252","785037.73428","789630.752592","Mapping"
"Blocked","Female","cave","8","F_park.wav","None","729.789425211","206","793521.249629","785803.915864","786571.055267","787338.049358","788104.084704","788853.693677","789620.907281","790387.571485","779687.327578","780454.484294","781221.125619","781987.796315","782754.787315","783521.514281","784270.705252","785037.73428","790397.173168","Mapping"
"Blocked","Female","cave","8","F_romp.wav","None","719.485300826","206","793521.249629","785803.915864","786571.055267","787338.049358","788104.084704","788853.693677","789620.907281","790387.571485","794270.505835","780454.484294","781221.125619","781987.796315","782754.787315","783521.514281","784270.705252","785037.73428","793531.089375","Mapping"
"Blocked","Female","cave","8","F_jolt.wav","None","734.629531682","206","793521.249629","785803.915864","786571.055267","787338.049358","788104.084704","788853.693677","789620.907281","790387.571485","794270.505835","795037.592679","781221.125619","781987.796315","782754.787315","783521.514281","784270.705252","785037.73428","794280.028988","Mapping"
"Blocked","Female","cave","8","F_reek.wav","None","731.28304095","206","793521.249629","785803.915864","786571.055267","787338.049358","788104.084704","788853.693677","789620.907281","790387.571485","794270.505835","795037.592679","795803.982336","781987.796315","782754.787315","783521.514281","784270.705252","785037.73428","795047.557949","Mapping"
"Blocked","Female","cave","8","F_jolt.wav","None","729.61814329","206","793521.249629","785803.915864","786571.055267","787338.049358","788104.084704","788853.693677","789620.907281","790387.571485","794270.505835","795037.592679","795803.982336","796570.438157","782754.787315","783521.514281","784270.705252","785037.73428","795813.414283","Mapping"
"Blocked","Female","cave","8","F_greet.wav","None","727.602952364","206","793521.249629","785803.915864","786571.055267","787338.049358","788104.084704","788853.693677","789620.907281","790387.571485","794270.505835","795037.592679","795803.982336","796570.438157","797337.812841","783521.514281","784270.705252","785037.73428","796579.572061","Mapping"
"Blocked","Female","cave","8","F_lash.wav","None","723.017913784","206","793521.249629","785803.915864","786571.055267","787338.049358","788104.084704","788853.693677","789620.907281","790387.571485","794270.505835","795037.592679","795803.982336","796570.438157","797337.812841","798104.371307","784270.705252","785037.73428","797348.214046","Mapping"
"Blocked","Female","cave","8","F_jolt.wav","None","720.664487395","206","793521.249629","785803.915864","786571.055267","787338.049358","788104.084704","788853.693677","789620.907281","790387.571485","794270.505835","795037.592679","795803.982336","796570.438157","797337.812841","798104.371307","798871.213285","785037.73428","798114.801574","Mapping"
"Blocked","Female","cave","8","F_cave.wav","None","718.141324935","206","793521.249629","785803.915864","786571.055267","787338.049358","788104.084704","788853.693677","789620.907281","790387.571485","794270.505835","795037.592679","795803.982336","796570.438157","797337.812841","798104.371307","798871.213285","799620.319852","798881.603978","Mapping"
"Blocked","Female","cave","8","F_romp.wav","space","666.539699538","206","793521.249629","800386.975708","786571.055267","787338.049358","788104.084704","788853.693677","789620.907281","790387.571485","794270.505835","795037.592679","795803.982336","796570.438157","797337.812841","798104.371307","798871.213285","799620.319852","799629.574952","Mapping"
"Blocked","Female","cave","8","F_cave.wav","None","731.078059122","206","793521.249629","800386.975708","801154.143555","787338.049358","788104.084704","788853.693677","789620.907281","790387.571485","794270.505835","795037.592679","795803.982336","796570.438157","797337.812841","798104.371307","798871.213285","799620.319852","800396.033246","Mapping"
"Blocked","Female","cave","8","F_jaw.wav","None","727.264098503","206","793521.249629","800386.975708","801154.143555","801920.450045","788104.084704","788853.693677","789620.907281","790387.571485","794270.505835","795037.592679","795803.982336","796570.438157","797337.812841","798104.371307","798871.213285","799620.319852","801163.885602","Mapping"
"Blocked","Female","cave","8","F_cave.wav","space","702.237455524","206","793521.249629","800386.975708","801154.143555","801920.450045","802687.679108","788853.693677","789620.907281","790387.571485","794270.505835","795037.592679","795803.982336","796570.438157","797337.812841","798104.371307","798871.213285","799620.319852","801929.830051","Mapping"
"Blocked","Female","cave","8","F_tile.wav","None","720.753529313","206","793521.249629","800386.975708","801154.143555","801920.450045","802687.679108","803436.999622","789620.907281","790387.571485","794270.505835","795037.592679","795803.982336","796570.438157","797337.812841","798104.371307","798871.213285","799620.319852","802697.508961","Mapping"
"Blocked","Female","cave","8","F_cave.wav","space","369.946448103","206","793521.249629","800386.975708","801154.143555","801920.450045","802687.679108","803436.999622","804203.424526","790387.571485","794270.505835","795037.592679","795803.982336","796570.438157","797337.812841","798104.371307","798871.213285","799620.319852","803446.103537","Mapping"
"Blocked","Female","cave","8","F_depth.wav","None","733.462402859","206","793521.249629","800386.975708","801154.143555","801920.450045","802687.679108","803436.999622","804203.424526","804970.659463","794270.505835","795037.592679","795803.982336","796570.438157","797337.812841","798104.371307","798871.213285","799620.319852","804212.927892","Mapping"
"Blocked","Female","tile","15","F_reek.wav","space","11.6137820587","206","808104.489411","800386.975708","801154.143555","801920.450045","802687.679108","803436.999622","804203.424526","804970.659463","794270.505835","795037.592679","795803.982336","796570.438157","797337.812841","798104.371307","798871.213285","799620.319852","804980.415733","Mapping"
"Blocked","Female","tile","15","F_tile.wav","None","718.689798174","206","808104.489411","800386.975708","801154.143555","801920.450045","802687.679108","803436.999622","804203.424526","804970.659463","808853.527651","795037.592679","795803.982336","796570.438157","797337.812841","798104.371307","798871.213285","799620.319852","808114.509715","Mapping"
"Blocked","Female","tile","15","F_depth.wav","space","528.86641954","206","808104.489411","800386.975708","801154.143555","801920.450045","802687.679108","803436.999622","804203.424526","804970.659463","808853.527651","809620.864306","795803.982336","796570.438157","797337.812841","798104.371307","798871.213285","799620.319852","808863.057915","Mapping"
"Blocked","Female","tile","15","F_greet.wav","None","730.072318722","206","808104.489411","800386.975708","801154.143555","801920.450045","802687.679108","803436.999622","804203.424526","804970.659463","808853.527651","809620.864306","810386.919748","796570.438157","797337.812841","798104.371307","798871.213285","799620.319852","809630.507727","Mapping"
"Blocked","Female","tile","15","F_priest.wav","None","728.959295171","206","808104.489411","800386.975708","801154.143555","801920.450045","802687.679108","803436.999622","804203.424526","804970.659463","808853.527651","809620.864306","810386.919748","811153.869009","797337.812841","798104.371307","798871.213285","799620.319852","810395.978832","Mapping"
"Blocked","Female","tile","15","F_tile.wav","None","725.726271019","206","808104.489411","800386.975708","801154.143555","801920.450045","802687.679108","803436.999622","804203.424526","804970.659463","808853.527651","809620.864306","810386.919748","811153.869009","811920.625037","798104.371307","798871.213285","799620.319852","811163.52758","Mapping"
"Blocked","Female","tile","15","F_reek.wav","space","597.869549325","206","808104.489411","800386.975708","801154.143555","801920.450045","802687.679108","803436.999622","804203.424526","804970.659463","808853.527651","809620.864306","810386.919748","811153.869009","811920.625037","812687.550492","798871.213285","799620.319852","811930.022975","Mapping"
"Blocked","Female","tile","15","F_knife.wav","None","719.015975919","206","808104.489411","800386.975708","801154.143555","801920.450045","802687.679108","803436.999622","804203.424526","804970.659463","808853.527651","809620.864306","810386.919748","811153.869009","811920.625037","812687.550492","813436.801752","799620.319852","812697.671277","Mapping"
"Blocked","Female","tile","15","F_tile.wav","None","734.75289176","206","808104.489411","800386.975708","801154.143555","801920.450045","802687.679108","803436.999622","804203.424526","804970.659463","808853.527651","809620.864306","810386.919748","811153.869009","811920.625037","812687.550492","813436.801752","814203.43071","813446.473617","Mapping"
"Blocked","Female","tile","15","F_done.wav","space","675.055256957","206","808104.489411","814970.430366","801154.143555","801920.450045","802687.679108","803436.999622","804203.424526","804970.659463","808853.527651","809620.864306","810386.919748","811153.869009","811920.625037","812687.550492","813436.801752","814203.43071","814212.827411","Mapping"
"Blocked","Female","tile","15","F_knife.wav","None","729.374823946","206","808104.489411","814970.430366","815736.692644","801920.450045","802687.679108","803436.999622","804203.424526","804970.659463","808853.527651","809620.864306","810386.919748","811153.869009","811920.625037","812687.550492","813436.801752","814203.43071","814980.245688","Mapping"
"Blocked","Female","tile","15","F_priest.wav","None","728.324562602","206","808104.489411","814970.430366","815736.692644","816503.849979","802687.679108","803436.999622","804203.424526","804970.659463","808853.527651","809620.864306","810386.919748","811153.869009","811920.625037","812687.550492","813436.801752","814203.43071","815745.793776","Mapping"
"Blocked","Female","tile","15","F_tile.wav","None","724.668898678","206","808104.489411","814970.430366","815736.692644","816503.849979","817270.817173","803436.999622","804203.424526","804970.659463","808853.527651","809620.864306","810386.919748","811153.869009","811920.625037","812687.550492","813436.801752","814203.43071","816513.829472","Mapping"
"Blocked","Female","tile","15","F_greet.wav","space","574.826252414","206","808104.489411","814970.430366","815736.692644","816503.849979","817270.817173","818037.663479","804203.424526","804970.659463","808853.527651","809620.864306","810386.919748","811153.869009","811920.625037","812687.550492","813436.801752","814203.43071","817280.957744","Mapping"
"Blocked","Female","tile","15","F_knife.wav","None","717.877291027","206","808104.489411","814970.430366","815736.692644","816503.849979","817270.817173","818037.663479","818786.901754","804970.659463","808853.527651","809620.864306","810386.919748","811153.869009","811920.625037","812687.550492","813436.801752","814203.43071","818048.368292","Mapping"
"Blocked","Female","tile","15","F_romp.wav","None","734.588102467","206","808104.489411","814970.430366","815736.692644","816503.849979","817270.817173","818037.663479","818786.901754","819553.727655","808853.527651","809620.864306","810386.919748","811153.869009","811920.625037","812687.550492","813436.801752","814203.43071","818796.61072","Mapping"
"Blocked","Female","ball","1","F_cad.wav","None","732.0853454","206","822704.15402","814970.430366","815736.692644","816503.849979","817270.817173","818037.663479","818786.901754","819553.727655","808853.527651","809620.864306","810386.919748","811153.869009","811920.625037","812687.550492","813436.801752","814203.43071","819563.578531","Mapping"
"Blocked","Female","ball","1","F_bluff.wav","None","720.04552267","206","822704.15402","814970.430366","815736.692644","816503.849979","817270.817173","818037.663479","818786.901754","819553.727655","823453.289958","809620.864306","810386.919748","811153.869009","811920.625037","812687.550492","813436.801752","814203.43071","822713.817847","Mapping"
"Blocked","Female","ball","1","F_dime.wav","None","735.261481692","206","822704.15402","814970.430366","815736.692644","816503.849979","817270.817173","818037.663479","818786.901754","819553.727655","823453.289958","824220.040421","810386.919748","811153.869009","811920.625037","812687.550492","813436.801752","814203.43071","823462.886695","Mapping"
"Blocked","Female","ball","1","F_ball.wav","None","733.453745983","206","822704.15402","814970.430366","815736.692644","816503.849979","817270.817173","818037.663479","818786.901754","819553.727655","823453.289958","824220.040421","824986.883018","811153.869009","811920.625037","812687.550492","813436.801752","814203.43071","824229.075699","Mapping"
"Blocked","Female","ball","1","F_depth.wav","space","442.497649521","206","822704.15402","814970.430366","815736.692644","816503.849979","817270.817173","818037.663479","818786.901754","819553.727655","823453.289958","824220.040421","824986.883018","825753.740146","811920.625037","812687.550492","813436.801752","814203.43071","824997.16179","Mapping"
"Blocked","Female","ball","1","F_ball.wav","None","726.450354676","206","822704.15402","814970.430366","815736.692644","816503.849979","817270.817173","818037.663479","818786.901754","819553.727655","823453.289958","824220.040421","824986.883018","825753.740146","826520.267385","812687.550492","813436.801752","814203.43071","825763.589476","Mapping"
"Blocked","Female","ball","1","F_bluff.wav","space","565.506535466","206","822704.15402","814970.430366","815736.692644","816503.849979","817270.817173","818037.663479","818786.901754","819553.727655","823453.289958","824220.040421","824986.883018","825753.740146","826520.267385","827286.68054","813436.801752","814203.43071","826530.128155","Mapping"
"Blocked","Female","ball","1","F_greet.wav","None","721.576857526","206","822704.15402","814970.430366","815736.692644","816503.849979","817270.817173","818037.663479","818786.901754","819553.727655","823453.289958","824220.040421","824986.883018","825753.740146","826520.267385","827286.68054","828053.64897","814203.43071","827296.187925","Mapping"
"Blocked","Female","ball","1","F_ball.wav","None","719.926490972","206","822704.15402","814970.430366","815736.692644","816503.849979","817270.817173","818037.663479","818786.901754","819553.727655","823453.289958","824220.040421","824986.883018","825753.740146","826520.267385","827286.68054","828053.64897","828803.124999","828062.696615","Mapping"
"Blocked","Female","ball","1","F_romp.wav","space","499.066142336","206","822704.15402","829569.894322","815736.692644","816503.849979","817270.817173","818037.663479","818786.901754","819553.727655","823453.289958","824220.040421","824986.883018","825753.740146","826520.267385","827286.68054","828053.64897","828803.124999","828812.518918","Mapping"
"Blocked","Female","ball","1","F_ball.wav","None","730.987471383","206","822704.15402","829569.894322","830336.845747","816503.849979","817270.817173","818037.663479","818786.901754","819553.727655","823453.289958","824220.040421","824986.883018","825753.740146","826520.267385","827286.68054","828053.64897","828803.124999","829579.027607","Mapping"
"Blocked","Female","ball","1","F_jaw.wav","space","637.517302122","206","822704.15402","829569.894322","830336.845747","831103.961653","817270.817173","818037.663479","818786.901754","819553.727655","823453.289958","824220.040421","824986.883018","825753.740146","826520.267385","827286.68054","828053.64897","828803.124999","830346.006549","Mapping"
"Blocked","Female","ball","1","F_gnash.wav","None","724.228945212","206","822704.15402","829569.894322","830336.845747","831103.961653","831870.743033","818037.663479","818786.901754","819553.727655","823453.289958","824220.040421","824986.883018","825753.740146","826520.267385","827286.68054","828053.64897","828803.124999","831114.045027","Mapping"
"Blocked","Female","ball","1","F_done.wav","None","721.580876765","206","822704.15402","829569.894322","830336.845747","831103.961653","831870.743033","832636.524238","818786.901754","819553.727655","823453.289958","824220.040421","824986.883018","825753.740146","826520.267385","827286.68054","828053.64897","828803.124999","831881.161551","Mapping"
"Blocked","Female","ball","1","F_cling.wav","None","721.856350108","206","822704.15402","829569.894322","830336.845747","831103.961653","831870.743033","832636.524238","833386.602845","819553.727655","823453.289958","824220.040421","824986.883018","825753.740146","826520.267385","827286.68054","828053.64897","828803.124999","832645.745947","Mapping"
"Blocked","Female","ball","1","F_knife.wav","None","736.296284391","206","822704.15402","829569.894322","830336.845747","831103.961653","831870.743033","832636.524238","833386.602845","834153.463064","823453.289958","824220.040421","824986.883018","825753.740146","826520.267385","827286.68054","828053.64897","828803.124999","833395.752208","Mapping"
"Blocked","Female","cave","9","F_tile.wav","None","733.508469653","206","837287.141827","829569.894322","830336.845747","831103.961653","831870.743033","832636.524238","833386.602845","834153.463064","823453.289958","824220.040421","824986.883018","825753.740146","826520.267385","827286.68054","828053.64897","828803.124999","834162.986836","Mapping"
"Blocked","Female","cave","9","F_jaw.wav","None","719.025251106","206","837287.141827","829569.894322","830336.845747","831103.961653","831870.743033","832636.524238","833386.602845","834153.463064","838036.332798","824220.040421","824986.883018","825753.740146","826520.267385","827286.68054","828053.64897","828803.124999","837297.479033","Mapping"
"Blocked","Female","cave","9","F_cad.wav","None","735.243858828","206","837287.141827","829569.894322","830336.845747","831103.961653","831870.743033","832636.524238","833386.602845","834153.463064","838036.332798","838803.078314","824986.883018","825753.740146","826520.267385","827286.68054","828053.64897","828803.124999","838045.617578","Mapping"
"Blocked","Female","cave","9","F_cave.wav","None","733.070062037","206","837287.141827","829569.894322","830336.845747","831103.961653","831870.743033","832636.524238","833386.602845","834153.463064","838036.332798","838803.078314","839570.044271","825753.740146","826520.267385","827286.68054","828053.64897","828803.124999","838812.450899","Mapping"
"Blocked","Female","cave","9","F_bluff.wav","space","691.271082149","206","837287.141827","829569.894322","830336.845747","831103.961653","831870.743033","832636.524238","833386.602845","834153.463064","838036.332798","838803.078314","839570.044271","840336.431146","826520.267385","827286.68054","828053.64897","828803.124999","839580.13352","Mapping"
"Blocked","Female","cave","9","F_cad.wav","None","727.679318137","206","837287.141827","829569.894322","830336.845747","831103.961653","831870.743033","832636.524238","833386.602845","834153.463064","838036.332798","838803.078314","839570.044271","840336.431146","841103.423382","827286.68054","828053.64897","828803.124999","840345.374908","Mapping"
"Blocked","Female","cave","9","F_cave.wav","None","724.237292889","206","837287.141827","829569.894322","830336.845747","831103.961653","831870.743033","832636.524238","833386.602845","834153.463064","838036.332798","838803.078314","839570.044271","840336.431146","841103.423382","841869.753679","828053.64897","828803.124999","841113.26251","Mapping"
"Blocked","Female","cave","9","F_romp.wav","space","608.023415552","206","837287.141827","829569.894322","830336.845747","831103.961653","831870.743033","832636.524238","833386.602845","834153.463064","838036.332798","838803.078314","839570.044271","840336.431146","841103.423382","841869.753679","842619.508272","828803.124999","841879.335265","Mapping"
"Blocked","Female","cave","9","F_ball.wav","None","736.472822289","206","837287.141827","829569.894322","830336.845747","831103.961653","831870.743033","832636.524238","833386.602845","834153.463064","838036.332798","838803.078314","839570.044271","840336.431146","841103.423382","841869.753679","842619.508272","843386.278522","842628.532729","Mapping"
"Blocked","Female","cave","9","F_ball.wav","None","733.794454864","206","837287.141827","844153.324555","830336.845747","831103.961653","831870.743033","832636.524238","833386.602845","834153.463064","838036.332798","838803.078314","839570.044271","840336.431146","841103.423382","841869.753679","842619.508272","843386.278522","843395.768903","Mapping"
"Blocked","Female","cave","9","F_cad.wav","None","731.217187073","206","837287.141827","844153.324555","844919.938672","831103.961653","831870.743033","832636.524238","833386.602845","834153.463064","838036.332798","838803.078314","839570.044271","840336.431146","841103.423382","841869.753679","842619.508272","843386.278522","844162.99271","Mapping"
"Blocked","Female","cave","9","F_done.wav","None","728.634044965","206","837287.141827","844153.324555","844919.938672","845686.122112","831870.743033","832636.524238","833386.602845","834153.463064","838036.332798","838803.078314","839570.044271","840336.431146","841103.423382","841869.753679","842619.508272","843386.278522","844929.960831","Mapping"
"Blocked","Female","cave","9","F_cave.wav","None","727.863894543","206","837287.141827","844153.324555","844919.938672","845686.122112","846453.241418","832636.524238","833386.602845","834153.463064","838036.332798","838803.078314","839570.044271","840336.431146","841103.423382","841869.753679","842619.508272","843386.278522","845695.167592","Mapping"
"Blocked","Female","cave","9","F_priest.wav","space","711.673421582","206","837287.141827","844153.324555","844919.938672","845686.122112","846453.241418","847219.773914","833386.602845","834153.463064","838036.332798","838803.078314","839570.044271","840336.431146","841103.423382","841869.753679","842619.508272","843386.278522","846463.592846","Mapping"
"Blocked","Female","cave","9","F_cave.wav","None","721.357962902","206","837287.141827","844153.324555","844919.938672","845686.122112","846453.241418","847219.773914","847986.954437","834153.463064","838036.332798","838803.078314","839570.044271","840336.431146","841103.423382","841869.753679","842619.508272","843386.278522","847229.192257","Mapping"
"Blocked","Female","cave","9","F_priest.wav","None","718.484816345","206","837287.141827","844153.324555","844919.938672","845686.122112","846453.241418","847219.773914","847986.954437","848736.379143","838036.332798","838803.078314","839570.044271","840336.431146","841103.423382","841869.753679","842619.508272","843386.278522","847997.103975","Mapping"
"Blocked","Female","tile","13","F_knife.wav","space","28.9444857917","206","851870.188995","844153.324555","844919.938672","845686.122112","846453.241418","847219.773914","847986.954437","848736.379143","838036.332798","838803.078314","839570.044271","840336.431146","841103.423382","841869.753679","842619.508272","843386.278522","848746.301747","Mapping"
"Blocked","Female","tile","13","F_romp.wav","None","718.744521844","206","851870.188995","844153.324555","844919.938672","845686.122112","846453.241418","847219.773914","847986.954437","848736.379143","852619.66626","838803.078314","839570.044271","840336.431146","841103.423382","841869.753679","842619.508272","843386.278522","851880.588653","Mapping"
"Blocked","Female","tile","13","F_dime.wav","None","734.710535064","206","851870.188995","844153.324555","844919.938672","845686.122112","846453.241418","847219.773914","847986.954437","848736.379143","852619.66626","853386.58244","839570.044271","840336.431146","841103.423382","841869.753679","842619.508272","843386.278522","852629.279382","Mapping"
"Blocked","Female","tile","13","F_greet.wav","None","732.473048585","206","851870.188995","844153.324555","844919.938672","845686.122112","846453.241418","847219.773914","847986.954437","848736.379143","852619.66626","853386.58244","854153.121737","840336.431146","841103.423382","841869.753679","842619.508272","843386.278522","853396.233899","Mapping"
"Blocked","Female","tile","13","F_tile.wav","None","730.4229211","206","851870.188995","844153.324555","844919.938672","845686.122112","846453.241418","847219.773914","847986.954437","848736.379143","852619.66626","853386.58244","854153.121737","854919.775738","841103.423382","841869.753679","842619.508272","843386.278522","854163.045888","Mapping"
"Blocked","Female","tile","13","F_cad.wav","None","727.666642022","206","851870.188995","844153.324555","844919.938672","845686.122112","846453.241418","847219.773914","847986.954437","848736.379143","852619.66626","853386.58244","854153.121737","854919.775738","855686.057804","841869.753679","842619.508272","843386.278522","854930.336167","Mapping"
"Blocked","Female","tile","13","F_tile.wav","space","0.0191687140614","206","851870.188995","844153.324555","844919.938672","845686.122112","846453.241418","847219.773914","847986.954437","848736.379143","852619.66626","853386.58244","854153.121737","854919.775738","855686.057804","856452.880922","842619.508272","843386.278522","855695.232518","Mapping"
"Blocked","Female","tile","13","F_cave.wav","space","673.0406844","206","851870.188995","844153.324555","844919.938672","845686.122112","846453.241418","847219.773914","847986.954437","848736.379143","852619.66626","853386.58244","854153.121737","854919.775738","855686.057804","856452.880922","857219.33056","843386.278522","856462.028121","Mapping"
"Blocked","Female","tile","13","F_done.wav","None","720.615947212","206","851870.188995","844153.324555","844919.938672","845686.122112","846453.241418","847219.773914","847986.954437","848736.379143","852619.66626","853386.58244","854153.121737","854919.775738","855686.057804","856452.880922","857219.33056","857969.26602","857228.682431","Mapping"
"Blocked","Female","tile","13","F_tile.wav","None","736.211261741","206","851870.188995","858736.325965","844919.938672","845686.122112","846453.241418","847219.773914","847986.954437","848736.379143","852619.66626","853386.58244","854153.121737","854919.775738","855686.057804","856452.880922","857219.33056","857969.26602","857978.467014","Mapping"
"Blocked","Female","tile","13","F_knife.wav","None","733.355428907","206","851870.188995","858736.325965","859503.209063","845686.122112","846453.241418","847219.773914","847986.954437","848736.379143","852619.66626","853386.58244","854153.121737","854919.775738","855686.057804","856452.880922","857219.33056","857969.26602","858745.977116","Mapping"
"Blocked","Female","tile","13","F_tile.wav","space","182.114144904","206","851870.188995","858736.325965","859503.209063","860269.653754","846453.241418","847219.773914","847986.954437","848736.379143","852619.66626","853386.58244","854153.121737","854919.775738","855686.057804","856452.880922","857219.33056","857969.26602","859512.953275","Mapping"
"Blocked","Female","tile","13","F_knife.wav","space","719.954316563","206","851870.188995","858736.325965","859503.209063","860269.653754","861036.327542","847219.773914","847986.954437","848736.379143","852619.66626","853386.58244","854153.121737","854919.775738","855686.057804","856452.880922","857219.33056","857969.26602","860279.045817","Mapping"
"Blocked","Female","tile","13","F_romp.wav","None","724.320769659","206","851870.188995","858736.325965","859503.209063","860269.653754","861036.327542","861803.336474","847986.954437","848736.379143","852619.66626","853386.58244","854153.121737","854919.775738","855686.057804","856452.880922","857219.33056","857969.26602","861045.958596","Mapping"
"Blocked","Female","tile","13","F_knife.wav","None","721.231820236","206","851870.188995","858736.325965","859503.209063","860269.653754","861036.327542","861803.336474","862570.09312","848736.379143","852619.66626","853386.58244","854153.121737","854919.775738","855686.057804","856452.880922","857219.33056","857969.26602","861813.77818","Mapping"
"Blocked","Female","tile","13","F_lash.wav","None","719.172417565","206","851870.188995","858736.325965","859503.209063","860269.653754","861036.327542","861803.336474","862570.09312","863319.426929","852619.66626","853386.58244","854153.121737","854919.775738","855686.057804","856452.880922","857219.33056","857969.26602","862580.567908","Mapping"
"Blocked","Female","done","24","F_ball.wav","None","704.249245551","206","866453.207409","858736.325965","859503.209063","860269.653754","861036.327542","861803.336474","862570.09312","863319.426929","852619.66626","853386.58244","854153.121737","854919.775738","855686.057804","856452.880922","857219.33056","857969.26602","863360.228207","Mapping"
"Blocked","Female","done","24","F_done.wav","None","720.040885062","206","866453.207409","858736.325965","859503.209063","860269.653754","861036.327542","861803.336474","862570.09312","863319.426929","867202.642318","853386.58244","854153.121737","854919.775738","855686.057804","856452.880922","857219.33056","857969.26602","866463.104662","Mapping"
"Blocked","Female","done","24","F_greet.wav","space","435.07903858","206","866453.207409","858736.325965","859503.209063","860269.653754","861036.327542","861803.336474","862570.09312","863319.426929","867202.642318","867969.244378","854153.121737","854919.775738","855686.057804","856452.880922","857219.33056","857969.26602","867211.801574","Mapping"
"Blocked","Female","done","24","F_knife.wav","None","732.815921656","206","866453.207409","858736.325965","859503.209063","860269.653754","861036.327542","861803.336474","862570.09312","863319.426929","867202.642318","867969.244378","868736.179108","854919.775738","855686.057804","856452.880922","857219.33056","857969.26602","867978.480927","Mapping"
"Blocked","Female","done","24","F_done.wav","None","730.072318722","206","866453.207409","858736.325965","859503.209063","860269.653754","861036.327542","861803.336474","862570.09312","863319.426929","867202.642318","867969.244378","868736.179108","869502.945338","855686.057804","856452.880922","857219.33056","857969.26602","868745.846954","Mapping"
"Blocked","Female","done","24","F_park.wav","space","654.285310593","206","866453.207409","858736.325965","859503.209063","860269.653754","861036.327542","861803.336474","862570.09312","863319.426929","867202.642318","867969.244378","868736.179108","869502.945338","870269.485564","856452.880922","857219.33056","857969.26602","869512.559697","Mapping"
"Blocked","Female","done","24","F_done.wav","None","724.611701648","206","866453.207409","858736.325965","859503.209063","860269.653754","861036.327542","861803.336474","862570.09312","863319.426929","867202.642318","867969.244378","868736.179108","869502.945338","870269.485564","871036.461105","857219.33056","857969.26602","870279.006243","Mapping"
"Blocked","Female","done","24","F_park.wav","None","721.900252684","206","866453.207409","858736.325965","859503.209063","860269.653754","861036.327542","861803.336474","862570.09312","863319.426929","867202.642318","867969.244378","868736.179108","869502.945338","870269.485564","871036.461105","871803.714901","857969.26602","871046.467186","Mapping"
"Blocked","Female","done","24","F_ball.wav","space","80.999977421","206","866453.207409","858736.325965","859503.209063","860269.653754","861036.327542","861803.336474","862570.09312","863319.426929","867202.642318","867969.244378","868736.179108","869502.945338","870269.485564","871036.461105","871803.714901","872552.676775","871813.827339","Mapping"
"Blocked","Female","done","24","F_done.wav","None","733.851651894","206","866453.207409","873319.407142","859503.209063","860269.653754","861036.327542","861803.336474","862570.09312","863319.426929","867202.642318","867969.244378","868736.179108","869502.945338","870269.485564","871036.461105","871803.714901","872552.676775","872562.385123","Mapping"
"Blocked","Female","done","24","F_greet.wav","None","731.9700238","206","866453.207409","873319.407142","874085.642522","860269.653754","861036.327542","861803.336474","862570.09312","863319.426929","867202.642318","867969.244378","868736.179108","869502.945338","870269.485564","871036.461105","871803.714901","872552.676775","873328.870624","Mapping"
"Blocked","Female","done","24","F_knife.wav","space","136.09154991","206","866453.207409","873319.407142","874085.642522","874852.747298","861036.327542","861803.336474","862570.09312","863319.426929","867202.642318","867969.244378","868736.179108","869502.945338","870269.485564","871036.461105","871803.714901","872552.676775","874094.682747","Mapping"
"Blocked","Female","done","24","F_greet.wav","None","726.229605003","206","866453.207409","873319.407142","874085.642522","874852.747298","875619.375328","861803.336474","862570.09312","863319.426929","867202.642318","867969.244378","868736.179108","869502.945338","870269.485564","871036.461105","871803.714901","872552.676775","874862.628164","Mapping"
"Blocked","Female","done","24","F_lash.wav","None","724.600880581","206","866453.207409","873319.407142","874085.642522","874852.747298","875619.375328","876386.426926","862570.09312","863319.426929","867202.642318","867969.244378","868736.179108","869502.945338","870269.485564","871036.461105","871803.714901","872552.676775","875628.837883","Mapping"
"Blocked","Female","done","24","F_ball.wav","None","722.257656918","206","866453.207409","873319.407142","874085.642522","874852.747298","875619.375328","876386.426926","877152.864505","863319.426929","867202.642318","867969.244378","868736.179108","869502.945338","870269.485564","871036.461105","871803.714901","872552.676775","876396.28986","Mapping"
"Blocked","Female","done","24","F_reek.wav","None","720.357478422","206","866453.207409","873319.407142","874085.642522","874852.747298","875619.375328","876386.426926","877152.864505","877902.889625","867202.642318","867969.244378","868736.179108","869502.945338","870269.485564","871036.461105","871803.714901","872552.676775","877162.967358","Mapping"
"Blocked","Female","done","19","F_cad.wav","None","735.387624329","206","881036.535306","873319.407142","874085.642522","874852.747298","875619.375328","876386.426926","877152.864505","877902.889625","867202.642318","867969.244378","868736.179108","869502.945338","870269.485564","871036.461105","871803.714901","872552.676775","877912.599519","Mapping"
"Blocked","Female","done","19","F_reek.wav","None","719.057405135","206","881036.535306","873319.407142","874085.642522","874852.747298","875619.375328","876386.426926","877152.864505","877902.889625","881785.539537","867969.244378","868736.179108","869502.945338","870269.485564","871036.461105","871803.714901","872552.676775","881046.403496","Mapping"
"Blocked","Female","done","19","F_lash.wav","None","735.431217763","206","881036.535306","873319.407142","874085.642522","874852.747298","875619.375328","876386.426926","877152.864505","877902.889625","881785.539537","882552.697181","868736.179108","869502.945338","870269.485564","871036.461105","871803.714901","872552.676775","881794.727855","Mapping"
"Blocked","Female","done","19","F_gnash.wav","None","732.811284077","206","881036.535306","873319.407142","874085.642522","874852.747298","875619.375328","876386.426926","877152.864505","877902.889625","881785.539537","882552.697181","883319.244826","869502.945338","870269.485564","871036.461105","871803.714901","872552.676775","882562.121398","Mapping"
"Blocked","Female","done","19","F_jolt.wav","None","730.953462305","206","881036.535306","873319.407142","874085.642522","874852.747298","875619.375328","876386.426926","877152.864505","877902.889625","881785.539537","882552.697181","883319.244826","884085.483607","870269.485564","871036.461105","871803.714901","872552.676775","883328.943589","Mapping"
"Blocked","Female","done","19","F_done.wav","None","730.256585928","206","881036.535306","873319.407142","874085.642522","874852.747298","875619.375328","876386.426926","877152.864505","877902.889625","881785.539537","882552.697181","883319.244826","884085.483607","884852.56705","871036.461105","871803.714901","872552.676775","884094.441591","Mapping"
"Blocked","Female","done","19","F_knife.wav","space","496.719208604","206","881036.535306","873319.407142","874085.642522","874852.747298","875619.375328","876386.426926","877152.864505","877902.889625","881785.539537","882552.697181","883319.244826","884085.483607","884852.56705","885619.538571","871803.714901","872552.676775","884861.867598","Mapping"
"Blocked","Female","done","19","F_done.wav","None","723.290913738","206","881036.535306","873319.407142","874085.642522","874852.747298","875619.375328","876386.426926","877152.864505","877902.889625","881785.539537","882552.697181","883319.244826","884085.483607","884852.56705","885619.538571","886385.5801","872552.676775","885629.554237","Mapping"
"Blocked","Female","done","19","F_cad.wav","space","570.775155968","206","881036.535306","873319.407142","874085.642522","874852.747298","875619.375328","876386.426926","877152.864505","877902.889625","881785.539537","882552.697181","883319.244826","884085.483607","884852.56705","885619.538571","886385.5801","887135.692407","886395.780961","Mapping"
"Blocked","Female","done","19","F_knife.wav","None","735.310021875","206","881036.535306","887902.597148","874085.642522","874852.747298","875619.375328","876386.426926","877152.864505","877902.889625","881785.539537","882552.697181","883319.244826","884085.483607","884852.56705","885619.538571","886385.5801","887135.692407","887145.465372","Mapping"
"Blocked","Female","done","19","F_reek.wav","None","733.640486607","206","881036.535306","887902.597148","888669.165817","874852.747298","875619.375328","876386.426926","877152.864505","877902.889625","881785.539537","882552.697181","883319.244826","884085.483607","884852.56705","885619.538571","886385.5801","887135.692407","887911.887802","Mapping"
"Blocked","Female","done","19","F_done.wav","None","731.326325214","206","881036.535306","887902.597148","888669.165817","889435.867121","875619.375328","876386.426926","877152.864505","877902.889625","881785.539537","882552.697181","883319.244826","884085.483607","884852.56705","885619.538571","886385.5801","887135.692407","888678.832117","Mapping"
"Blocked","Female","done","19","F_park.wav","None","729.474996071","206","881036.535306","887902.597148","888669.165817","889435.867121","890202.407346","876386.426926","877152.864505","877902.889625","881785.539537","882552.697181","883319.244826","884085.483607","884852.56705","885619.538571","886385.5801","887135.692407","889445.474678","Mapping"
