"Condition","Talker","Target","Trial","current_stimulus","response_response","response_time_response","subject_nr","time_Audio1","time_Audio10","time_Audio11","time_Audio12","time_Audio13","time_Audio14","time_Audio15","time_Audio16","time_Audio2","time_Audio3","time_Audio4","time_Audio5","time_Audio6","time_Audio7","time_Audio8","time_Audio9","time_response","title"
"Blocked","Female","ball","5","F_cave.wav","NA","NA","202","104343.433919","NA","NA","NA","NA","NA","NA","NA","NA","NA","NA","NA","NA","NA","NA","NA","NA","Mapping"
"Blocked","Female","ball","5","F_knife.wav","None","718.078253592","202","104343.433919","NA","NA","NA","NA","NA","NA","NA","105109.570364","NA","NA","NA","NA","NA","NA","NA","104358.139742","Mapping"
"Blocked","Female","ball","5","F_ball.wav","None","723.6928389","202","104343.433919","NA","NA","NA","NA","NA","NA","NA","105109.570364","105876.541267","NA","NA","NA","NA","NA","NA","105119.081768","Mapping"
"Blocked","Female","ball","5","F_cad.wav","space","337.360829549","202","104343.433919","NA","NA","NA","NA","NA","NA","NA","105109.570364","105876.541267","106643.232369","NA","NA","NA","NA","NA","105887.058412","Mapping"
"Blocked","Female","ball","5","F_tile.wav","None","720.585957415","202","104343.433919","NA","NA","NA","NA","NA","NA","NA","105109.570364","105876.541267","106643.232369","107410.133708","NA","NA","NA","NA","106653.761262","Mapping"
"Blocked","Female","ball","5","F_ball.wav","None","719.575888571","202","104343.433919","NA","NA","NA","NA","NA","NA","NA","105109.570364","105876.541267","106643.232369","107410.133708","108159.226671","NA","NA","NA","107420.938693","Mapping"
"Blocked","Female","ball","5","F_done.wav","space","368.066365882","202","104343.433919","NA","NA","NA","NA","NA","NA","NA","105109.570364","105876.541267","106643.232369","107410.133708","108159.226671","108926.045461","NA","NA","108168.291629","Mapping"
"Blocked","Female","ball","5","F_greet.wav","None","733.203934044","202","104343.433919","NA","NA","NA","NA","NA","NA","NA","105109.570364","105876.541267","106643.232369","107410.133708","108159.226671","108926.045461","109692.810765","NA","108936.246631","Mapping"
"Blocked","Female","ball","5","F_tile.wav","None","731.719284338","202","104343.433919","NA","NA","NA","NA","NA","NA","NA","105109.570364","105876.541267","106643.232369","107410.133708","108159.226671","108926.045461","109692.810765","110459.591217","109703.741274","Mapping"
"Blocked","Female","ball","5","F_ball.wav","None","729.310206766","202","104343.433919","111226.133298","NA","NA","NA","NA","NA","NA","105109.570364","105876.541267","106643.232369","107410.133708","108159.226671","108926.045461","109692.810765","110459.591217","110469.396955","Mapping"
"Blocked","Female","ball","5","F_tile.wav","space","340.224082552","202","104343.433919","111226.133298","111993.144393","NA","NA","NA","NA","NA","105109.570364","105876.541267","106643.232369","107410.133708","108159.226671","108926.045461","109692.810765","110459.591217","111236.049719","Mapping"
"Blocked","Female","ball","5","F_priest.wav","None","721.202757949","202","104343.433919","111226.133298","111993.144393","112759.921754","NA","NA","NA","NA","105109.570364","105876.541267","106643.232369","107410.133708","108159.226671","108926.045461","109692.810765","110459.591217","112003.844569","Mapping"
"Blocked","Female","ball","5","F_ball.wav","None","721.29179983","202","104343.433919","111226.133298","111993.144393","112759.921754","113526.598016","NA","NA","NA","105109.570364","105876.541267","106643.232369","107410.133708","108159.226671","108926.045461","109692.810765","110459.591217","112770.112721","Mapping"
"Blocked","Female","ball","5","F_cling.wav","space","455.385843516","202","104343.433919","111226.133298","111993.144393","112759.921754","113526.598016","114293.108251","NA","NA","105109.570364","105876.541267","106643.232369","107410.133708","108159.226671","108926.045461","109692.810765","110459.591217","113536.869059","Mapping"
"Blocked","Female","ball","5","F_done.wav","None","718.216454012","202","104343.433919","111226.133298","111993.144393","112759.921754","113526.598016","114293.108251","115042.732683","NA","105109.570364","105876.541267","106643.232369","107410.133708","108159.226671","108926.045461","109692.810765","110459.591217","114303.419487","Mapping"
"Blocked","Female","ball","5","F_bluff.wav","None","732.105750838","202","104343.433919","111226.133298","111993.144393","112759.921754","113526.598016","114293.108251","115042.732683","115809.331033","105109.570364","105876.541267","106643.232369","107410.133708","108159.226671","108926.045461","109692.810765","110459.591217","115052.704755","Mapping"
"Blocked","Female","ball","2","F_gnash.wav","None","731.843571964","202","118976.346086","111226.133298","111993.144393","112759.921754","113526.598016","114293.108251","115042.732683","115809.331033","105109.570364","105876.541267","106643.232369","107410.133708","108159.226671","108926.045461","109692.810765","110459.591217","115819.242198","Mapping"
"Blocked","Female","ball","2","F_bluff.wav","None","721.749376166","202","118976.346086","111226.133298","111993.144393","112759.921754","113526.598016","114293.108251","115042.732683","115809.331033","119742.940107","105876.541267","106643.232369","107410.133708","108159.226671","108926.045461","109692.810765","110459.591217","118986.308883","Mapping"
"Blocked","Female","ball","2","F_depth.wav","None","718.093403078","202","118976.346086","111226.133298","111993.144393","112759.921754","113526.598016","114293.108251","115042.732683","115809.331033","119742.940107","120493.066636","106643.232369","107410.133708","108159.226671","108926.045461","109692.810765","110459.591217","119753.479822","Mapping"
"Blocked","Female","ball","2","F_knife.wav","None","735.20181126","202","118976.346086","111226.133298","111993.144393","112759.921754","113526.598016","114293.108251","115042.732683","115809.331033","119742.940107","120493.066636","121259.561413","107410.133708","108159.226671","108926.045461","109692.810765","110459.591217","120502.547433","Mapping"
"Blocked","Female","ball","2","F_ball.wav","None","732.28568964","202","118976.346086","111226.133298","111993.144393","112759.921754","113526.598016","114293.108251","115042.732683","115809.331033","119742.940107","120493.066636","121259.561413","122025.964056","108159.226671","108926.045461","109692.810765","110459.591217","121269.033862","Mapping"
"Blocked","Female","ball","2","F_done.wav","space","548.013515815","202","118976.346086","111226.133298","111993.144393","112759.921754","113526.598016","114293.108251","115042.732683","115809.331033","119742.940107","120493.066636","121259.561413","122025.964056","122792.601362","108926.045461","109692.810765","110459.591217","122036.059179","Mapping"
"Blocked","Female","ball","2","F_lash.wav","None","724.563161456","202","118976.346086","111226.133298","111993.144393","112759.921754","113526.598016","114293.108251","115042.732683","115809.331033","119742.940107","120493.066636","121259.561413","122025.964056","122792.601362","123559.134476","109692.810765","110459.591217","122803.07615","Mapping"
"Blocked","Female","ball","2","F_ball.wav","None","724.6330346","202","118976.346086","111226.133298","111993.144393","112759.921754","113526.598016","114293.108251","115042.732683","115809.331033","119742.940107","120493.066636","121259.561413","122025.964056","122792.601362","123559.134476","124326.297376","110459.591217","123569.040385","Mapping"
"Blocked","Female","ball","2","F_reek.wav","space","575.346590886","202","118976.346086","111226.133298","111993.144393","112759.921754","113526.598016","114293.108251","115042.732683","115809.331033","119742.940107","120493.066636","121259.561413","122025.964056","122792.601362","123559.134476","124326.297376","125092.934063","124336.637983","Mapping"
"Blocked","Female","ball","2","F_knife.wav","None","719.775305286","202","118976.346086","125842.296316","111993.144393","112759.921754","113526.598016","114293.108251","115042.732683","115809.331033","119742.940107","120493.066636","121259.561413","122025.964056","122792.601362","123559.134476","124326.297376","125092.934063","125103.582297","Mapping"
"Blocked","Female","ball","2","F_done.wav","None","734.304281461","202","118976.346086","125842.296316","126609.001021","112759.921754","113526.598016","114293.108251","115042.732683","115809.331033","119742.940107","120493.066636","121259.561413","122025.964056","122792.601362","123559.134476","124326.297376","125092.934063","125852.652691","Mapping"
"Blocked","Female","ball","2","F_depth.wav","None","731.292934496","202","118976.346086","125842.296316","126609.001021","127375.9138","113526.598016","114293.108251","115042.732683","115809.331033","119742.940107","120493.066636","121259.561413","122025.964056","122792.601362","123559.134476","124326.297376","125092.934063","126618.930737","Mapping"
"Blocked","Female","ball","2","F_ball.wav","None","728.296118671","202","118976.346086","125842.296316","126609.001021","127375.9138","128142.389408","114293.108251","115042.732683","115809.331033","119742.940107","120493.066636","121259.561413","122025.964056","122792.601362","123559.134476","124326.297376","125092.934063","127385.410364","Mapping"
"Blocked","Female","ball","2","F_knife.wav","space","439.390458853","202","118976.346086","125842.296316","126609.001021","127375.9138","128142.389408","128909.424929","115042.732683","115809.331033","119742.940107","120493.066636","121259.561413","122025.964056","122792.601362","123559.134476","124326.297376","125092.934063","128152.589959","Mapping"
"Blocked","Female","ball","2","F_ball.wav","None","720.610072925","202","118976.346086","125842.296316","126609.001021","127375.9138","128142.389408","128909.424929","129658.496868","115809.331033","119742.940107","120493.066636","121259.561413","122025.964056","122792.601362","123559.134476","124326.297376","125092.934063","128919.982884","Mapping"
"Blocked","Female","ball","2","F_dime.wav","space","531.768628381","202","118976.346086","125842.296316","126609.001021","127375.9138","128142.389408","128909.424929","129658.496868","130425.648638","119742.940107","120493.066636","121259.561413","122025.964056","122792.601362","123559.134476","124326.297376","125092.934063","129668.167187","Mapping"
"Blocked","Female","tile","18","F_bluff.wav","None","734.510190812","202","133558.536844","125842.296316","126609.001021","127375.9138","128142.389408","128909.424929","129658.496868","130425.648638","119742.940107","120493.066636","121259.561413","122025.964056","122792.601362","123559.134476","124326.297376","125092.934063","130435.60216","Mapping"
"Blocked","Female","tile","18","F_cling.wav","None","722.526328417","202","133558.536844","125842.296316","126609.001021","127375.9138","128142.389408","128909.424929","129658.496868","130425.648638","134308.959561","120493.066636","121259.561413","122025.964056","122792.601362","123559.134476","124326.297376","125092.934063","133568.08875","Mapping"
"Blocked","Female","tile","18","F_tile.wav","None","735.121735401","202","133558.536844","125842.296316","126609.001021","127375.9138","128142.389408","128909.424929","129658.496868","130425.648638","134308.959561","135075.769694","121259.561413","122025.964056","122792.601362","123559.134476","124326.297376","125092.934063","134318.797143","Mapping"
"Blocked","Female","tile","18","F_reek.wav","space","602.545484788","202","133558.536844","125842.296316","126609.001021","127375.9138","128142.389408","128909.424929","129658.496868","130425.648638","134308.959561","135075.769694","135842.385049","122025.964056","122792.601362","123559.134476","124326.297376","125092.934063","135085.285427","Mapping"
"Blocked","Female","tile","18","F_done.wav","None","727.439708907","202","133558.536844","125842.296316","126609.001021","127375.9138","128142.389408","128909.424929","129658.496868","130425.648638","134308.959561","135075.769694","135842.385049","136608.864985","122792.601362","123559.134476","124326.297376","125092.934063","135853.040085","Mapping"
"Blocked","Female","tile","18","F_park.wav","None","725.293737728","202","133558.536844","125842.296316","126609.001021","127375.9138","128142.389408","128909.424929","129658.496868","130425.648638","134308.959561","135075.769694","135842.385049","136608.864985","137375.802498","123559.134476","124326.297376","125092.934063","136618.606105","Mapping"
"Blocked","Female","tile","18","F_cave.wav","None","724.624068577","202","133558.536844","125842.296316","126609.001021","127375.9138","128142.389408","128909.424929","129658.496868","130425.648638","134308.959561","135075.769694","135842.385049","136608.864985","137375.802498","138142.071887","124326.297376","125092.934063","137385.667905","Mapping"
"Blocked","Female","tile","18","F_tile.wav","None","721.017872375","202","133558.536844","125842.296316","126609.001021","127375.9138","128142.389408","128909.424929","129658.496868","130425.648638","134308.959561","135075.769694","135842.385049","136608.864985","137375.802498","138142.071887","138892.56355","125092.934063","138152.550076","Mapping"
"Blocked","Female","tile","18","F_greet.wav","space","577.754122593","202","133558.536844","125842.296316","126609.001021","127375.9138","128142.389408","128909.424929","129658.496868","130425.648638","134308.959561","135075.769694","135842.385049","136608.864985","137375.802498","138142.071887","138892.56355","139659.024317","138902.037544","Mapping"
"Blocked","Female","tile","18","F_knife.wav","None","732.080089462","202","133558.536844","140425.341629","126609.001021","127375.9138","128142.389408","128909.424929","129658.496868","130425.648638","134308.959561","135075.769694","135842.385049","136608.864985","137375.802498","138142.071887","138892.56355","139659.024317","139668.639604","Mapping"
"Blocked","Female","tile","18","F_tile.wav","None","729.225802482","202","133558.536844","140425.341629","141192.290581","127375.9138","128142.389408","128909.424929","129658.496868","130425.648638","134308.959561","135075.769694","135842.385049","136608.864985","137375.802498","138142.071887","138892.56355","139659.024317","140434.890134","Mapping"
"Blocked","Female","tile","18","F_greet.wav","space","421.539107473","202","133558.536844","140425.341629","141192.290581","141958.876873","128142.389408","128909.424929","129658.496868","130425.648638","134308.959561","135075.769694","135842.385049","136608.864985","137375.802498","138142.071887","138892.56355","139659.024317","141202.201746","Mapping"
"Blocked","Female","tile","18","F_dime.wav","None","722.436049843","202","133558.536844","140425.341629","141192.290581","141958.876873","142726.479726","128909.424929","129658.496868","130425.648638","134308.959561","135075.769694","135842.385049","136608.864985","137375.802498","138142.071887","138892.56355","139659.024317","141968.512255","Mapping"
"Blocked","Female","tile","18","F_tile.wav","None","717.778664761","202","133558.536844","140425.341629","141192.290581","141958.876873","142726.479726","143475.668842","129658.496868","130425.648638","134308.959561","135075.769694","135842.385049","136608.864985","137375.802498","138142.071887","138892.56355","139659.024317","142736.807966","Mapping"
"Blocked","Female","tile","18","F_park.wav","space","434.131422725","202","133558.536844","140425.341629","141192.290581","141958.876873","142726.479726","143475.668842","144242.149397","130425.648638","134308.959561","135075.769694","135842.385049","136608.864985","137375.802498","138142.071887","138892.56355","139659.024317","143485.557747","Mapping"
"Blocked","Female","tile","18","F_park.wav","None","729.165204535","202","133558.536844","140425.341629","141192.290581","141958.876873","142726.479726","143475.668842","144242.149397","145008.808035","134308.959561","135075.769694","135842.385049","136608.864985","137375.802498","138142.071887","138892.56355","139659.024317","144252.015423","Mapping"
"Blocked","Female","cave","10","F_ball.wav","None","725.493463615","202","148142.590061","140425.341629","141192.290581","141958.876873","142726.479726","143475.668842","144242.149397","145008.808035","134308.959561","135075.769694","135842.385049","136608.864985","137375.802498","138142.071887","138892.56355","139659.024317","145019.20182","Mapping"
"Blocked","Female","cave","10","F_jolt.wav","None","717.609856194","202","148142.590061","140425.341629","141192.290581","141958.876873","142726.479726","143475.668842","144242.149397","145008.808035","148908.996415","135075.769694","135842.385049","136608.864985","137375.802498","138142.071887","138892.56355","139659.024317","148153.700819","Mapping"
"Blocked","Female","cave","10","F_priest.wav","None","718.911475365","202","148142.590061","140425.341629","141192.290581","141958.876873","142726.479726","143475.668842","144242.149397","145008.808035","148908.996415","149658.530877","135842.385049","136608.864985","137375.802498","138142.071887","138892.56355","139659.024317","148919.314452","Mapping"
"Blocked","Female","cave","10","F_cad.wav","None","733.125404051","202","148142.590061","140425.341629","141192.290581","141958.876873","142726.479726","143475.668842","144242.149397","145008.808035","148908.996415","149658.530877","150425.392333","136608.864985","137375.802498","138142.071887","138892.56355","139659.024317","149668.358256","Mapping"
"Blocked","Female","cave","10","F_cave.wav","None","734.719501069","202","148142.590061","140425.341629","141192.290581","141958.876873","142726.479726","143475.668842","144242.149397","145008.808035","148908.996415","149658.530877","150425.392333","151192.082816","137375.802498","138142.071887","138892.56355","139659.024317","150430.237077","Mapping"
"Blocked","Female","cave","10","F_dime.wav","space","573.525869913","202","148142.590061","140425.341629","141192.290581","141958.876873","142726.479726","143475.668842","144242.149397","145008.808035","148908.996415","149658.530877","150425.392333","151192.082816","151959.081545","138142.071887","138892.56355","139659.024317","151202.022735","Mapping"
"Blocked","Female","cave","10","F_cad.wav","None","722.345771268","202","148142.590061","140425.341629","141192.290581","141958.876873","142726.479726","143475.668842","144242.149397","145008.808035","148908.996415","149658.530877","150425.392333","151192.082816","151959.081545","152725.739875","138892.56355","139659.024317","151969.471002","Mapping"
"Blocked","Female","cave","10","F_cad.wav","None","719.37956359","202","148142.590061","140425.341629","141192.290581","141958.876873","142726.479726","143475.668842","144242.149397","145008.808035","148908.996415","149658.530877","150425.392333","151192.082816","151959.081545","152725.739875","153475.389968","139659.024317","152735.854476","Mapping"
"Blocked","Female","cave","10","F_cave.wav","None","733.218465184","202","148142.590061","140425.341629","141192.290581","141958.876873","142726.479726","143475.668842","144242.149397","145008.808035","148908.996415","149658.530877","150425.392333","151192.082816","151959.081545","152725.739875","153475.389968","154242.276467","153485.462212","Mapping"
"Blocked","Female","cave","10","F_priest.wav","space","667.650868019","202","148142.590061","155008.531634","141192.290581","141958.876873","142726.479726","143475.668842","144242.149397","145008.808035","148908.996415","149658.530877","150425.392333","151192.082816","151959.081545","152725.739875","153475.389968","154242.276467","154251.841977","Mapping"
"Blocked","Female","cave","10","F_cave.wav","None","726.590100955","202","148142.590061","155008.531634","155775.74122","141958.876873","142726.479726","143475.668842","144242.149397","145008.808035","148908.996415","149658.530877","150425.392333","151192.082816","151959.081545","152725.739875","153475.389968","154242.276467","155018.611299","Mapping"
"Blocked","Female","cave","10","F_romp.wav","None","722.581361246","202","148142.590061","155008.531634","155775.74122","156542.61597","142726.479726","143475.668842","144242.149397","145008.808035","148908.996415","149658.530877","150425.392333","151192.082816","151959.081545","152725.739875","153475.389968","154242.276467","155786.034832","Mapping"
"Blocked","Female","cave","10","F_cling.wav","space","0.0340090518876","202","148142.590061","155008.531634","155775.74122","156542.61597","157309.180311","143475.668842","144242.149397","145008.808035","148908.996415","149658.530877","150425.392333","151192.082816","151959.081545","152725.739875","153475.389968","154242.276467","156552.875883","Mapping"
"Blocked","Female","cave","10","F_jolt.wav","None","718.841602222","202","148142.590061","155008.531634","155775.74122","156542.61597","157309.180311","158058.572244","144242.149397","145008.808035","148908.996415","149658.530877","150425.392333","151192.082816","151959.081545","152725.739875","153475.389968","154242.276467","157319.347471","Mapping"
"Blocked","Female","cave","10","F_cave.wav","None","732.823032662","202","148142.590061","155008.531634","155775.74122","156542.61597","157309.180311","158058.572244","158825.19471","145008.808035","148908.996415","149658.530877","150425.392333","151192.082816","151959.081545","152725.739875","153475.389968","154242.276467","158068.93944","Mapping"
"Blocked","Female","cave","10","F_tile.wav","space","412.583596569","202","148142.590061","155008.531634","155775.74122","156542.61597","157309.180311","158058.572244","158825.19471","159591.957539","148908.996415","149658.530877","150425.392333","151192.082816","151959.081545","152725.739875","153475.389968","154242.276467","158834.853589","Mapping"
"Blocked","Female","done","20","F_gnash.wav","None","726.163132766","202","162709.071729","155008.531634","155775.74122","156542.61597","157309.180311","158058.572244","158825.19471","159591.957539","148908.996415","149658.530877","150425.392333","151192.082816","151959.081545","152725.739875","153475.389968","154242.276467","159601.937341","Mapping"
"Blocked","Female","done","20","F_greet.wav","None","718.589316891","202","162709.071729","155008.531634","155775.74122","156542.61597","157309.180311","158058.572244","158825.19471","159591.957539","163458.373384","149658.530877","150425.392333","151192.082816","151959.081545","152725.739875","153475.389968","154242.276467","162719.838995","Mapping"
"Blocked","Female","done","20","F_romp.wav","None","733.707268013","202","162709.071729","155008.531634","155775.74122","156542.61597","157309.180311","158058.572244","158825.19471","159591.957539","163458.373384","164225.278743","150425.392333","151192.082816","151959.081545","152725.739875","153475.389968","154242.276467","163468.203855","Mapping"
"Blocked","Female","done","20","F_jolt.wav","None","730.694375181","202","162709.071729","155008.531634","155775.74122","156542.61597","157309.180311","158058.572244","158825.19471","159591.957539","163458.373384","164225.278743","164991.813403","151192.082816","151959.081545","152725.739875","153475.389968","154242.276467","164234.858784","Mapping"
"Blocked","Female","done","20","F_cave.wav","None","726.714079407","202","162709.071729","155008.531634","155775.74122","156542.61597","157309.180311","158058.572244","158825.19471","159591.957539","163458.373384","164225.278743","164991.813403","165758.480389","151959.081545","152725.739875","153475.389968","154242.276467","165002.354354","Mapping"
"Blocked","Female","done","20","F_priest.wav","None","724.574600865","202","162709.071729","155008.531634","155775.74122","156542.61597","157309.180311","158058.572244","158825.19471","159591.957539","163458.373384","164225.278743","164991.813403","165758.480389","166525.459949","152725.739875","153475.389968","154242.276467","165768.048681","Mapping"
"Blocked","Female","done","20","F_done.wav","None","720.522267736","202","162709.071729","155008.531634","155775.74122","156542.61597","157309.180311","158058.572244","158825.19471","159591.957539","163458.373384","164225.278743","164991.813403","165758.480389","166525.459949","167274.980808","153475.389968","154242.276467","166535.642878","Mapping"
"Blocked","Female","done","20","F_ball.wav","space","466.260083298","202","162709.071729","155008.531634","155775.74122","156542.61597","157309.180311","158058.572244","158825.19471","159591.957539","163458.373384","164225.278743","164991.813403","165758.480389","166525.459949","167274.980808","168041.748276","154242.276467","167285.052743","Mapping"
"Blocked","Female","done","20","F_gnash.wav","None","730.518764804","202","162709.071729","155008.531634","155775.74122","156542.61597","157309.180311","158058.572244","158825.19471","159591.957539","163458.373384","164225.278743","164991.813403","165758.480389","166525.459949","167274.980808","168041.748276","168808.386199","168052.186581","Mapping"
"Blocked","Female","done","20","F_done.wav","None","734.361787677","202","162709.071729","169575.25353","155775.74122","156542.61597","157309.180311","158058.572244","158825.19471","159591.957539","163458.373384","164225.278743","164991.813403","165758.480389","166525.459949","167274.980808","168041.748276","168808.386199","168812.433277","Mapping"
"Blocked","Female","done","20","F_cad.wav","space","462.080061637","202","162709.071729","169575.25353","170342.073557","156542.61597","157309.180311","158058.572244","158825.19471","159591.957539","163458.373384","164225.278743","164991.813403","165758.480389","166525.459949","167274.980808","168041.748276","168808.386199","169585.147381","Mapping"
"Blocked","Female","done","20","F_done.wav","None","722.101833614","202","162709.071729","169575.25353","170342.073557","171108.783518","157309.180311","158058.572244","158825.19471","159591.957539","163458.373384","164225.278743","164991.813403","165758.480389","166525.459949","167274.980808","168041.748276","168808.386199","170351.982249","Mapping"
"Blocked","Female","done","20","F_cling.wav","space","360.355277107","202","162709.071729","169575.25353","170342.073557","171108.783518","171858.171123","158058.572244","158825.19471","159591.957539","163458.373384","164225.278743","164991.813403","165758.480389","166525.459949","167274.980808","168041.748276","168808.386199","171118.842468","Mapping"
"Blocked","Female","done","20","F_greet.wav","None","733.058931813","202","162709.071729","169575.25353","170342.073557","171108.783518","171858.171123","172625.113892","158825.19471","159591.957539","163458.373384","164225.278743","164991.813403","165758.480389","166525.459949","167274.980808","168041.748276","168808.386199","171868.233783","Mapping"
"Blocked","Female","done","20","F_done.wav","None","730.445181582","202","162709.071729","169575.25353","170342.073557","171108.783518","171858.171123","172625.113892","173391.648552","159591.957539","163458.373384","164225.278743","164991.813403","165758.480389","166525.459949","167274.980808","168041.748276","168808.386199","172634.313959","Mapping"
"Blocked","Female","done","20","F_greet.wav","space","434.35990172","202","162709.071729","169575.25353","170342.073557","171108.783518","171858.171123","172625.113892","173391.648552","174158.75982","163458.373384","164225.278743","164991.813403","165758.480389","166525.459949","167274.980808","168041.748276","168808.386199","173396.802778","Mapping"
"Blocked","Female","tile","17","F_cling.wav","None","722.296612729","202","177275.250407","169575.25353","170342.073557","171108.783518","171858.171123","172625.113892","173391.648552","174158.75982","163458.373384","164225.278743","164991.813403","165758.480389","166525.459949","167274.980808","168041.748276","168808.386199","174169.089606","Mapping"
"Blocked","Female","tile","17","F_tile.wav","None","718.176879843","202","177275.250407","169575.25353","170342.073557","171108.783518","171858.171123","172625.113892","173391.648552","174158.75982","178024.955533","164225.278743","164991.813403","165758.480389","166525.459949","167274.980808","168041.748276","168808.386199","177285.982427","Mapping"
"Blocked","Female","tile","17","F_romp.wav","space","596.543505462","202","177275.250407","169575.25353","170342.073557","171108.783518","171858.171123","172625.113892","173391.648552","174158.75982","178024.955533","178791.589129","164991.813403","165758.480389","166525.459949","167274.980808","168041.748276","168808.386199","178034.485488","Mapping"
"Blocked","Female","tile","17","F_tile.wav","None","729.077090173","202","177275.250407","169575.25353","170342.073557","171108.783518","171858.171123","172625.113892","173391.648552","174158.75982","178024.955533","178791.589129","179557.880469","165758.480389","166525.459949","167274.980808","168041.748276","168808.386199","178801.972711","Mapping"
"Blocked","Female","tile","17","F_knife.wav","space","463.456809895","202","177275.250407","169575.25353","170342.073557","171108.783518","171858.171123","172625.113892","173391.648552","174158.75982","178024.955533","178791.589129","179557.880469","180325.49198","166525.459949","167274.980808","168041.748276","168808.386199","179567.58758","Mapping"
"Blocked","Female","tile","17","F_gnash.wav","None","721.850166629","202","177275.250407","169575.25353","170342.073557","171108.783518","171858.171123","172625.113892","173391.648552","174158.75982","178024.955533","178791.589129","179557.880469","180325.49198","181091.842063","167274.980808","168041.748276","168808.386199","180336.162474","Mapping"
"Blocked","Female","tile","17","F_romp.wav","None","719.664930453","202","177275.250407","169575.25353","170342.073557","171108.783518","171858.171123","172625.113892","173391.648552","174158.75982","178024.955533","178791.589129","179557.880469","180325.49198","181091.842063","181841.4161","168041.748276","168808.386199","181102.00304","Mapping"
"Blocked","Female","tile","17","F_tile.wav","None","733.894317799","202","177275.250407","169575.25353","170342.073557","171108.783518","171858.171123","172625.113892","173391.648552","174158.75982","178024.955533","178791.589129","179557.880469","180325.49198","181091.842063","181841.4161","182607.901601","168808.386199","181851.496074","Mapping"
"Blocked","Female","tile","17","F_lash.wav","space","469.715402978","202","177275.250407","169575.25353","170342.073557","171108.783518","171858.171123","172625.113892","173391.648552","174158.75982","178024.955533","178791.589129","179557.880469","180325.49198","181091.842063","181841.4161","182607.901601","183374.90806","182617.294901","Mapping"
"Blocked","Female","tile","17","F_done.wav","None","727.34231935","202","177275.250407","184141.464362","170342.073557","171108.783518","171858.171123","172625.113892","173391.648552","174158.75982","178024.955533","178791.589129","179557.880469","180325.49198","181091.842063","181841.4161","182607.901601","183374.90806","183385.014313","Mapping"
"Blocked","Female","tile","17","F_greet.wav","None","724.798133089","202","177275.250407","184141.464362","184908.436502","171108.783518","171858.171123","172625.113892","173391.648552","174158.75982","178024.955533","178791.589129","179557.880469","180325.49198","181091.842063","181841.4161","182607.901601","183374.90806","184151.37058","Mapping"
"Blocked","Female","tile","17","F_bluff.wav","None","722.430175552","202","177275.250407","184141.464362","184908.436502","185674.786895","171858.171123","172625.113892","173391.648552","174158.75982","178024.955533","178791.589129","179557.880469","180325.49198","181091.842063","181841.4161","182607.901601","183374.90806","184917.965529","Mapping"
"Blocked","Female","tile","17","F_tile.wav","None","718.867881944","202","177275.250407","184141.464362","184908.436502","185674.786895","186424.685563","172625.113892","173391.648552","174158.75982","178024.955533","178791.589129","179557.880469","180325.49198","181091.842063","181841.4161","182607.901601","183374.90806","185685.283016","Mapping"
"Blocked","Female","tile","17","F_knife.wav","space","428.146138752","202","177275.250407","184141.464362","184908.436502","185674.786895","186424.685563","187191.344202","173391.648552","174158.75982","178024.955533","178791.589129","179557.880469","180325.49198","181091.842063","181841.4161","182607.901601","183374.90806","186434.804493","Mapping"
"Blocked","Female","tile","17","F_jolt.wav","None","730.323058168","202","177275.250407","184141.464362","184908.436502","185674.786895","186424.685563","187191.344202","187958.05911","174158.75982","178024.955533","178791.589129","179557.880469","180325.49198","181091.842063","181841.4161","182607.901601","183374.90806","187200.995661","Mapping"
"Blocked","Female","tile","17","F_cling.wav","None","727.593058814","202","177275.250407","184141.464362","184908.436502","185674.786895","186424.685563","187191.344202","187958.05911","188724.727642","178024.955533","178791.589129","179557.880469","180325.49198","181091.842063","181841.4161","182607.901601","183374.90806","187967.624619","Mapping"
"Blocked","Female","ball","1","F_park.wav","None","724.138975826","202","191842.021461","184141.464362","184908.436502","185674.786895","186424.685563","187191.344202","187958.05911","188724.727642","178024.955533","178791.589129","179557.880469","180325.49198","181091.842063","181841.4161","182607.901601","183374.90806","188734.912425","Mapping"
"Blocked","Female","ball","1","F_ball.wav","None","718.531501503","202","191842.021461","184141.464362","184908.436502","185674.786895","186424.685563","187191.344202","187958.05911","188724.727642","192591.297145","178791.589129","179557.880469","180325.49198","181091.842063","181841.4161","182607.901601","183374.90806","191852.333933","Mapping"
"Blocked","Female","ball","1","F_bluff.wav","space","405.963580015","202","191842.021461","184141.464362","184908.436502","185674.786895","186424.685563","187191.344202","187958.05911","188724.727642","192591.297145","193358.101404","179557.880469","180325.49198","181091.842063","181841.4161","182607.901601","183374.90806","192600.857399","Mapping"
"Blocked","Female","ball","1","F_priest.wav","None","729.975547491","202","191842.021461","184141.464362","184908.436502","185674.786895","186424.685563","187191.344202","187958.05911","188724.727642","192591.297145","193358.101404","194124.355644","180325.49198","181091.842063","181841.4161","182607.901601","183374.90806","193367.785018","Mapping"
"Blocked","Female","ball","1","F_ball.wav","None","727.386531117","202","191842.021461","184141.464362","184908.436502","185674.786895","186424.685563","187191.344202","187958.05911","188724.727642","192591.297145","193358.101404","194124.355644","194891.319746","181091.842063","181841.4161","182607.901601","183374.90806","194134.087798","Mapping"
"Blocked","Female","ball","1","F_reek.wav","space","361.066375467","202","191842.021461","184141.464362","184908.436502","185674.786895","186424.685563","187191.344202","187958.05911","188724.727642","192591.297145","193358.101404","194124.355644","194891.319746","195658.006519","181841.4161","182607.901601","183374.90806","194901.711985","Mapping"
"Blocked","Female","ball","1","F_lash.wav","None","720.315740038","202","191842.021461","184141.464362","184908.436502","185674.786895","186424.685563","187191.344202","187958.05911","188724.727642","192591.297145","193358.101404","194124.355644","194891.319746","195658.006519","196407.467089","182607.901601","183374.90806","195668.419782","Mapping"
"Blocked","Female","ball","1","F_cave.wav","None","735.561998038","202","191842.021461","184141.464362","184908.436502","185674.786895","186424.685563","187191.344202","187958.05911","188724.727642","192591.297145","193358.101404","194124.355644","194891.319746","195658.006519","196407.467089","197174.11738","183374.90806","196417.026106","Mapping"
"Blocked","Female","ball","1","F_lash.wav","None","732.205613781","202","191842.021461","184141.464362","184908.436502","185674.786895","186424.685563","187191.344202","187958.05911","188724.727642","192591.297145","193358.101404","194124.355644","194891.319746","195658.006519","196407.467089","197174.11738","197941.231121","197184.058535","Mapping"
"Blocked","Female","ball","1","F_ball.wav","None","728.997632661","202","191842.021461","198707.387354","184908.436502","185674.786895","186424.685563","187191.344202","187958.05911","188724.727642","192591.297145","193358.101404","194124.355644","194891.319746","195658.006519","196407.467089","197174.11738","197941.231121","197951.109205","Mapping"
"Blocked","Female","ball","1","F_knife.wav","space","417.756682547","202","191842.021461","198707.387354","199474.838712","185674.786895","186424.685563","187191.344202","187958.05911","188724.727642","192591.297145","193358.101404","194124.355644","194891.319746","195658.006519","196407.467089","197174.11738","197941.231121","198716.992746","Mapping"
"Blocked","Female","ball","1","F_ball.wav","None","721.534809965","202","191842.021461","198707.387354","199474.838712","200241.147676","186424.685563","187191.344202","187958.05911","188724.727642","192591.297145","193358.101404","194124.355644","194891.319746","195658.006519","196407.467089","197174.11738","197941.231121","199485.278873","Mapping"
"Blocked","Female","ball","1","F_greet.wav","space","419.635837255","202","191842.021461","198707.387354","199474.838712","200241.147676","200990.729132","187191.344202","187958.05911","188724.727642","192591.297145","193358.101404","194124.355644","194891.319746","195658.006519","196407.467089","197174.11738","197941.231121","200251.062551","Mapping"
"Blocked","Female","ball","1","F_lash.wav","None","733.58916385","202","191842.021461","198707.387354","199474.838712","200241.147676","200990.729132","201757.635728","187958.05911","188724.727642","192591.297145","193358.101404","194124.355644","194891.319746","195658.006519","196407.467089","197174.11738","197941.231121","201000.098626","Mapping"
"Blocked","Female","ball","1","F_bluff.wav","None","730.238035538","202","191842.021461","198707.387354","199474.838712","200241.147676","200990.729132","201757.635728","202524.514807","188724.727642","192591.297145","193358.101404","194124.355644","194891.319746","195658.006519","196407.467089","197174.11738","197941.231121","201767.29739","Mapping"
"Blocked","Female","ball","1","F_romp.wav","None","726.923698837","202","191842.021461","198707.387354","199474.838712","200241.147676","200990.729132","201757.635728","202524.514807","203291.548472","192591.297145","193358.101404","194124.355644","194891.319746","195658.006519","196407.467089","197174.11738","197941.231121","202534.271076","Mapping"
"Blocked","Female","tile","13","F_dime.wav","None","722.524473377","202","206408.079252","198707.387354","199474.838712","200241.147676","200990.729132","201757.635728","202524.514807","203291.548472","192591.297145","193358.101404","194124.355644","194891.319746","195658.006519","196407.467089","197174.11738","197941.231121","203302.369225","Mapping"
"Blocked","Female","tile","13","F_depth.wav","None","717.288006893","202","206408.079252","198707.387354","199474.838712","200241.147676","200990.729132","201757.635728","202524.514807","203291.548472","207157.562392","193358.101404","194124.355644","194891.319746","195658.006519","196407.467089","197174.11738","197941.231121","206420.451745","Mapping"
"Blocked","Female","tile","13","F_bluff.wav","None","739.427281381","202","206408.079252","198707.387354","199474.838712","200241.147676","200990.729132","201757.635728","202524.514807","203291.548472","207157.562392","207924.45693","194124.355644","194891.319746","195658.006519","196407.467089","197174.11738","197941.231121","207162.350557","Mapping"
"Blocked","Female","tile","13","F_done.wav","None","731.639517653","202","206408.079252","198707.387354","199474.838712","200241.147676","200990.729132","201757.635728","202524.514807","203291.548472","207157.562392","207924.45693","208690.974585","194891.319746","195658.006519","196407.467089","197174.11738","197941.231121","207933.930924","Mapping"
"Blocked","Female","tile","13","F_tile.wav","None","728.523670145","202","206408.079252","198707.387354","199474.838712","200241.147676","200990.729132","201757.635728","202524.514807","203291.548472","207157.562392","207924.45693","208690.974585","209457.691348","195658.006519","196407.467089","197174.11738","197941.231121","208700.99056","Mapping"
"Blocked","Female","tile","13","F_done.wav","space","555.380185646","202","206408.079252","198707.387354","199474.838712","200241.147676","200990.729132","201757.635728","202524.514807","203291.548472","207157.562392","207924.45693","208690.974585","209457.691348","210224.889803","196407.467089","197174.11738","197941.231121","209467.167816","Mapping"
"Blocked","Female","tile","13","F_tile.wav","None","721.611794092","202","206408.079252","198707.387354","199474.838712","200241.147676","200990.729132","201757.635728","202524.514807","203291.548472","207157.562392","207924.45693","208690.974585","209457.691348","210224.889803","210991.215771","197174.11738","197941.231121","210234.985235","Mapping"
"Blocked","Female","tile","13","F_dime.wav","space","676.234134391","202","206408.079252","198707.387354","199474.838712","200241.147676","200990.729132","201757.635728","202524.514807","203291.548472","207157.562392","207924.45693","208690.974585","209457.691348","210224.889803","210991.215771","211740.997263","197941.231121","211002.291901","Mapping"
"Blocked","Female","tile","13","F_cad.wav","None","732.168512997","202","206408.079252","198707.387354","199474.838712","200241.147676","200990.729132","201757.635728","202524.514807","203291.548472","207157.562392","207924.45693","208690.974585","209457.691348","210224.889803","210991.215771","211740.997263","212507.635187","211751.400632","Mapping"
"Blocked","Female","tile","13","F_tile.wav","None","730.103854369","202","206408.079252","213274.403891","199474.838712","200241.147676","200990.729132","201757.635728","202524.514807","203291.548472","207157.562392","207924.45693","208690.974585","209457.691348","210224.889803","210991.215771","211740.997263","212507.635187","212517.660128","Mapping"
"Blocked","Female","tile","13","F_park.wav","space","434.46038301","202","206408.079252","213274.403891","214041.225154","200241.147676","200990.729132","201757.635728","202524.514807","203291.548472","207157.562392","207924.45693","208690.974585","209457.691348","210224.889803","210991.215771","211740.997263","212507.635187","213284.025361","Mapping"
"Blocked","Female","tile","13","F_cad.wav","None","723.148694068","202","206408.079252","213274.403891","214041.225154","214808.0121","200990.729132","201757.635728","202524.514807","203291.548472","207157.562392","207924.45693","208690.974585","209457.691348","210224.889803","210991.215771","211740.997263","212507.635187","214051.421996","Mapping"
"Blocked","Female","tile","13","F_dime.wav","None","719.982760502","202","206408.079252","213274.403891","214041.225154","214808.0121","215557.374353","201757.635728","202524.514807","203291.548472","207157.562392","207924.45693","208690.974585","209457.691348","210224.889803","210991.215771","211740.997263","212507.635187","214818.527699","Mapping"
"Blocked","Female","tile","13","F_priest.wav","None","736.018956027","202","206408.079252","213274.403891","214041.225154","214808.0121","215557.374353","216324.301972","202524.514807","203291.548472","207157.562392","207924.45693","208690.974585","209457.691348","210224.889803","210991.215771","211740.997263","212507.635187","215566.458789","Mapping"
"Blocked","Female","tile","13","F_tile.wav","None","732.404102976","202","206408.079252","213274.403891","214041.225154","214808.0121","215557.374353","216324.301972","217090.905268","203291.548472","207157.562392","207924.45693","208690.974585","209457.691348","210224.889803","210991.215771","211740.997263","212507.635187","216334.05515","Mapping"
"Blocked","Female","tile","13","F_dime.wav","None","735.019708246","202","206408.079252","213274.403891","214041.225154","214808.0121","215557.374353","216324.301972","217090.905268","217857.407465","207157.562392","207924.45693","208690.974585","209457.691348","210224.889803","210991.215771","211740.997263","212507.635187","217095.292745","Mapping"
"Blocked","Female","cave","9","F_priest.wav","space","211.225275033","202","220974.566794","213274.403891","214041.225154","214808.0121","215557.374353","216324.301972","217090.905268","217857.407465","207157.562392","207924.45693","208690.974585","209457.691348","210224.889803","210991.215771","211740.997263","212507.635187","217867.158788","Mapping"
"Blocked","Female","cave","9","F_cave.wav","None","718.539849179","202","220974.566794","213274.403891","214041.225154","214808.0121","215557.374353","216324.301972","217090.905268","217857.407465","221724.206994","207924.45693","208690.974585","209457.691348","210224.889803","210991.215771","211740.997263","212507.635187","220984.75467","Mapping"
"Blocked","Female","cave","9","F_cad.wav","space","672.027214662","202","220974.566794","213274.403891","214041.225154","214808.0121","215557.374353","216324.301972","217090.905268","217857.407465","221724.206994","222490.869033","208690.974585","209457.691348","210224.889803","210991.215771","211740.997263","212507.635187","221734.284494","Mapping"
"Blocked","Female","cave","9","F_cave.wav","None","729.649369766","202","220974.566794","213274.403891","214041.225154","214808.0121","215557.374353","216324.301972","217090.905268","217857.407465","221724.206994","222490.869033","223257.168722","209457.691348","210224.889803","210991.215771","211740.997263","212507.635187","222500.393423","Mapping"
"Blocked","Female","cave","9","F_knife.wav","space","483.769798292","202","220974.566794","213274.403891","214041.225154","214808.0121","215557.374353","216324.301972","217090.905268","217857.407465","221724.206994","222490.869033","223257.168722","224024.660582","210224.889803","210991.215771","211740.997263","212507.635187","223266.496168","Mapping"
"Blocked","Female","cave","9","F_gnash.wav","None","721.58365933","202","220974.566794","213274.403891","214041.225154","214808.0121","215557.374353","216324.301972","217090.905268","217857.407465","221724.206994","222490.869033","223257.168722","224024.660582","224791.071263","210991.215771","211740.997263","212507.635187","224035.28501","Mapping"
"Blocked","Female","cave","9","F_jolt.wav","None","719.396568116","202","220974.566794","213274.403891","214041.225154","214808.0121","215557.374353","216324.301972","217090.905268","217857.407465","221724.206994","222490.869033","223257.168722","224024.660582","224791.071263","225540.703425","211740.997263","212507.635187","224801.258211","Mapping"
"Blocked","Female","cave","9","F_dime.wav","None","733.951514841","202","220974.566794","213274.403891","214041.225154","214808.0121","215557.374353","216324.301972","217090.905268","217857.407465","221724.206994","222490.869033","223257.168722","224024.660582","224791.071263","225540.703425","226307.361445","212507.635187","225550.596658","Mapping"
"Blocked","Female","cave","9","F_depth.wav","None","731.000456649","202","220974.566794","213274.403891","214041.225154","214808.0121","215557.374353","216324.301972","217090.905268","217857.407465","221724.206994","222490.869033","223257.168722","224024.660582","224791.071263","225540.703425","226307.361445","227074.23063","226317.361343","Mapping"
"Blocked","Female","cave","9","F_knife.wav","None","727.929130082","202","220974.566794","227840.698509","214041.225154","214808.0121","215557.374353","216324.301972","217090.905268","217857.407465","221724.206994","222490.869033","223257.168722","224024.660582","224791.071263","225540.703425","226307.361445","227074.23063","227084.198993","Mapping"
"Blocked","Female","cave","9","F_park.wav","None","724.946845398","202","220974.566794","227840.698509","228606.857214","214808.0121","215557.374353","216324.301972","217090.905268","217857.407465","221724.206994","222490.869033","223257.168722","224024.660582","224791.071263","225540.703425","226307.361445","227074.23063","227851.094148","Mapping"
"Blocked","Female","cave","9","F_cave.wav","None","725.735237057","202","220974.566794","227840.698509","228606.857214","229374.284457","215557.374353","216324.301972","217090.905268","217857.407465","221724.206994","222490.869033","223257.168722","224024.660582","224791.071263","225540.703425","226307.361445","227074.23063","228615.730176","Mapping"
"Blocked","Female","cave","9","F_lash.wav","space","341.574860262","202","220974.566794","227840.698509","228606.857214","229374.284457","230123.340629","216324.301972","217090.905268","217857.407465","221724.206994","222490.869033","223257.168722","224024.660582","224791.071263","225540.703425","226307.361445","227074.23063","229384.579616","Mapping"
"Blocked","Female","cave","9","F_depth.wav","None","741.431342062","202","220974.566794","227840.698509","228606.857214","229374.284457","230123.340629","230890.116444","217090.905268","217857.407465","221724.206994","222490.869033","223257.168722","224024.660582","224791.071263","225540.703425","226307.361445","227074.23063","230127.093373","Mapping"
"Blocked","Female","cave","9","F_cave.wav","None","733.719016594","202","220974.566794","227840.698509","228606.857214","229374.284457","230123.340629","230890.116444","231656.825478","217857.407465","221724.206994","222490.869033","223257.168722","224024.660582","224791.071263","225540.703425","226307.361445","227074.23063","230899.154195","Mapping"
"Blocked","Female","cave","9","F_lash.wav","space","523.747438886","202","220974.566794","227840.698509","228606.857214","229374.284457","230123.340629","230890.116444","231656.825478","232423.978484","221724.206994","222490.869033","223257.168722","224024.660582","224791.071263","225540.703425","226307.361445","227074.23063","231666.343993","Mapping"
"Blocked","Female","ball","6","F_tile.wav","None","730.976959485","202","235541.195319","227840.698509","228606.857214","229374.284457","230123.340629","230890.116444","231656.825478","232423.978484","221724.206994","222490.869033","223257.168722","224024.660582","224791.071263","225540.703425","226307.361445","227074.23063","232428.863421","Mapping"
"Blocked","Female","ball","6","F_dime.wav","None","718.44524218","202","235541.195319","227840.698509","228606.857214","229374.284457","230123.340629","230890.116444","231656.825478","232423.978484","236290.461729","222490.869033","223257.168722","224024.660582","224791.071263","225540.703425","226307.361445","227074.23063","235551.600852","Mapping"
"Blocked","Female","ball","6","F_lash.wav","None","733.728600963","202","235541.195319","227840.698509","228606.857214","229374.284457","230123.340629","230890.116444","231656.825478","232423.978484","236290.461729","237056.952486","223257.168722","224024.660582","224791.071263","225540.703425","226307.361445","227074.23063","236300.412777","Mapping"
"Blocked","Female","ball","6","F_park.wav","None","732.25477232","202","235541.195319","227840.698509","228606.857214","229374.284457","230123.340629","230890.116444","231656.825478","232423.978484","236290.461729","237056.952486","237823.946577","224024.660582","224791.071263","225540.703425","226307.361445","227074.23063","237066.025174","Mapping"
"Blocked","Female","ball","6","F_cave.wav","None","727.886464181","202","235541.195319","227840.698509","228606.857214","229374.284457","230123.340629","230890.116444","231656.825478","232423.978484","236290.461729","237056.952486","237823.946577","238590.479073","224791.071263","225540.703425","226307.361445","227074.23063","237834.407453","Mapping"
"Blocked","Female","ball","6","F_ball.wav","None","725.780067171","202","235541.195319","227840.698509","228606.857214","229374.284457","230123.340629","230890.116444","231656.825478","232423.978484","236290.461729","237056.952486","237823.946577","238590.479073","239356.935822","225540.703425","226307.361445","227074.23063","238600.452691","Mapping"
"Blocked","Female","ball","6","F_jaw.wav","space","399.938103526","202","235541.195319","227840.698509","228606.857214","229374.284457","230123.340629","230890.116444","231656.825478","232423.978484","236290.461729","237056.952486","237823.946577","238590.479073","239356.935822","240123.507582","226307.361445","227074.23063","239366.076527","Mapping"
"Blocked","Female","ball","6","F_ball.wav","None","723.900912463","202","235541.195319","227840.698509","228606.857214","229374.284457","230123.340629","230890.116444","231656.825478","232423.978484","236290.461729","237056.952486","237823.946577","238590.479073","239356.935822","240123.507582","240890.797552","227074.23063","240132.950969","Mapping"
"Blocked","Female","ball","6","F_greet.wav","space","392.609771171","202","235541.195319","227840.698509","228606.857214","229374.284457","230123.340629","230890.116444","231656.825478","232423.978484","236290.461729","237056.952486","237823.946577","238590.479073","239356.935822","240123.507582","240890.797552","241640.378082","240901.381479","Mapping"
"Blocked","Female","ball","6","F_ball.wav","None","733.184456132","202","235541.195319","242407.10041","228606.857214","229374.284457","230123.340629","230890.116444","231656.825478","232423.978484","236290.461729","237056.952486","237823.946577","238590.479073","239356.935822","240123.507582","240890.797552","241640.378082","241650.851015","Mapping"
"Blocked","Female","ball","6","F_reek.wav","space","364.965977035","202","235541.195319","242407.10041","243173.699378","229374.284457","230123.340629","230890.116444","231656.825478","232423.978484","236290.461729","237056.952486","237823.946577","238590.479073","239356.935822","240123.507582","240890.797552","241640.378082","242416.982822","Mapping"
"Blocked","Female","ball","6","F_park.wav","None","728.131947701","202","235541.195319","242407.10041","243173.699378","243939.917135","230123.340629","230890.116444","231656.825478","232423.978484","236290.461729","237056.952486","237823.946577","238590.479073","239356.935822","240123.507582","240890.797552","241640.378082","243182.821842","Mapping"
"Blocked","Female","ball","6","F_ball.wav","None","726.429949237","202","235541.195319","242407.10041","243173.699378","243939.917135","244707.584297","230890.116444","231656.825478","232423.978484","236290.461729","237056.952486","237823.946577","238590.479073","239356.935822","240123.507582","240890.797552","241640.378082","243948.968799","Mapping"
"Blocked","Female","ball","6","F_cling.wav","space","447.652494271","202","235541.195319","242407.10041","243173.699378","243939.917135","244707.584297","245474.212636","231656.825478","232423.978484","236290.461729","237056.952486","237823.946577","238590.479073","239356.935822","240123.507582","240890.797552","241640.378082","244718.246753","Mapping"
"Blocked","Female","ball","6","F_park.wav","None","717.95149258","202","235541.195319","242407.10041","243173.699378","243939.917135","244707.584297","245474.212636","246223.606116","232423.978484","236290.461729","237056.952486","237823.946577","238590.479073","239356.935822","240123.507582","240890.797552","241640.378082","245484.62157","Mapping"
"Blocked","Female","ball","6","F_romp.wav","None","733.129423303","202","235541.195319","242407.10041","243173.699378","243939.917135","244707.584297","245474.212636","246223.606116","246989.83624","236290.461729","237056.952486","237823.946577","238590.479073","239356.935822","240123.507582","240890.797552","241640.378082","246233.485127","Mapping"
"Blocked","Female","cave","11","F_ball.wav","None","731.647865329","202","250124.008134","242407.10041","243173.699378","243939.917135","244707.584297","245474.212636","246223.606116","246989.83624","236290.461729","237056.952486","237823.946577","238590.479073","239356.935822","240123.507582","240890.797552","241640.378082","246999.069698","Mapping"
"Blocked","Female","cave","11","F_cave.wav","space","567.293865725","202","250124.008134","242407.10041","243173.699378","243939.917135","244707.584297","245474.212636","246223.606116","246989.83624","250873.251046","237056.952486","237823.946577","238590.479073","239356.935822","240123.507582","240890.797552","241640.378082","250134.489724","Mapping"
"Blocked","Female","cave","11","F_gnash.wav","space","659.271037613","202","250124.008134","242407.10041","243173.699378","243939.917135","244707.584297","245474.212636","246223.606116","246989.83624","250873.251046","251640.339744","237823.946577","238590.479073","239356.935822","240123.507582","240890.797552","241640.378082","250882.510783","Mapping"
"Blocked","Female","cave","11","F_priest.wav","None","728.413604486","202","250124.008134","242407.10041","243173.699378","243939.917135","244707.584297","245474.212636","246223.606116","246989.83624","250873.251046","251640.339744","252406.785362","238590.479073","239356.935822","240123.507582","240890.797552","241640.378082","251650.338715","Mapping"
"Blocked","Female","cave","11","F_cave.wav","None","726.236406814","202","250124.008134","242407.10041","243173.699378","243939.917135","244707.584297","245474.212636","246223.606116","246989.83624","250873.251046","251640.339744","252406.785362","253174.038541","239356.935822","240123.507582","240890.797552","241640.378082","252416.567912","Mapping"
"Blocked","Female","cave","11","F_cad.wav","None","722.524473377","202","250124.008134","242407.10041","243173.699378","243939.917135","244707.584297","245474.212636","246223.606116","246989.83624","250873.251046","251640.339744","252406.785362","253174.038541","253940.575365","240123.507582","240890.797552","241640.378082","253184.432944","Mapping"
"Blocked","Female","cave","11","F_reek.wav","space","0.0336998787243","202","250124.008134","242407.10041","243173.699378","243939.917135","244707.584297","245474.212636","246223.606116","246989.83624","250873.251046","251640.339744","252406.785362","253174.038541","253940.575365","254690.117557","240890.797552","241640.378082","253951.198247","Mapping"
"Blocked","Female","cave","11","F_cave.wav","None","705.891264404","202","250124.008134","242407.10041","243173.699378","243939.917135","244707.584297","245474.212636","246223.606116","246989.83624","250873.251046","251640.339744","252406.785362","253174.038541","253940.575365","254690.117557","255456.357884","241640.378082","254727.98138","Mapping"
"Blocked","Female","cave","11","F_dime.wav","space","518.173973614","202","250124.008134","242407.10041","243173.699378","243939.917135","244707.584297","245474.212636","246223.606116","246989.83624","250873.251046","251640.339744","252406.785362","253174.038541","253940.575365","254690.117557","255456.357884","256223.516765","255471.527776","Mapping"
"Blocked","Female","cave","11","F_romp.wav","None","728.535418727","202","250124.008134","256990.095946","243173.699378","243939.917135","244707.584297","245474.212636","246223.606116","246989.83624","250873.251046","251640.339744","252406.785362","253174.038541","253940.575365","254690.117557","255456.357884","256223.516765","256232.660871","Mapping"
"Blocked","Female","cave","11","F_tile.wav","None","725.623934705","202","250124.008134","256990.095946","257757.166094","243939.917135","244707.584297","245474.212636","246223.606116","246989.83624","250873.251046","251640.339744","252406.785362","253174.038541","253940.575365","254690.117557","255456.357884","256223.516765","256999.694228","Mapping"
"Blocked","Female","cave","11","F_depth.wav","None","722.018047677","202","250124.008134","256990.095946","257757.166094","258523.221226","244707.584297","245474.212636","246223.606116","246989.83624","250873.251046","251640.339744","252406.785362","253174.038541","253940.575365","254690.117557","255456.357884","256223.516765","257767.298318","Mapping"
"Blocked","Female","cave","11","F_ball.wav","None","721.011379738","202","250124.008134","256990.095946","257757.166094","258523.221226","259273.347137","245474.212636","246223.606116","246989.83624","250873.251046","251640.339744","252406.785362","253174.038541","253940.575365","254690.117557","255456.357884","256223.516765","258532.404907","Mapping"
"Blocked","Female","cave","11","F_cave.wav","None","734.736814768","202","250124.008134","256990.095946","257757.166094","258523.221226","259273.347137","260040.106257","246223.606116","246989.83624","250873.251046","251640.339744","252406.785362","253174.038541","253940.575365","254690.117557","255456.357884","256223.516765","259282.676438","Mapping"
"Blocked","Female","cave","11","F_dime.wav","space","371.919900644","202","250124.008134","256990.095946","257757.166094","258523.221226","259273.347137","260040.106257","260806.732432","246989.83624","250873.251046","251640.339744","252406.785362","253174.038541","253940.575365","254690.117557","255456.357884","256223.516765","260049.685679","Mapping"
"Blocked","Female","cave","11","F_cad.wav","None","728.672691628","202","250124.008134","256990.095946","257757.166094","258523.221226","259273.347137","260040.106257","260806.732432","261573.48846","250873.251046","251640.339744","252406.785362","253174.038541","253940.575365","254690.117557","255456.357884","256223.516765","260815.910238","Mapping"
"Blocked","Female","done","24","F_greet.wav","None","725.773265361","202","264689.877329","256990.095946","257757.166094","258523.221226","259273.347137","260040.106257","260806.732432","261573.48846","250873.251046","251640.339744","252406.785362","253174.038541","253940.575365","254690.117557","255456.357884","256223.516765","261582.936175","Mapping"
"Blocked","Female","done","24","F_bluff.wav","None","720.617183908","202","264689.877329","256990.095946","257757.166094","258523.221226","259273.347137","260040.106257","260806.732432","261573.48846","265439.961193","251640.339744","252406.785362","253174.038541","253940.575365","254690.117557","255456.357884","256223.516765","264699.042151","Mapping"
"Blocked","Female","done","24","F_depth.wav","None","734.209674462","202","264689.877329","256990.095946","257757.166094","258523.221226","259273.347137","260040.106257","260806.732432","261573.48846","265439.961193","266206.716293","252406.785362","253174.038541","253940.575365","254690.117557","255456.357884","256223.516765","265449.487746","Mapping"
"Blocked","Female","done","24","F_done.wav","None","731.440410112","202","264689.877329","256990.095946","257757.166094","258523.221226","259273.347137","260040.106257","260806.732432","261573.48846","265439.961193","266206.716293","266973.365656","253174.038541","253940.575365","254690.117557","255456.357884","256223.516765","266216.411655","Mapping"
"Blocked","Female","done","24","F_priest.wav","space","350.897668927","202","264689.877329","256990.095946","257757.166094","258523.221226","259273.347137","260040.106257","260806.732432","261573.48846","265439.961193","266206.716293","266973.365656","267739.963079","253940.575365","254690.117557","255456.357884","256223.516765","266982.604679","Mapping"
"Blocked","Female","done","24","F_cad.wav","None","725.977010499","202","264689.877329","256990.095946","257757.166094","258523.221226","259273.347137","260040.106257","260806.732432","261573.48846","265439.961193","266206.716293","266973.365656","267739.963079","268506.795163","254690.117557","255456.357884","256223.516765","267749.501381","Mapping"
"Blocked","Female","done","24","F_done.wav","None","722.689262693","202","264689.877329","256990.095946","257757.166094","258523.221226","259273.347137","260040.106257","260806.732432","261573.48846","265439.961193","266206.716293","266973.365656","267739.963079","268506.795163","269273.684136","255456.357884","256223.516765","268516.844838","Mapping"
"Blocked","Female","done","24","F_cad.wav","space","385.65368335","202","264689.877329","256990.095946","257757.166094","258523.221226","259273.347137","260040.106257","260806.732432","261573.48846","265439.961193","266206.716293","266973.365656","267739.963079","268506.795163","269273.684136","270023.196956","256223.516765","269283.771839","Mapping"
"Blocked","Female","done","24","F_done.wav","None","734.119086715","202","264689.877329","256990.095946","257757.166094","258523.221226","259273.347137","260040.106257","260806.732432","261573.48846","265439.961193","266206.716293","266973.365656","267739.963079","268506.795163","269273.684136","270023.196956","270789.911864","270032.5513","Mapping"
"Blocked","Female","done","24","F_park.wav","space","421.937013381","202","264689.877329","271556.538039","257757.166094","258523.221226","259273.347137","260040.106257","260806.732432","261573.48846","265439.961193","266206.716293","266973.365656","267739.963079","268506.795163","269273.684136","270023.196956","270789.911864","270799.476446","Mapping"
"Blocked","Female","done","24","F_jaw.wav","None","728.216351985","202","264689.877329","271556.538039","272322.766309","258523.221226","259273.347137","260040.106257","260806.732432","261573.48846","265439.961193","266206.716293","266973.365656","267739.963079","268506.795163","269273.684136","270023.196956","270789.911864","271565.954527","Mapping"
"Blocked","Female","done","24","F_bluff.wav","None","726.804048808","202","264689.877329","271556.538039","272322.766309","273090.256932","259273.347137","260040.106257","260806.732432","261573.48846","265439.961193","266206.716293","266973.365656","267739.963079","268506.795163","269273.684136","270023.196956","270789.911864","272331.776852","Mapping"
"Blocked","Female","done","24","F_ball.wav","None","722.473150627","202","264689.877329","271556.538039","272322.766309","273090.256932","273856.864557","260040.106257","260806.732432","261573.48846","265439.961193","266206.716293","266973.365656","267739.963079","268506.795163","269273.684136","270023.196956","270789.911864","273100.344635","Mapping"
"Blocked","Female","done","24","F_gnash.wav","None","719.820753746","202","264689.877329","271556.538039","272322.766309","273090.256932","273856.864557","274606.105305","260806.732432","261573.48846","265439.961193","266206.716293","266973.365656","267739.963079","268506.795163","269273.684136","270023.196956","270789.911864","273867.32265","Mapping"
"Blocked","Female","done","24","F_done.wav","None","735.848292421","202","264689.877329","271556.538039","272322.766309","273090.256932","273856.864557","274606.105305","275372.532682","261573.48846","265439.961193","266206.716293","266973.365656","267739.963079","268506.795163","269273.684136","270023.196956","270789.911864","274615.432133","Mapping"
"Blocked","Female","done","24","F_lash.wav","space","471.070509112","202","264689.877329","271556.538039","272322.766309","273090.256932","273856.864557","274606.105305","275372.532682","276140.01032","265439.961193","266206.716293","266973.365656","267739.963079","268506.795163","269273.684136","270023.196956","270789.911864","275382.259271","Mapping"
"Blocked","Female","done","23","F_depth.wav","None","729.078326866","202","279273.582418","271556.538039","272322.766309","273090.256932","273856.864557","274606.105305","275372.532682","276140.01032","265439.961193","266206.716293","266973.365656","267739.963079","268506.795163","269273.684136","270023.196956","270789.911864","276149.501628","Mapping"
"Blocked","Female","done","23","F_knife.wav","None","720.294097915","202","279273.582418","271556.538039","272322.766309","273090.256932","273856.864557","274606.105305","275372.532682","276140.01032","280022.940033","266206.716293","266973.365656","267739.963079","268506.795163","269273.684136","270023.196956","270789.911864","279283.413507","Mapping"
"Blocked","Female","done","23","F_done.wav","None","735.296727432","202","279273.582418","271556.538039","272322.766309","273090.256932","273856.864557","274606.105305","275372.532682","276140.01032","280022.940033","280789.723887","266973.365656","267739.963079","268506.795163","269273.684136","270023.196956","270789.911864","280032.580672","Mapping"
"Blocked","Female","done","23","F_cad.wav","space","533.926348142","202","279273.582418","271556.538039","272322.766309","273090.256932","273856.864557","274606.105305","275372.532682","276140.01032","280022.940033","280789.723887","281556.383144","267739.963079","268506.795163","269273.684136","270023.196956","270789.911864","280799.342883","Mapping"
"Blocked","Female","done","23","F_cling.wav","None","729.374205618","202","279273.582418","271556.538039","272322.766309","273090.256932","273856.864557","274606.105305","275372.532682","276140.01032","280022.940033","280789.723887","281556.383144","282323.120003","268506.795163","269273.684136","270023.196956","270789.911864","281566.085308","Mapping"
"Blocked","Female","done","23","F_priest.wav","None","727.411883319","202","279273.582418","271556.538039","272322.766309","273090.256932","273856.864557","274606.105305","275372.532682","276140.01032","280022.940033","280789.723887","281556.383144","282323.120003","283089.647243","269273.684136","270023.196956","270789.911864","282332.228245","Mapping"
"Blocked","Female","done","23","F_jaw.wav","None","724.778655177","202","279273.582418","271556.538039","272322.766309","273090.256932","273856.864557","274606.105305","275372.532682","276140.01032","280022.940033","280789.723887","281556.383144","282323.120003","283089.647243","283856.709661","270023.196956","270789.911864","283099.083827","Mapping"
"Blocked","Female","done","23","F_done.wav","None","721.764834826","202","279273.582418","271556.538039","272322.766309","273090.256932","273856.864557","274606.105305","275372.532682","276140.01032","280022.940033","280789.723887","281556.383144","282323.120003","283089.647243","283856.709661","284623.766515","270789.911864","283866.367923","Mapping"
"Blocked","Female","done","23","F_greet.wav","space","403.199262436","202","279273.582418","271556.538039","272322.766309","273090.256932","273856.864557","274606.105305","275372.532682","276140.01032","280022.940033","280789.723887","281556.383144","282323.120003","283089.647243","283856.709661","284623.766515","285372.521552","284633.973868","Mapping"
"Blocked","Female","done","23","F_cave.wav","None","734.166390214","202","279273.582418","286139.596956","272322.766309","273090.256932","273856.864557","274606.105305","275372.532682","276140.01032","280022.940033","280789.723887","281556.383144","282323.120003","283089.647243","283856.709661","284623.766515","285372.521552","285381.360195","Mapping"
"Blocked","Female","done","23","F_priest.wav","None","730.855145245","202","279273.582418","286139.596956","286906.188813","273090.256932","273856.864557","274606.105305","275372.532682","276140.01032","280022.940033","280789.723887","281556.383144","282323.120003","283089.647243","283856.709661","284623.766515","285372.521552","286149.054564","Mapping"
"Blocked","Female","done","23","F_done.wav","None","729.235696025","202","279273.582418","286139.596956","286906.188813","287672.618045","273856.864557","274606.105305","275372.532682","276140.01032","280022.940033","280789.723887","281556.383144","282323.120003","283089.647243","283856.709661","284623.766515","285372.521552","286915.440821","Mapping"
"Blocked","Female","done","23","F_cling.wav","space","299.172374262","202","279273.582418","286139.596956","286906.188813","287672.618045","288439.967994","274606.105305","275372.532682","276140.01032","280022.940033","280789.723887","281556.383144","282323.120003","283089.647243","283856.709661","284623.766515","285372.521552","287681.930032","Mapping"
"Blocked","Female","done","23","F_done.wav","None","722.405132522","202","279273.582418","286139.596956","286906.188813","287672.618045","288439.967994","289206.583658","275372.532682","276140.01032","280022.940033","280789.723887","281556.383144","282323.120003","283089.647243","283856.709661","284623.766515","285372.521552","288449.784553","Mapping"
"Blocked","Female","done","23","F_cave.wav","space","564.417009102","202","279273.582418","286139.596956","286906.188813","287672.618045","288439.967994","289206.583658","289956.145018","276140.01032","280022.940033","280789.723887","281556.383144","282323.120003","283089.647243","283856.709661","284623.766515","285372.521552","289216.676308","Mapping"
"Blocked","Female","done","23","F_ball.wav","None","734.141656358","202","279273.582418","286139.596956","286906.188813","287672.618045","288439.967994","289206.583658","289956.145018","290722.983905","280022.940033","280789.723887","281556.383144","282323.120003","283089.647243","283856.709661","284623.766515","285372.521552","289965.575419","Mapping"
"Blocked","Female","cave","12","F_greet.wav","None","731.453086213","202","293856.304954","286139.596956","286906.188813","287672.618045","288439.967994","289206.583658","289956.145018","290722.983905","280022.940033","280789.723887","281556.383144","282323.120003","283089.647243","283856.709661","284623.766515","285372.521552","290732.560235","Mapping"
"Blocked","Female","cave","12","F_cad.wav","None","718.769564866","202","293856.304954","286139.596956","286906.188813","287672.618045","288439.967994","289206.583658","289956.145018","290722.983905","294605.635362","280789.723887","281556.383144","282323.120003","283089.647243","283856.709661","284623.766515","285372.521552","293866.678333","Mapping"
"Blocked","Female","cave","12","F_knife.wav","None","735.178623271","202","293856.304954","286139.596956","286906.188813","287672.618045","288439.967994","289206.583658","289956.145018","290722.983905","294605.635362","295372.895342","281556.383144","282323.120003","283089.647243","283856.709661","284623.766515","285372.521552","294614.512343","Mapping"
"Blocked","Female","cave","12","F_cave.wav","None","731.661159777","202","293856.304954","286139.596956","286906.188813","287672.618045","288439.967994","289206.583658","289956.145018","290722.983905","294605.635362","295372.895342","296139.4232","282323.120003","283089.647243","283856.709661","284623.766515","285372.521552","295382.328216","Mapping"
"Blocked","Female","cave","12","F_bluff.wav","space","376.010880423","202","293856.304954","286139.596956","286906.188813","287672.618045","288439.967994","289206.583658","289956.145018","290722.983905","294605.635362","295372.895342","296139.4232","296906.011966","283089.647243","283856.709661","284623.766515","285372.521552","296148.989019","Mapping"
"Blocked","Female","cave","12","F_cave.wav","None","726.216001382","202","293856.304954","286139.596956","286906.188813","287672.618045","288439.967994","289206.583658","289956.145018","290722.983905","294605.635362","295372.895342","296139.4232","296906.011966","297673.310902","283856.709661","284623.766515","285372.521552","296915.423507","Mapping"
"Blocked","Female","cave","12","F_cling.wav","space","585.670502372","202","293856.304954","286139.596956","286906.188813","287672.618045","288439.967994","289206.583658","289956.145018","290722.983905","294605.635362","295372.895342","296139.4232","296906.011966","297673.310902","298439.882353","284623.766515","285372.521552","297683.300906","Mapping"
"Blocked","Female","cave","12","F_done.wav","None","718.950740362","202","293856.304954","286139.596956","286906.188813","287672.618045","288439.967994","289206.583658","289956.145018","290722.983905","294605.635362","295372.895342","296139.4232","296906.011966","297673.310902","298439.882353","299188.892149","285372.521552","298449.967274","Mapping"
"Blocked","Female","cave","12","F_greet.wav","None","734.893256407","202","293856.304954","286139.596956","286906.188813","287672.618045","288439.967994","289206.583658","289956.145018","290722.983905","294605.635362","295372.895342","296139.4232","296906.011966","297673.310902","298439.882353","299188.892149","299955.954568","299198.518875","Mapping"
"Blocked","Female","cave","12","F_ball.wav","None","731.680328515","202","293856.304954","300722.784179","286906.188813","287672.618045","288439.967994","289206.583658","289956.145018","290722.983905","294605.635362","295372.895342","296139.4232","296906.011966","297673.310902","298439.882353","299188.892149","299955.954568","299965.965905","Mapping"
"Blocked","Female","cave","12","F_cad.wav","None","729.911239466","202","293856.304954","300722.784179","301489.330587","287672.618045","288439.967994","289206.583658","289956.145018","290722.983905","294605.635362","295372.895342","296139.4232","296906.011966","297673.310902","298439.882353","299188.892149","299955.954568","300732.337012","Mapping"
"Blocked","Female","cave","12","F_cave.wav","None","727.739297738","202","293856.304954","300722.784179","301489.330587","302256.045805","288439.967994","289206.583658","289956.145018","290722.983905","294605.635362","295372.895342","296139.4232","296906.011966","297673.310902","298439.882353","299188.892149","299955.954568","301498.837354","Mapping"
"Blocked","Female","cave","12","F_reek.wav","space","579.405107479","202","293856.304954","300722.784179","301489.330587","302256.045805","303022.962294","289206.583658","289956.145018","290722.983905","294605.635362","295372.895342","296139.4232","296906.011966","297673.310902","298439.882353","299188.892149","299955.954568","302265.471877","Mapping"
"Blocked","Female","cave","12","F_jolt.wav","None","721.306021797","202","293856.304954","300722.784179","301489.330587","302256.045805","303022.962294","303789.638864","289956.145018","290722.983905","294605.635362","295372.895342","296139.4232","296906.011966","297673.310902","298439.882353","299188.892149","299955.954568","303032.926327","Mapping"
"Blocked","Female","cave","12","F_cave.wav","None","719.02308689","202","293856.304954","300722.784179","301489.330587","302256.045805","303022.962294","303789.638864","304539.255257","290722.983905","294605.635362","295372.895342","296139.4232","296906.011966","297673.310902","298439.882353","299188.892149","299955.954568","303799.520658","Mapping"
"Blocked","Female","cave","12","F_lash.wav","space","504.11184897","202","293856.304954","300722.784179","301489.330587","302256.045805","303022.962294","303789.638864","304539.255257","305305.669958","294605.635362","295372.895342","296139.4232","296906.011966","297673.310902","298439.882353","299188.892149","299955.954568","304548.71874","Mapping"
"Blocked","Female","ball","3","F_cad.wav","None","731.30004548","202","308439.688193","300722.784179","301489.330587","302256.045805","303022.962294","303789.638864","304539.255257","305305.669958","294605.635362","295372.895342","296139.4232","296906.011966","297673.310902","298439.882353","299188.892149","299955.954568","305314.706473","Mapping"
"Blocked","Female","ball","3","F_ball.wav","None","720.203200994","202","308439.688193","300722.784179","301489.330587","302256.045805","303022.962294","303789.638864","304539.255257","305305.669958","309188.752093","295372.895342","296139.4232","296906.011966","297673.310902","298439.882353","299188.892149","299955.954568","308449.409526","Mapping"
"Blocked","Female","ball","3","F_priest.wav","space","463.043754501","202","308439.688193","300722.784179","301489.330587","302256.045805","303022.962294","303789.638864","304539.255257","305305.669958","309188.752093","309955.827188","296139.4232","296906.011966","297673.310902","298439.882353","299188.892149","299955.954568","309197.686271","Mapping"
"Blocked","Female","ball","3","F_ball.wav","None","731.795959292","202","308439.688193","300722.784179","301489.330587","302256.045805","303022.962294","303789.638864","304539.255257","305305.669958","309188.752093","309955.827188","310722.182219","296906.011966","297673.310902","298439.882353","299188.892149","299955.954568","309965.28356","Mapping"
"Blocked","Female","ball","3","F_jaw.wav","space","329.317997931","202","308439.688193","300722.784179","301489.330587","302256.045805","303022.962294","303789.638864","304539.255257","305305.669958","309188.752093","309955.827188","310722.182219","311489.21001","297673.310902","298439.882353","299188.892149","299955.954568","310731.407019","Mapping"
"Blocked","Female","ball","3","F_cave.wav","None","725.822423899","202","308439.688193","300722.784179","301489.330587","302256.045805","303022.962294","303789.638864","304539.255257","305305.669958","309188.752093","309955.827188","310722.182219","311489.21001","312256.064355","298439.882353","299188.892149","299955.954568","311498.632063","Mapping"
"Blocked","Female","ball","3","F_ball.wav","None","723.051613683","202","308439.688193","300722.784179","301489.330587","302256.045805","303022.962294","303789.638864","304539.255257","305305.669958","309188.752093","309955.827188","310722.182219","311489.21001","312256.064355","313023.025056","299188.892149","299955.954568","312266.051268","Mapping"
"Blocked","Female","ball","3","F_priest.wav","space","363.52677579","202","308439.688193","300722.784179","301489.330587","302256.045805","303022.962294","303789.638864","304539.255257","305305.669958","309188.752093","309955.827188","310722.182219","311489.21001","312256.064355","313023.025056","313772.049073","299955.954568","313033.150169","Mapping"
"Blocked","Female","ball","3","F_park.wav","None","735.457497496","202","308439.688193","300722.784179","301489.330587","302256.045805","303022.962294","303789.638864","304539.255257","305305.669958","309188.752093","309955.827188","310722.182219","311489.21001","312256.064355","313023.025056","313772.049073","314538.762745","313781.360752","Mapping"
"Blocked","Female","ball","3","F_knife.wav","None","733.434886424","202","308439.688193","315305.81898","301489.330587","302256.045805","303022.962294","303789.638864","304539.255257","305305.669958","309188.752093","309955.827188","310722.182219","311489.21001","312256.064355","313023.025056","313772.049073","314538.762745","314547.725057","Mapping"
"Blocked","Female","ball","3","F_greet.wav","None","729.453663131","202","308439.688193","315305.81898","316072.399088","302256.045805","303022.962294","303789.638864","304539.255257","305305.669958","309188.752093","309955.827188","310722.182219","311489.21001","312256.064355","313023.025056","313772.049073","314538.762745","315316.224204","Mapping"
"Blocked","Female","ball","3","F_jolt.wav","None","728.100721208","202","308439.688193","315305.81898","316072.399088","316839.063292","303022.962294","303789.638864","304539.255257","305305.669958","309188.752093","309955.827188","310722.182219","311489.21001","312256.064355","313023.025056","313772.049073","314538.762745","316081.984694","Mapping"
"Blocked","Female","ball","3","F_ball.wav","None","726.1615869","202","308439.688193","315305.81898","316072.399088","316839.063292","317606.418188","303789.638864","304539.255257","305305.669958","309188.752093","309955.827188","310722.182219","311489.21001","312256.064355","313023.025056","313772.049073","314538.762745","316848.63684","Mapping"
"Blocked","Female","ball","3","F_cave.wav","space","500.278101293","202","308439.688193","315305.81898","316072.399088","316839.063292","317606.418188","318372.468374","304539.255257","305305.669958","309188.752093","309955.827188","310722.182219","311489.21001","312256.064355","313023.025056","313772.049073","314538.762745","317616.302765","Mapping"
"Blocked","Female","ball","3","F_bluff.wav","None","714.417333734","202","308439.688193","315305.81898","316072.399088","316839.063292","317606.418188","318372.468374","319122.149694","305305.669958","309188.752093","309955.827188","310722.182219","311489.21001","312256.064355","313023.025056","313772.049073","314538.762745","318388.112229","Mapping"
"Blocked","Female","ball","3","F_dime.wav","None","735.516549578","202","308439.688193","315305.81898","316072.399088","316839.063292","317606.418188","318372.468374","319122.149694","319889.030009","309188.752093","309955.827188","310722.182219","311489.21001","312256.064355","313023.025056","313772.049073","314538.762745","319131.612558","Mapping"
"Blocked","Female","tile","15","F_done.wav","None","733.530420942","202","323022.655594","315305.81898","316072.399088","316839.063292","317606.418188","318372.468374","319122.149694","319889.030009","309188.752093","309955.827188","310722.182219","311489.21001","312256.064355","313023.025056","313772.049073","314538.762745","319898.474941","Mapping"
"Blocked","Female","tile","15","F_greet.wav","None","720.21154867","202","323022.655594","315305.81898","316072.399088","316839.063292","317606.418188","318372.468374","319122.149694","319889.030009","323771.92695","309955.827188","310722.182219","311489.21001","312256.064355","313023.025056","313772.049073","314538.762745","323032.463495","Mapping"
"Blocked","Female","tile","15","F_park.wav","None","736.256401045","202","323022.655594","315305.81898","316072.399088","316839.063292","317606.418188","318372.468374","319122.149694","319889.030009","323771.92695","324538.983803","310722.182219","311489.21001","312256.064355","313023.025056","313772.049073","314538.762745","323780.921417","Mapping"
"Blocked","Female","tile","15","F_depth.wav","None","733.170234165","202","323022.655594","315305.81898","316072.399088","316839.063292","317606.418188","318372.468374","319122.149694","319889.030009","323771.92695","324538.983803","325305.586481","311489.21001","312256.064355","313023.025056","313772.049073","314538.762745","324548.486551","Mapping"
"Blocked","Female","tile","15","F_cling.wav","None","730.993654838","202","323022.655594","315305.81898","316072.399088","316839.063292","317606.418188","318372.468374","319122.149694","319889.030009","323771.92695","324538.983803","325305.586481","326072.3422","312256.064355","313023.025056","313772.049073","314538.762745","325315.401803","Mapping"
"Blocked","Female","tile","15","F_tile.wav","None","729.084819503","202","323022.655594","315305.81898","316072.399088","316839.063292","317606.418188","318372.468374","319122.149694","319889.030009","323771.92695","324538.983803","325305.586481","326072.3422","326838.87315","313023.025056","313772.049073","314538.762745","326081.857933","Mapping"
"Blocked","Female","tile","15","F_knife.wav","space","563.927897099","202","323022.655594","315305.81898","316072.399088","316839.063292","317606.418188","318372.468374","319122.149694","319889.030009","323771.92695","324538.983803","325305.586481","326072.3422","326838.87315","327606.007915","313772.049073","314538.762745","326848.485036","Mapping"
"Blocked","Female","tile","15","F_cad.wav","None","723.132617062","202","323022.655594","315305.81898","316072.399088","316839.063292","317606.418188","318372.468374","319122.149694","319889.030009","323771.92695","324538.983803","325305.586481","326072.3422","326838.87315","327606.007915","328372.490944","314538.762745","327615.781189","Mapping"
"Blocked","Female","tile","15","F_jolt.wav","None","720.770533815","202","323022.655594","315305.81898","316072.399088","316839.063292","317606.418188","318372.468374","319122.149694","319889.030009","323771.92695","324538.983803","325305.586481","326072.3422","326838.87315","327606.007915","328372.490944","329139.364767","328382.79043","Mapping"
"Blocked","Female","tile","15","F_depth.wav","None","718.988768665","202","323022.655594","329888.776178","316072.399088","316839.063292","317606.418188","318372.468374","319122.149694","319889.030009","323771.92695","324538.983803","325305.586481","326072.3422","326838.87315","327606.007915","328372.490944","329139.364767","329149.281188","Mapping"
"Blocked","Female","tile","15","F_tile.wav","None","735.076905288","202","323022.655594","329888.776178","330655.084523","316839.063292","317606.418188","318372.468374","319122.149694","319889.030009","323771.92695","324538.983803","325305.586481","326072.3422","326838.87315","327606.007915","328372.490944","329139.364767","329898.382499","Mapping"
"Blocked","Female","tile","15","F_cling.wav","space","484.023011143","202","323022.655594","329888.776178","330655.084523","331421.764804","317606.418188","318372.468374","319122.149694","319889.030009","323771.92695","324538.983803","325305.586481","326072.3422","326838.87315","327606.007915","328372.490944","329139.364767","330664.34086","Mapping"
"Blocked","Female","tile","15","F_tile.wav","None","730.312237106","202","323022.655594","329888.776178","330655.084523","331421.764804","332188.766315","318372.468374","319122.149694","319889.030009","323771.92695","324538.983803","325305.586481","326072.3422","326838.87315","327606.007915","328372.490944","329139.364767","331430.970127","Mapping"
"Blocked","Female","tile","15","F_cling.wav","space","334.304961642","202","323022.655594","329888.776178","330655.084523","331421.764804","332188.766315","332955.690225","319122.149694","319889.030009","323771.92695","324538.983803","325305.586481","326072.3422","326838.87315","327606.007915","328372.490944","329139.364767","332198.060062","Mapping"
"Blocked","Female","tile","15","F_tile.wav","None","723.593903476","202","323022.655594","329888.776178","330655.084523","331421.764804","332188.766315","332955.690225","333722.502831","319889.030009","323771.92695","324538.983803","325305.586481","326072.3422","326838.87315","327606.007915","328372.490944","329139.364767","332965.305202","Mapping"
"Blocked","Female","tile","15","F_cling.wav","space","439.632232295","202","323022.655594","329888.776178","330655.084523","331421.764804","332188.766315","332955.690225","333722.502831","334471.76182","323771.92695","324538.983803","325305.586481","326072.3422","326838.87315","327606.007915","328372.490944","329139.364767","333732.672465","Mapping"
"Blocked","Female","done","22","F_romp.wav","None","735.951247096","202","337606.074697","329888.776178","330655.084523","331421.764804","332188.766315","332955.690225","333722.502831","334471.76182","323771.92695","324538.983803","325305.586481","326072.3422","326838.87315","327606.007915","328372.490944","329139.364767","334480.753814","Mapping"
"Blocked","Female","done","22","F_cling.wav","None","719.486228344","202","337606.074697","329888.776178","330655.084523","331421.764804","332188.766315","332955.690225","333722.502831","334471.76182","338355.19023","324538.983803","325305.586481","326072.3422","326838.87315","327606.007915","328372.490944","329139.364767","337615.963602","Mapping"
"Blocked","Female","done","22","F_done.wav","space","591.667225755","202","337606.074697","329888.776178","330655.084523","331421.764804","332188.766315","332955.690225","333722.502831","334471.76182","338355.19023","339121.684079","325305.586481","326072.3422","326838.87315","327606.007915","328372.490944","329139.364767","338364.552303","Mapping"
"Blocked","Female","done","22","F_reek.wav","space","697.304906301","202","337606.074697","329888.776178","330655.084523","331421.764804","332188.766315","332955.690225","333722.502831","334471.76182","338355.19023","339121.684079","339888.620355","326072.3422","326838.87315","327606.007915","328372.490944","329139.364767","339130.898986","Mapping"
"Blocked","Female","done","22","F_cave.wav","None","728.117416561","202","337606.074697","329888.776178","330655.084523","331421.764804","332188.766315","332955.690225","333722.502831","334471.76182","338355.19023","339121.684079","339888.620355","340654.731138","326838.87315","327606.007915","328372.490944","329139.364767","339898.201941","Mapping"
"Blocked","Female","done","22","F_done.wav","None","726.992335287","202","337606.074697","329888.776178","330655.084523","331421.764804","332188.766315","332955.690225","333722.502831","334471.76182","338355.19023","339121.684079","339888.620355","340654.731138","341422.647803","327606.007915","328372.490944","329139.364767","340663.931205","Mapping"
"Blocked","Female","done","22","F_priest.wav","space","435.470761027","202","337606.074697","329888.776178","330655.084523","331421.764804","332188.766315","332955.690225","333722.502831","334471.76182","338355.19023","339121.684079","339888.620355","340654.731138","341422.647803","342188.997268","328372.490944","329139.364767","341432.677381","Mapping"
"Blocked","Female","done","22","F_jaw.wav","None","719.436142285","202","337606.074697","329888.776178","330655.084523","331421.764804","332188.766315","332955.690225","333722.502831","334471.76182","338355.19023","339121.684079","339888.620355","340654.731138","341422.647803","342188.997268","342938.428776","329139.364767","342199.110323","Mapping"
"Blocked","Female","done","22","F_park.wav","None","735.527679813","202","337606.074697","329888.776178","330655.084523","331421.764804","332188.766315","332955.690225","333722.502831","334471.76182","338355.19023","339121.684079","339888.620355","340654.731138","341422.647803","342188.997268","342938.428776","343705.022797","342947.777555","Mapping"
"Blocked","Female","done","22","F_done.wav","None","733.1813644","202","337606.074697","344472.007304","330655.084523","331421.764804","332188.766315","332955.690225","333722.502831","334471.76182","338355.19023","339121.684079","339888.620355","340654.731138","341422.647803","342188.997268","342938.428776","343705.022797","343714.646431","Mapping"
"Blocked","Female","done","22","F_cad.wav","space","403.03725568","202","337606.074697","344472.007304","345238.268036","331421.764804","332188.766315","332955.690225","333722.502831","334471.76182","338355.19023","339121.684079","339888.620355","340654.731138","341422.647803","342188.997268","342938.428776","343705.022797","344481.123276","Mapping"
"Blocked","Female","done","22","F_dime.wav","None","728.34342217","202","337606.074697","344472.007304","345238.268036","346005.182361","332188.766315","332955.690225","333722.502831","334471.76182","338355.19023","339121.684079","339888.620355","340654.731138","341422.647803","342188.997268","342938.428776","343705.022797","345247.057212","Mapping"
"Blocked","Female","done","22","F_depth.wav","space","380.678777393","202","337606.074697","344472.007304","345238.268036","346005.182361","346772.681332","332955.690225","333722.502831","334471.76182","338355.19023","339121.684079","339888.620355","340654.731138","341422.647803","342188.997268","342938.428776","343705.022797","346015.395279","Mapping"
"Blocked","Female","done","22","F_done.wav","None","720.666342447","202","337606.074697","344472.007304","345238.268036","346005.182361","346772.681332","347538.890124","333722.502831","334471.76182","338355.19023","339121.684079","339888.620355","340654.731138","341422.647803","342188.997268","342938.428776","343705.022797","346782.570237","Mapping"
"Blocked","Female","done","22","F_cad.wav","space","631.264583314","202","337606.074697","344472.007304","345238.268036","346005.182361","346772.681332","347538.890124","348287.999782","334471.76182","338355.19023","339121.684079","339888.620355","340654.731138","341422.647803","342188.997268","342938.428776","343705.022797","347548.766971","Mapping"
"Blocked","Female","done","22","F_reek.wav","None","734.269963236","202","337606.074697","344472.007304","345238.268036","346005.182361","346772.681332","347538.890124","348287.999782","349054.920909","338355.19023","339121.684079","339888.620355","340654.731138","341422.647803","342188.997268","342938.428776","343705.022797","348296.774736","Mapping"
"Blocked","Female","cave","7","F_bluff.wav","None","731.873561765","202","352188.945945","344472.007304","345238.268036","346005.182361","346772.681332","347538.890124","348287.999782","349054.920909","338355.19023","339121.684079","339888.620355","340654.731138","341422.647803","342188.997268","342938.428776","343705.022797","349064.009983","Mapping"
"Blocked","Female","cave","7","F_depth.wav","None","718.826452735","202","352188.945945","344472.007304","345238.268036","346005.182361","346772.681332","347538.890124","348287.999782","349054.920909","352937.942755","339121.684079","339888.620355","340654.731138","341422.647803","342188.997268","342938.428776","343705.022797","352199.144641","Mapping"
"Blocked","Female","cave","7","F_ball.wav","None","735.682575585","202","352188.945945","344472.007304","345238.268036","346005.182361","346772.681332","347538.890124","348287.999782","349054.920909","352937.942755","353705.191296","339888.620355","340654.731138","341422.647803","342188.997268","342938.428776","343705.022797","352946.965357","Mapping"
"Blocked","Female","cave","7","F_greet.wav","None","732.465937616","202","352188.945945","344472.007304","345238.268036","346005.182361","346772.681332","347538.890124","348287.999782","349054.920909","352937.942755","353705.191296","354471.203144","340654.731138","341422.647803","342188.997268","342938.428776","343705.022797","353714.849249","Mapping"
"Blocked","Female","cave","7","F_cave.wav","None","732.037423561","202","352188.945945","344472.007304","345238.268036","346005.182361","346772.681332","347538.890124","348287.999782","349054.920909","352937.942755","353705.191296","354471.203144","355237.840141","341422.647803","342188.997268","342938.428776","343705.022797","354480.025092","Mapping"
"Blocked","Female","cave","7","F_greet.wav","space","669.266916334","202","352188.945945","344472.007304","345238.268036","346005.182361","346772.681332","347538.890124","348287.999782","349054.920909","352937.942755","353705.191296","354471.203144","355237.840141","356004.923583","342188.997268","342938.428776","343705.022797","355246.651577","Mapping"
"Blocked","Female","cave","7","F_cave.wav","None","726.51620856","202","352188.945945","344472.007304","345238.268036","346005.182361","346772.681332","347538.890124","348287.999782","349054.920909","352937.942755","353705.191296","354471.203144","355237.840141","356004.923583","356771.271193","342938.428776","343705.022797","356014.831348","Mapping"
"Blocked","Female","cave","7","F_bluff.wav","space","511.426886876","202","352188.945945","344472.007304","345238.268036","346005.182361","346772.681332","347538.890124","348287.999782","349054.920909","352937.942755","353705.191296","354471.203144","355237.840141","356004.923583","356771.271193","357538.801391","343705.022797","356780.445908","Mapping"
"Blocked","Female","cave","7","F_cave.wav","None","720.567407023","202","352188.945945","344472.007304","345238.268036","346005.182361","346772.681332","347538.890124","348287.999782","349054.920909","352937.942755","353705.191296","354471.203144","355237.840141","356004.923583","356771.271193","357538.801391","358288.5767","357548.532927","Mapping"
"Blocked","Female","cave","7","F_lash.wav","space","481.843649258","202","352188.945945","359054.447565","345238.268036","346005.182361","346772.681332","347538.890124","348287.999782","349054.920909","352937.942755","353705.191296","354471.203144","355237.840141","356004.923583","356771.271193","357538.801391","358288.5767","358298.004318","Mapping"
"Blocked","Female","cave","7","F_lash.wav","None","732.991222882","202","352188.945945","359054.447565","359821.640454","346005.182361","346772.681332","347538.890124","348287.999782","349054.920909","352937.942755","353705.191296","354471.203144","355237.840141","356004.923583","356771.271193","357538.801391","358288.5767","359063.765736","Mapping"
"Blocked","Female","cave","7","F_jolt.wav","None","730.454765951","202","352188.945945","359054.447565","359821.640454","360588.285489","346772.681332","347538.890124","348287.999782","349054.920909","352937.942755","353705.191296","354471.203144","355237.840141","356004.923583","356771.271193","357538.801391","358288.5767","359830.925235","Mapping"
"Blocked","Female","cave","7","F_cave.wav","None","733.942857991","202","352188.945945","359054.447565","359821.640454","360588.285489","361354.482841","347538.890124","348287.999782","349054.920909","352937.942755","353705.191296","354471.203144","355237.840141","356004.923583","356771.271193","357538.801391","358288.5767","360592.248781","Mapping"
