"Condition","Talker","Target","Trial","current_stimulus","response_response","response_time_response","subject_nr","time_Audio1","time_Audio10","time_Audio11","time_Audio12","time_Audio13","time_Audio14","time_Audio15","time_Audio16","time_Audio2","time_Audio3","time_Audio4","time_Audio5","time_Audio6","time_Audio7","time_Audio8","time_Audio9","time_response","title"
"Mixed","Female","ball","10","F_greet.wav","NA","NA","411","59055.5703119","NA","NA","NA","NA","NA","NA","NA","NA","NA","NA","NA","NA","NA","NA","NA","NA","Mapping"
"Mixed","Female","ball","10","F_ball.wav","None","721.494318424","411","59055.5703119","NA","NA","NA","NA","NA","NA","NA","59822.2627389","NA","NA","NA","NA","NA","NA","NA","59067.0356231","Mapping"
"Mixed","Female","ball","10","M_lash.wav","space","583.525383355","411","59055.5703119","NA","NA","NA","NA","NA","NA","NA","59822.2627389","60590.1233908","NA","NA","NA","NA","NA","NA","59825.3076957","Mapping"
"Mixed","Female","ball","10","M_jolt.wav","None","728.863029825","411","59055.5703119","NA","NA","NA","NA","NA","NA","NA","59822.2627389","60590.1233908","61357.3939208","NA","NA","NA","NA","NA","60593.6581127","Mapping"
"Mixed","Female","ball","10","M_jolt.wav","None","727.705020783","411","59055.5703119","NA","NA","NA","NA","NA","NA","NA","59822.2627389","60590.1233908","61357.3939208","62124.520526","NA","NA","NA","NA","61361.3276661","Mapping"
"Mixed","Female","ball","10","F_ball.wav","None","727.537959801","411","59055.5703119","NA","NA","NA","NA","NA","NA","NA","59822.2627389","60590.1233908","61357.3939208","62124.520526","62891.9818541","NA","NA","NA","62128.4161116","Mapping"
"Mixed","Female","ball","10","F_greet.wav","space","384.332203769","411","59055.5703119","NA","NA","NA","NA","NA","NA","NA","59822.2627389","60590.1233908","61357.3939208","62124.520526","62891.9818541","63659.1862808","NA","NA","62895.4763131","Mapping"
"Mixed","Female","ball","10","F_jolt.wav","None","727.120006874","411","59055.5703119","NA","NA","NA","NA","NA","NA","NA","59822.2627389","60590.1233908","61357.3939208","62124.520526","62891.9818541","63659.1862808","64425.4361163","NA","63662.8000262","Mapping"
"Mixed","Female","ball","10","M_greet.wav","None","728.201396221","411","59055.5703119","NA","NA","NA","NA","NA","NA","NA","59822.2627389","60590.1233908","61357.3939208","62124.520526","62891.9818541","63659.1862808","64425.4361163","65192.8643928","64428.8278148","Mapping"
"Mixed","Female","ball","10","M_reek.wav","None","717.343934694","411","59055.5703119","65960.0769322","NA","NA","NA","NA","NA","NA","59822.2627389","60590.1233908","61357.3939208","62124.520526","62891.9818541","63659.1862808","64425.4361163","65192.8643928","65206.6616468","Mapping"
"Mixed","Female","ball","10","F_ball.wav","None","727.562898761","411","59055.5703119","65960.0769322","66727.2534153","NA","NA","NA","NA","NA","59822.2627389","60590.1233908","61357.3939208","62124.520526","62891.9818541","63659.1862808","64425.4361163","65192.8643928","65963.0816261","Mapping"
"Mixed","Female","ball","10","M_park.wav","space","347.503970703","411","59055.5703119","65960.0769322","66727.2534153","67494.6603584","NA","NA","NA","NA","59822.2627389","60590.1233908","61357.3939208","62124.520526","62891.9818541","63659.1862808","64425.4361163","65192.8643928","66730.3332266","Mapping"
"Mixed","Female","ball","10","M_knife.wav","None","726.557227701","411","59055.5703119","65960.0769322","66727.2534153","67494.6603584","68261.6147946","NA","NA","NA","59822.2627389","60590.1233908","61357.3939208","62124.520526","62891.9818541","63659.1862808","64425.4361163","65192.8643928","67497.364583","Mapping"
"Mixed","Female","ball","10","M_knife.wav","None","726.42922774","411","59055.5703119","65960.0769322","66727.2534153","67494.6603584","68261.6147946","69029.024442","NA","NA","59822.2627389","60590.1233908","61357.3939208","62124.520526","62891.9818541","63659.1862808","64425.4361163","65192.8643928","68264.7613101","Mapping"
"Mixed","Female","ball","10","F_ball.wav","None","726.045227855","411","59055.5703119","65960.0769322","66727.2534153","67494.6603584","68261.6147946","69029.024442","69796.1702772","NA","59822.2627389","60590.1233908","61357.3939208","62124.520526","62891.9818541","63659.1862808","64425.4361163","65192.8643928","69032.0429575","Mapping"
"Mixed","Female","ball","10","F_cling.wav","space","447.839414735","411","59055.5703119","65960.0769322","66727.2534153","67494.6603584","68261.6147946","69029.024442","69796.1702772","70546.4591785","59822.2627389","60590.1233908","61357.3939208","62124.520526","62891.9818541","63659.1862808","64425.4361163","65192.8643928","69807.9576915","Mapping"
"Mixed","Female","tile","34","M_knife.wav","space","372.650855165","411","73716.0558224","65960.0769322","66727.2534153","67494.6603584","68261.6147946","69029.024442","69796.1702772","70546.4591785","59822.2627389","60590.1233908","61357.3939208","62124.520526","62891.9818541","63659.1862808","64425.4361163","65192.8643928","70549.1330557","Mapping"
"Mixed","Female","tile","34","M_gnash.wav","None","729.374128264","411","73716.0558224","65960.0769322","66727.2534153","67494.6603584","68261.6147946","69029.024442","69796.1702772","70546.4591785","74483.5354791","60590.1233908","61357.3939208","62124.520526","62891.9818541","63659.1862808","64425.4361163","65192.8643928","73720.2434643","Mapping"
"Mixed","Female","tile","34","F_reek.wav","None","729.826635169","411","73716.0558224","65960.0769322","66727.2534153","67494.6603584","68261.6147946","69029.024442","69796.1702772","70546.4591785","74483.5354791","75250.60169","61357.3939208","62124.520526","62891.9818541","63659.1862808","64425.4361163","65192.8643928","74486.987572","Mapping"
"Mixed","Female","tile","34","F_tile.wav","None","729.624719737","411","73716.0558224","65960.0769322","66727.2534153","67494.6603584","68261.6147946","69029.024442","69796.1702772","70546.4591785","74483.5354791","75250.60169","76017.8502857","62124.520526","62891.9818541","63659.1862808","64425.4361163","65192.8643928","75254.0790222","Mapping"
"Mixed","Female","tile","34","M_reek.wav","space","519.029928554","411","73716.0558224","65960.0769322","66727.2534153","67494.6603584","68261.6147946","69029.024442","69796.1702772","70546.4591785","74483.5354791","75250.60169","76017.8502857","76785.0144496","62891.9818541","63659.1862808","64425.4361163","65192.8643928","76021.6950921","Mapping"
"Mixed","Female","tile","34","M_park.wav","None","729.115424116","411","73716.0558224","65960.0769322","66727.2534153","67494.6603584","68261.6147946","69029.024442","69796.1702772","70546.4591785","74483.5354791","75250.60169","76017.8502857","76785.0144496","77552.442726","63659.1862808","64425.4361163","65192.8643928","76788.7952559","Mapping"
"Mixed","Female","tile","34","M_depth.wav","None","729.101902993","411","73716.0558224","65960.0769322","66727.2534153","67494.6603584","68261.6147946","69029.024442","69796.1702772","70546.4591785","74483.5354791","75250.60169","76017.8502857","76785.0144496","77552.442726","78319.0236788","64425.4361163","65192.8643928","77556.1336921","Mapping"
"Mixed","Female","tile","34","F_greet.wav","None","730.349451914","411","73716.0558224","65960.0769322","66727.2534153","67494.6603584","68261.6147946","69029.024442","69796.1702772","70546.4591785","74483.5354791","75250.60169","76017.8502857","76785.0144496","77552.442726","78319.0236788","79086.2518426","65192.8643928","78322.0298751","Mapping"
"Mixed","Female","tile","34","M_cad.wav","None","730.071517724","411","73716.0558224","65960.0769322","66727.2534153","67494.6603584","68261.6147946","69029.024442","69796.1702772","70546.4591785","74483.5354791","75250.60169","76017.8502857","76785.0144496","77552.442726","78319.0236788","79086.2518426","79853.4349361","79089.0831657","Mapping"
"Mixed","Female","tile","34","F_tile.wav","None","721.040609641","411","73716.0558224","80620.5062549","66727.2534153","67494.6603584","68261.6147946","69029.024442","69796.1702772","70546.4591785","74483.5354791","75250.60169","76017.8502857","76785.0144496","77552.442726","78319.0236788","79086.2518426","79853.4349361","79865.0931485","Mapping"
"Mixed","Female","tile","34","F_park.wav","space","467.222094357","411","73716.0558224","80620.5062549","81387.8380806","67494.6603584","68261.6147946","69029.024442","69796.1702772","70546.4591785","74483.5354791","75250.60169","76017.8502857","76785.0144496","77552.442726","78319.0236788","79086.2518426","79853.4349361","80623.5803572","Mapping"
"Mixed","Female","tile","34","F_tile.wav","None","728.959780969","411","73716.0558224","80620.5062549","81387.8380806","82155.1669017","68261.6147946","69029.024442","69796.1702772","70546.4591785","74483.5354791","75250.60169","76017.8502857","76785.0144496","77552.442726","78319.0236788","79086.2518426","79853.4349361","81390.7992065","Mapping"
"Mixed","Female","tile","34","M_reek.wav","space","574.703902436","411","73716.0558224","80620.5062549","81387.8380806","82155.1669017","82922.3433848","69029.024442","69796.1702772","70546.4591785","74483.5354791","75250.60169","76017.8502857","76785.0144496","77552.442726","78319.0236788","79086.2518426","79853.4349361","82158.1115018","Mapping"
"Mixed","Female","tile","34","M_lash.wav","None","728.076100485","411","73716.0558224","80620.5062549","81387.8380806","82155.1669017","82922.3433848","83689.6280369","69796.1702772","70546.4591785","74483.5354791","75250.60169","76017.8502857","76785.0144496","77552.442726","78319.0236788","79086.2518426","79853.4349361","82925.414182","Mapping"
"Mixed","Female","tile","34","F_tile.wav","None","728.24646663","411","73716.0558224","80620.5062549","81387.8380806","82155.1669017","82922.3433848","83689.6280369","84456.844182","70546.4591785","74483.5354791","75250.60169","76017.8502857","76785.0144496","77552.442726","78319.0236788","79086.2518426","79853.4349361","83692.4124868","Mapping"
"Mixed","Female","tile","34","F_dime.wav","space","455.227356176","411","73716.0558224","80620.5062549","81387.8380806","82155.1669017","82922.3433848","83689.6280369","84456.844182","85224.615895","74483.5354791","75250.60169","76017.8502857","76785.0144496","77552.442726","78319.0236788","79086.2518426","79853.4349361","84459.5568197","Mapping"
"Mixed","Male","ball","2","F_jaw.wav","None","726.501941333","411","88359.9142581","80620.5062549","81387.8380806","82155.1669017","82922.3433848","83689.6280369","84456.844182","85224.615895","74483.5354791","75250.60169","76017.8502857","76785.0144496","77552.442726","78319.0236788","79086.2518426","79853.4349361","85228.1587296","Mapping"
"Mixed","Male","ball","2","F_depth.wav","None","729.24702971","411","88359.9142581","80620.5062549","81387.8380806","82155.1669017","82922.3433848","83689.6280369","84456.844182","85224.615895","89127.28845","75250.60169","76017.8502857","76785.0144496","77552.442726","78319.0236788","79086.2518426","79853.4349361","88363.6611114","Mapping"
"Mixed","Male","ball","2","M_ball.wav","None","729.205564933","411","88359.9142581","80620.5062549","81387.8380806","82155.1669017","82922.3433848","83689.6280369","84456.844182","85224.615895","89127.28845","89894.0235436","76017.8502857","76785.0144496","77552.442726","78319.0236788","79086.2518426","79853.4349361","89130.6816509","Mapping"
"Mixed","Male","ball","2","M_dime.wav","space","327.540183274","411","88359.9142581","80620.5062549","81387.8380806","82155.1669017","82922.3433848","83689.6280369","84456.844182","85224.615895","89127.28845","89894.0235436","90661.4545243","76785.0144496","77552.442726","78319.0236788","79086.2518426","79853.4349361","89897.2656083","Mapping"
"Mixed","Male","ball","2","M_lash.wav","None","728.885865499","411","88359.9142581","80620.5062549","81387.8380806","82155.1669017","82922.3433848","83689.6280369","84456.844182","85224.615895","89127.28845","89894.0235436","90661.4545243","91428.4239839","77552.442726","78319.0236788","79086.2518426","79853.4349361","90665.2674809","Mapping"
"Mixed","Male","ball","2","M_romp.wav","None","729.631630533","411","88359.9142581","80620.5062549","81387.8380806","82155.1669017","82922.3433848","83689.6280369","84456.844182","85224.615895","89127.28845","89894.0235436","90661.4545243","91428.4239839","92195.6897065","78319.0236788","79086.2518426","79853.4349361","91431.4953821","Mapping"
"Mixed","Male","ball","2","F_lash.wav","None","729.412888815","411","88359.9142581","80620.5062549","81387.8380806","82155.1669017","82922.3433848","83689.6280369","84456.844182","85224.615895","89127.28845","89894.0235436","90661.4545243","91428.4239839","92195.6897065","92963.0200299","79086.2518426","79853.4349361","92198.7719215","Mapping"
"Mixed","Male","ball","2","F_cling.wav","None","729.64815635","411","88359.9142581","80620.5062549","81387.8380806","82155.1669017","82922.3433848","83689.6280369","84456.844182","85224.615895","89127.28845","89894.0235436","90661.4545243","91428.4239839","92195.6897065","92963.0200299","93730.2575083","79853.4349361","92965.8399351","Mapping"
"Mixed","Male","ball","2","M_ball.wav","None","728.888870193","411","88359.9142581","80620.5062549","81387.8380806","82155.1669017","82922.3433848","83689.6280369","84456.844182","85224.615895","89127.28845","89894.0235436","90661.4545243","91428.4239839","92195.6897065","92963.0200299","93730.2575083","94497.3654844","93733.7026903","Mapping"
"Mixed","Male","ball","2","M_dime.wav","space","407.331633478","411","88359.9142581","95264.6840895","81387.8380806","82155.1669017","82922.3433848","83689.6280369","84456.844182","85224.615895","89127.28845","89894.0235436","90661.4545243","91428.4239839","92195.6897065","92963.0200299","93730.2575083","94497.3654844","94500.4681313","Mapping"
"Mixed","Male","ball","2","F_cad.wav","None","729.442635285","411","88359.9142581","95264.6840895","96031.6403285","82155.1669017","82922.3433848","83689.6280369","84456.844182","85224.615895","89127.28845","89894.0235436","90661.4545243","91428.4239839","92195.6897065","92963.0200299","93730.2575083","94497.3654844","95267.7611965","Mapping"
"Mixed","Male","ball","2","M_ball.wav","None","729.562222104","411","88359.9142581","95264.6840895","96031.6403285","96799.1794782","82922.3433848","83689.6280369","84456.844182","85224.615895","89127.28845","89894.0235436","90661.4545243","91428.4239839","92195.6897065","92963.0200299","93730.2575083","94497.3654844","96034.6519332","Mapping"
"Mixed","Male","ball","2","F_greet.wav","space","537.521115486","411","88359.9142581","95264.6840895","96031.6403285","96799.1794782","97566.32952","83689.6280369","84456.844182","85224.615895","89127.28845","89894.0235436","90661.4545243","91428.4239839","92195.6897065","92963.0200299","93730.2575083","94497.3654844","96802.2571862","Mapping"
"Mixed","Male","ball","2","M_ball.wav","None","728.125677934","411","88359.9142581","95264.6840895","96031.6403285","96799.1794782","97566.32952","98333.5991486","84456.844182","85224.615895","89127.28845","89894.0235436","90661.4545243","91428.4239839","92195.6897065","92963.0200299","93730.2575083","94497.3654844","97569.2993595","Mapping"
"Mixed","Male","ball","2","F_romp.wav","space","395.247054948","411","88359.9142581","95264.6840895","96031.6403285","96799.1794782","97566.32952","98333.5991486","99100.6154815","85224.615895","89127.28845","89894.0235436","90661.4545243","91428.4239839","92195.6897065","92963.0200299","93730.2575083","94497.3654844","98336.5605749","Mapping"
"Mixed","Male","ball","2","F_greet.wav","None","727.296682878","411","88359.9142581","95264.6840895","96031.6403285","96799.1794782","97566.32952","98333.5991486","99100.6154815","99867.8439458","89127.28845","89894.0235436","90661.4545243","91428.4239839","92195.6897065","92963.0200299","93730.2575083","94497.3654844","99103.9473866","Mapping"
"Mixed","Female","ball","9","M_cling.wav","None","727.567405801","411","103004.323454","95264.6840895","96031.6403285","96799.1794782","97566.32952","98333.5991486","99100.6154815","99867.8439458","89127.28845","89894.0235436","90661.4545243","91428.4239839","92195.6897065","92963.0200299","93730.2575083","94497.3654844","99870.8408275","Mapping"
"Mixed","Female","ball","9","M_park.wav","None","728.915611969","411","103004.323454","95264.6840895","96031.6403285","96799.1794782","97566.32952","98333.5991486","99100.6154815","99867.8439458","103770.906811","89894.0235436","90661.4545243","91428.4239839","92195.6897065","92963.0200299","93730.2575083","94497.3654844","103007.547791","Mapping"
"Mixed","Female","ball","9","M_jolt.wav","None","729.54419394","411","103004.323454","95264.6840895","96031.6403285","96799.1794782","97566.32952","98333.5991486","99100.6154815","99867.8439458","103770.906811","104537.915031","90661.4545243","91428.4239839","92195.6897065","92963.0200299","93730.2575083","94497.3654844","103774.219185","Mapping"
"Mixed","Female","ball","9","F_priest.wav","None","730.082935562","411","103004.323454","95264.6840895","96031.6403285","96799.1794782","97566.32952","98333.5991486","99100.6154815","99867.8439458","103770.906811","104537.915031","105305.169336","91428.4239839","92195.6897065","92963.0200299","93730.2575083","94497.3654844","104541.042016","Mapping"
"Mixed","Female","ball","9","M_knife.wav","None","729.709752575","411","103004.323454","95264.6840895","96031.6403285","96799.1794782","97566.32952","98333.5991486","99100.6154815","99867.8439458","103770.906811","104537.915031","105305.169336","106072.456091","92195.6897065","92963.0200299","93730.2575083","94497.3654844","105308.599795","Mapping"
"Mixed","Female","ball","9","M_jolt.wav","None","729.857883986","411","103004.323454","95264.6840895","96031.6403285","96799.1794782","97566.32952","98333.5991486","99100.6154815","99867.8439458","103770.906811","104537.915031","105305.169336","106072.456091","106839.800236","92963.0200299","93730.2575083","94497.3654844","106075.795808","Mapping"
"Mixed","Female","ball","9","F_ball.wav","None","730.452813385","411","103004.323454","95264.6840895","96031.6403285","96799.1794782","97566.32952","98333.5991486","99100.6154815","99867.8439458","103770.906811","104537.915031","105305.169336","106072.456091","106839.800236","107606.922935","93730.2575083","94497.3654844","106842.53","Mapping"
"Mixed","Female","ball","9","M_lash.wav","space","411.954054624","411","103004.323454","95264.6840895","96031.6403285","96799.1794782","97566.32952","98333.5991486","99100.6154815","99867.8439458","103770.906811","104537.915031","105305.169336","106072.456091","106839.800236","107606.922935","108374.056751","94497.3654844","107609.845901","Mapping"
"Mixed","Female","ball","9","F_gnash.wav","None","730.08894495","411","103004.323454","95264.6840895","96031.6403285","96799.1794782","97566.32952","98333.5991486","99100.6154815","99867.8439458","103770.906811","104537.915031","105305.169336","106072.456091","106839.800236","107606.922935","108374.056751","109141.328483","108376.971004","Mapping"
"Mixed","Female","ball","9","F_ball.wav","None","729.920081151","411","103004.323454","109908.407013","96031.6403285","96799.1794782","97566.32952","98333.5991486","99100.6154815","99867.8439458","103770.906811","104537.915031","105305.169336","106072.456091","106839.800236","107606.922935","108374.056751","109141.328483","109144.420313","Mapping"
"Mixed","Female","ball","9","F_knife.wav","space","479.265208108","411","103004.323454","109908.407013","110675.808849","96799.1794782","97566.32952","98333.5991486","99100.6154815","99867.8439458","103770.906811","104537.915031","105305.169336","106072.456091","106839.800236","107606.922935","108374.056751","109141.328483","109911.543012","Mapping"
"Mixed","Female","ball","9","F_gnash.wav","None","729.864193844","411","103004.323454","109908.407013","110675.808849","111442.963397","97566.32952","98333.5991486","99100.6154815","99867.8439458","103770.906811","104537.915031","105305.169336","106072.456091","106839.800236","107606.922935","108374.056751","109141.328483","110678.704472","Mapping"
"Mixed","Female","ball","9","F_ball.wav","None","729.874409803","411","103004.323454","109908.407013","110675.808849","111442.963397","112210.320162","98333.5991486","99100.6154815","99867.8439458","103770.906811","104537.915031","105305.169336","106072.456091","106839.800236","107606.922935","108374.056751","109141.328483","111445.982213","Mapping"
"Mixed","Female","ball","9","M_bluff.wav","space","413.93174417","411","103004.323454","109908.407013","110675.808849","111442.963397","112210.320162","112977.293227","99100.6154815","99867.8439458","103770.906811","104537.915031","105305.169336","106072.456091","106839.800236","107606.922935","108374.056751","109141.328483","112212.909006","Mapping"
"Mixed","Female","ball","9","F_ball.wav","None","729.102203462","411","103004.323454","109908.407013","110675.808849","111442.963397","112210.320162","112977.293227","113744.601917","99867.8439458","103770.906811","104537.915031","105305.169336","106072.456091","106839.800236","107606.922935","108374.056751","109141.328483","112980.516363","Mapping"
"Mixed","Female","ball","9","M_bluff.wav","space","505.304787138","411","103004.323454","109908.407013","110675.808849","111442.963397","112210.320162","112977.293227","113744.601917","114511.997442","103770.906811","104537.915031","105305.169336","106072.456091","106839.800236","107606.922935","108374.056751","109141.328483","113747.469297","Mapping"
"Mixed","Female","ball","12","M_bluff.wav","None","728.505771716","411","117648.179786","109908.407013","110675.808849","111442.963397","112210.320162","112977.293227","113744.601917","114511.997442","103770.906811","104537.915031","105305.169336","106072.456091","106839.800236","107606.922935","108374.056751","109141.328483","114514.937535","Mapping"
"Mixed","Female","ball","12","F_romp.wav","None","729.254541445","411","117648.179786","109908.407013","110675.808849","111442.963397","112210.320162","112977.293227","113744.601917","114511.997442","118414.852683","104537.915031","105305.169336","106072.456091","106839.800236","107606.922935","108374.056751","109141.328483","117651.494565","Mapping"
"Mixed","Female","ball","12","F_ball.wav","None","730.358465996","411","117648.179786","109908.407013","110675.808849","111442.963397","112210.320162","112977.293227","113744.601917","114511.997442","118414.852683","119182.00002","105305.169336","106072.456091","106839.800236","107606.922935","108374.056751","109141.328483","118417.591762","Mapping"
"Mixed","Female","ball","12","M_jolt.wav","space","462.655260048","411","117648.179786","109908.407013","110675.808849","111442.963397","112210.320162","112977.293227","113744.601917","114511.997442","118414.852683","119182.00002","119949.877499","106072.456091","106839.800236","107606.922935","108374.056751","109141.328483","119185.065109","Mapping"
"Mixed","Female","ball","12","F_cad.wav","None","728.548137901","411","117648.179786","109908.407013","110675.808849","111442.963397","112210.320162","112977.293227","113744.601917","114511.997442","118414.852683","119182.00002","119949.877499","120716.880611","106839.800236","107606.922935","108374.056751","109141.328483","119953.553141","Mapping"
"Mixed","Female","ball","12","M_cad.wav","None","728.879255173","411","117648.179786","109908.407013","110675.808849","111442.963397","112210.320162","112977.293227","113744.601917","114511.997442","118414.852683","119182.00002","119949.877499","120716.880611","121483.647855","107606.922935","108374.056751","109141.328483","120720.448384","Mapping"
"Mixed","Female","ball","12","F_ball.wav","None","729.632231472","411","117648.179786","109908.407013","110675.808849","111442.963397","112210.320162","112977.293227","113744.601917","114511.997442","118414.852683","119182.00002","119949.877499","120716.880611","121483.647855","122250.71677","108374.056751","109141.328483","121486.655253","Mapping"
"Mixed","Female","ball","12","M_knife.wav","space","409.815914422","411","117648.179786","109908.407013","110675.808849","111442.963397","112210.320162","112977.293227","113744.601917","114511.997442","118414.852683","119182.00002","119949.877499","120716.880611","121483.647855","122250.71677","123018.327131","109141.328483","122253.994891","Mapping"
"Mixed","Female","ball","12","M_gnash.wav","None","728.968494583","411","117648.179786","109908.407013","110675.808849","111442.963397","112210.320162","112977.293227","113744.601917","114511.997442","118414.852683","119182.00002","119949.877499","120716.880611","121483.647855","122250.71677","123018.327131","123785.311013","123021.627486","Mapping"
"Mixed","Female","ball","12","F_ball.wav","None","729.541189246","411","117648.179786","124552.549092","110675.808849","111442.963397","112210.320162","112977.293227","113744.601917","114511.997442","118414.852683","119182.00002","119949.877499","120716.880611","121483.647855","122250.71677","123018.327131","123785.311013","123788.769416","Mapping"
"Mixed","Female","ball","12","M_park.wav","space","373.840113025","411","117648.179786","124552.549092","125319.8055","111442.963397","112210.320162","112977.293227","113744.601917","114511.997442","118414.852683","119182.00002","119949.877499","120716.880611","121483.647855","122250.71677","123018.327131","123785.311013","124555.975946","Mapping"
"Mixed","Female","ball","12","F_ball.wav","None","729.17311424","411","117648.179786","124552.549092","125319.8055","126086.828143","112210.320162","112977.293227","113744.601917","114511.997442","118414.852683","119182.00002","119949.877499","120716.880611","121483.647855","122250.71677","123018.327131","123785.311013","125323.272917","Mapping"
"Mixed","Female","ball","12","M_lash.wav","space","409.515745498","411","117648.179786","124552.549092","125319.8055","126086.828143","126854.772025","112977.293227","113744.601917","114511.997442","118414.852683","119182.00002","119949.877499","120716.880611","121483.647855","122250.71677","123018.327131","123785.311013","126090.192198","Mapping"
"Mixed","Female","ball","12","M_greet.wav","None","728.490147308","411","117648.179786","124552.549092","125319.8055","126086.828143","126854.772025","127621.448226","113744.601917","114511.997442","118414.852683","119182.00002","119949.877499","120716.880611","121483.647855","122250.71677","123018.327131","123785.311013","126858.648381","Mapping"
"Mixed","Female","ball","12","F_knife.wav","None","730.237977769","411","117648.179786","124552.549092","125319.8055","126086.828143","126854.772025","127621.448226","128388.661968","114511.997442","118414.852683","119182.00002","119949.877499","120716.880611","121483.647855","122250.71677","123018.327131","123785.311013","127624.214047","Mapping"
"Mixed","Female","ball","12","F_cad.wav","None","730.304982444","411","117648.179786","124552.549092","125319.8055","126086.828143","126854.772025","127621.448226","128388.661968","129155.815916","118414.852683","119182.00002","119949.877499","120716.880611","121483.647855","122250.71677","123018.327131","123785.311013","128391.44792","Mapping"
"Mixed","Male","cave","17","F_reek.wav","None","730.164663237","411","132292.01148","124552.549092","125319.8055","126086.828143","126854.772025","127621.448226","128388.661968","129155.815916","118414.852683","119182.00002","119949.877499","120716.880611","121483.647855","122250.71677","123018.327131","123785.311013","129159.007802","Mapping"
"Mixed","Male","cave","17","F_lash.wav","None","729.582954491","411","132292.01148","124552.549092","125319.8055","126086.828143","126854.772025","127621.448226","128388.661968","129155.815916","133059.464395","119182.00002","119949.877499","120716.880611","121483.647855","122250.71677","123018.327131","123785.311013","132295.677207","Mapping"
"Mixed","Male","cave","17","F_romp.wav","None","729.814616394","411","132292.01148","124552.549092","125319.8055","126086.828143","126854.772025","127621.448226","128388.661968","129155.815916","133059.464395","133825.652635","119949.877499","120716.880611","121483.647855","122250.71677","123018.327131","123785.311013","133062.878929","Mapping"
"Mixed","Male","cave","17","F_park.wav","None","731.533301324","411","132292.01148","124552.549092","125319.8055","126086.828143","126854.772025","127621.448226","128388.661968","129155.815916","133059.464395","133825.652635","134592.859165","120716.880611","121483.647855","122250.71677","123018.327131","123785.311013","133828.628183","Mapping"
"Mixed","Male","cave","17","M_cave.wav","None","732.104794109","411","132292.01148","124552.549092","125319.8055","126086.828143","126854.772025","127621.448226","128388.661968","129155.815916","133059.464395","133825.652635","134592.859165","135360.129094","121483.647855","122250.71677","123018.327131","123785.311013","134595.563089","Mapping"
"Mixed","Male","cave","17","F_lash.wav","space","449.82191179","411","132292.01148","124552.549092","125319.8055","126086.828143","126854.772025","127621.448226","128388.661968","129155.815916","133059.464395","133825.652635","134592.859165","135360.129094","136127.531229","122250.71677","123018.327131","123785.311013","135362.925562","Mapping"
"Mixed","Male","cave","17","M_cave.wav","None","731.220813154","411","132292.01148","124552.549092","125319.8055","126086.828143","126854.772025","127621.448226","128388.661968","129155.815916","133059.464395","133825.652635","134592.859165","135360.129094","136127.531229","136894.86606","123018.327131","123785.311013","136130.647397","Mapping"
"Mixed","Male","cave","17","F_gnash.wav","space","574.689179436","411","132292.01148","124552.549092","125319.8055","126086.828143","126854.772025","127621.448226","128388.661968","129155.815916","133059.464395","133825.652635","134592.859165","135360.129094","136127.531229","136894.86606","137661.937078","123785.311013","136898.078078","Mapping"
"Mixed","Male","cave","17","M_priest.wav","None","730.677264021","411","132292.01148","124552.549092","125319.8055","126086.828143","126854.772025","127621.448226","128388.661968","129155.815916","133059.464395","133825.652635","134592.859165","135360.129094","136127.531229","136894.86606","137661.937078","138429.286632","137665.509058","Mapping"
"Mixed","Male","cave","17","F_knife.wav","None","731.77758294","411","132292.01148","139196.700485","125319.8055","126086.828143","126854.772025","127621.448226","128388.661968","129155.815916","133059.464395","133825.652635","134592.859165","135360.129094","136127.531229","136894.86606","137661.937078","138429.286632","138432.05756","Mapping"
"Mixed","Male","cave","17","M_cave.wav","None","731.059160621","411","132292.01148","139196.700485","139963.510696","126086.828143","126854.772025","127621.448226","128388.661968","129155.815916","133059.464395","133825.652635","134592.859165","135360.129094","136127.531229","136894.86606","137661.937078","138429.286632","139200.281179","Mapping"
"Mixed","Male","cave","17","M_priest.wav","space","508.475039707","411","132292.01148","139196.700485","139963.510696","140730.634597","126854.772025","127621.448226","128388.661968","129155.815916","133059.464395","133825.652635","134592.859165","135360.129094","136127.531229","136894.86606","137661.937078","138429.286632","139966.297851","Mapping"
"Mixed","Male","cave","17","F_dime.wav","None","731.740324735","411","132292.01148","139196.700485","139963.510696","140730.634597","141497.857353","127621.448226","128388.661968","129155.815916","133059.464395","133825.652635","134592.859165","135360.129094","136127.531229","136894.86606","137661.937078","138429.286632","140733.40823","Mapping"
"Mixed","Male","cave","17","M_cave.wav","None","731.74813694","411","132292.01148","139196.700485","139963.510696","140730.634597","141497.857353","142265.099338","128388.661968","129155.815916","133059.464395","133825.652635","134592.859165","135360.129094","136127.531229","136894.86606","137661.937078","138429.286632","141500.889389","Mapping"
"Mixed","Male","cave","17","M_dime.wav","space","494.725860739","411","132292.01148","139196.700485","139963.510696","140730.634597","141497.857353","142265.099338","143032.386694","129155.815916","133059.464395","133825.652635","134592.859165","135360.129094","136127.531229","136894.86606","137661.937078","138429.286632","142268.044239","Mapping"
"Mixed","Male","cave","17","M_reek.wav","None","731.335291993","411","132292.01148","139196.700485","139963.510696","140730.634597","141497.857353","142265.099338","143032.386694","143799.572492","133059.464395","133825.652635","134592.859165","135360.129094","136127.531229","136894.86606","137661.937078","138429.286632","143035.271201","Mapping"
"Mixed","Female","cave","19","M_jaw.wav","None","731.516775507","411","146936.140939","139196.700485","139963.510696","140730.634597","141497.857353","142265.099338","143032.386694","143799.572492","133059.464395","133825.652635","134592.859165","135360.129094","136127.531229","136894.86606","137661.937078","138429.286632","143802.487045","Mapping"
"Mixed","Female","cave","19","F_cad.wav","None","727.94449489","411","146936.140939","139196.700485","139963.510696","140730.634597","141497.857353","142265.099338","143032.386694","143799.572492","147702.454174","133825.652635","134592.859165","135360.129094","136127.531229","136894.86606","137661.937078","138429.286632","146941.216769","Mapping"
"Mixed","Female","cave","19","M_priest.wav","None","730.899010434","411","146936.140939","139196.700485","139963.510696","140730.634597","141497.857353","142265.099338","143032.386694","143799.572492","147702.454174","148469.667615","134592.859165","135360.129094","136127.531229","136894.86606","137661.937078","138429.286632","147705.598887","Mapping"
"Mixed","Female","cave","19","F_cave.wav","None","730.773714697","411","146936.140939","139196.700485","139963.510696","140730.634597","141497.857353","142265.099338","143032.386694","143799.572492","147702.454174","148469.667615","149236.869638","135360.129094","136127.531229","136894.86606","137661.937078","138429.286632","148472.87182","Mapping"
"Mixed","Female","cave","19","M_priest.wav","space","484.29085918","411","146936.140939","139196.700485","139963.510696","140730.634597","141497.857353","142265.099338","143032.386694","143799.572492","147702.454174","148469.667615","149236.869638","150004.785876","136127.531229","136894.86606","137661.937078","138429.286632","149239.459383","Mapping"
"Mixed","Female","cave","19","F_cave.wav","None","728.972400684","411","146936.140939","139196.700485","139963.510696","140730.634597","141497.857353","142265.099338","143032.386694","143799.572492","147702.454174","148469.667615","149236.869638","150004.785876","150772.059111","136894.86606","137661.937078","138429.286632","150008.598232","Mapping"
"Mixed","Female","cave","19","M_bluff.wav","space","510.857461526","411","146936.140939","139196.700485","139963.510696","140730.634597","141497.857353","142265.099338","143032.386694","143799.572492","147702.454174","148469.667615","149236.869638","150004.785876","150772.059111","151538.850993","137661.937078","138429.286632","150775.941175","Mapping"
"Mixed","Female","cave","19","F_reek.wav","None","730.288757096","411","146936.140939","139196.700485","139963.510696","140730.634597","141497.857353","142265.099338","143032.386694","143799.572492","147702.454174","148469.667615","149236.869638","150004.785876","150772.059111","151538.850993","152305.777486","138429.286632","151541.882128","Mapping"
"Mixed","Female","cave","19","M_priest.wav","None","731.254465726","411","146936.140939","139196.700485","139963.510696","140730.634597","141497.857353","142265.099338","143032.386694","143799.572492","147702.454174","148469.667615","149236.869638","150004.785876","150772.059111","151538.850993","152305.777486","153073.009856","152308.461579","Mapping"
"Mixed","Female","cave","19","F_cave.wav","None","731.329583074","411","146936.140939","153840.16771","139963.510696","140730.634597","141497.857353","142265.099338","143032.386694","143799.572492","147702.454174","148469.667615","149236.869638","150004.785876","150772.059111","151538.850993","152305.777486","153073.009856","153075.723696","Mapping"
"Mixed","Female","cave","19","M_cling.wav","space","502.697614214","411","146936.140939","153840.16771","154607.3484","140730.634597","141497.857353","142265.099338","143032.386694","143799.572492","147702.454174","148469.667615","149236.869638","150004.785876","150772.059111","151538.850993","152305.777486","153073.009856","153843.068442","Mapping"
"Mixed","Female","cave","19","M_reek.wav","None","731.419423424","411","146936.140939","153840.16771","154607.3484","155374.656789","141497.857353","142265.099338","143032.386694","143799.572492","147702.454174","148469.667615","149236.869638","150004.785876","150772.059111","151538.850993","152305.777486","153073.009856","154610.155685","Mapping"
"Mixed","Female","cave","19","M_knife.wav","None","731.253263849","411","146936.140939","153840.16771","154607.3484","155374.656789","156141.88946","142265.099338","143032.386694","143799.572492","147702.454174","148469.667615","149236.869638","150004.785876","150772.059111","151538.850993","152305.777486","153073.009856","155377.514553","Mapping"
"Mixed","Female","cave","19","F_cave.wav","None","731.827160391","411","146936.140939","153840.16771","154607.3484","155374.656789","156141.88946","156909.101398","143032.386694","143799.572492","147702.454174","148469.667615","149236.869638","150004.785876","150772.059111","151538.850993","152305.777486","153073.009856","156144.511356","Mapping"
"Mixed","Female","cave","19","F_romp.wav","space","529.726338486","411","146936.140939","153840.16771","154607.3484","155374.656789","156141.88946","156909.101398","157676.349093","143799.572492","147702.454174","148469.667615","149236.869638","150004.785876","150772.059111","151538.850993","152305.777486","153073.009856","156912.048402","Mapping"
"Mixed","Female","cave","19","F_bluff.wav","None","732.378822196","411","146936.140939","153840.16771","154607.3484","155374.656789","156141.88946","156909.101398","157676.349093","158443.477801","147702.454174","148469.667615","149236.869638","150004.785876","150772.059111","151538.850993","152305.777486","153073.009856","157679.163589","Mapping"
"Mixed","Female","cave","22","F_jolt.wav","None","732.823817368","411","161580.071187","153840.16771","154607.3484","155374.656789","156141.88946","156909.101398","157676.349093","158443.477801","147702.454174","148469.667615","149236.869638","150004.785876","150772.059111","151538.850993","152305.777486","153073.009856","158446.308523","Mapping"
"Mixed","Female","cave","22","F_cave.wav","None","728.780400743","411","161580.071187","153840.16771","154607.3484","155374.656789","156141.88946","156909.101398","157676.349093","158443.477801","162347.133492","148469.667615","149236.869638","150004.785876","150772.059111","151538.850993","152305.777486","153073.009856","161583.948144","Mapping"
"Mixed","Female","cave","22","M_priest.wav","space","570.926701693","411","161580.071187","153840.16771","154607.3484","155374.656789","156141.88946","156909.101398","157676.349093","158443.477801","162347.133492","163114.67144","149236.869638","150004.785876","150772.059111","151538.850993","152305.777486","153073.009856","162350.840984","Mapping"
"Mixed","Female","cave","22","F_jolt.wav","None","729.357001507","411","161580.071187","153840.16771","154607.3484","155374.656789","156141.88946","156909.101398","157676.349093","158443.477801","162347.133492","163114.67144","163880.874102","150004.785876","150772.059111","151538.850993","152305.777486","153073.009856","163118.124134","Mapping"
"Mixed","Female","cave","22","M_cling.wav","None","731.008080824","411","161580.071187","153840.16771","154607.3484","155374.656789","156141.88946","156909.101398","157676.349093","158443.477801","162347.133492","163114.67144","163880.874102","164648.011524","150772.059111","151538.850993","152305.777486","153073.009856","163884.038345","Mapping"
"Mixed","Female","cave","22","M_cad.wav","None","731.555235589","411","161580.071187","153840.16771","154607.3484","155374.656789","156141.88946","156909.101398","157676.349093","158443.477801","162347.133492","163114.67144","163880.874102","164648.011524","165415.239087","151538.850993","152305.777486","153073.009856","164651.15203","Mapping"
"Mixed","Female","cave","22","F_cave.wav","None","731.773676838","411","161580.071187","153840.16771","154607.3484","155374.656789","156141.88946","156909.101398","157676.349093","158443.477801","162347.133492","163114.67144","163880.874102","164648.011524","165415.239087","166182.469354","152305.777486","153073.009856","165418.221546","Mapping"
"Mixed","Female","cave","22","M_jaw.wav","space","562.230816982","411","161580.071187","153840.16771","154607.3484","155374.656789","156141.88946","156909.101398","157676.349093","158443.477801","162347.133492","163114.67144","163880.874102","164648.011524","165415.239087","166182.469354","166949.693611","153073.009856","166185.541653","Mapping"
"Mixed","Female","cave","22","M_romp.wav","None","730.718428329","411","161580.071187","153840.16771","154607.3484","155374.656789","156141.88946","156909.101398","157676.349093","158443.477801","162347.133492","163114.67144","163880.874102","164648.011524","165415.239087","166182.469354","166949.693611","167716.883916","166953.121667","Mapping"
"Mixed","Female","cave","22","F_cave.wav","None","731.3764563","411","161580.071187","168484.15715","154607.3484","155374.656789","156141.88946","156909.101398","157676.349093","158443.477801","162347.133492","163114.67144","163880.874102","164648.011524","165415.239087","166182.469354","166949.693611","167716.883916","167720.101943","Mapping"
"Mixed","Female","cave","22","F_reek.wav","space","543.727611274","411","161580.071187","168484.15715","169251.378403","155374.656789","156141.88946","156909.101398","157676.349093","158443.477801","162347.133492","163114.67144","163880.874102","164648.011524","165415.239087","166182.469354","166949.693611","167716.883916","168487.051572","Mapping"
"Mixed","Female","cave","22","F_bluff.wav","None","731.209094848","411","161580.071187","168484.15715","169251.378403","170018.594548","156141.88946","156909.101398","157676.349093","158443.477801","162347.133492","163114.67144","163880.874102","164648.011524","165415.239087","166182.469354","166949.693611","167716.883916","169254.85243","Mapping"
"Mixed","Female","cave","22","M_jolt.wav","None","732.043798823","411","161580.071187","168484.15715","169251.378403","170018.594548","170785.856064","156909.101398","157676.349093","158443.477801","162347.133492","163114.67144","163880.874102","164648.011524","165415.239087","166182.469354","166949.693611","167716.883916","170021.813177","Mapping"
"Mixed","Female","cave","22","M_priest.wav","None","732.047704925","411","161580.071187","168484.15715","169251.378403","170018.594548","170785.856064","171553.08543","157676.349093","158443.477801","162347.133492","163114.67144","163880.874102","164648.011524","165415.239087","166182.469354","166949.693611","167716.883916","170789.327988","Mapping"
"Mixed","Female","cave","22","F_cave.wav","None","732.559404302","411","161580.071187","168484.15715","169251.378403","170018.594548","170785.856064","171553.08543","172320.289857","158443.477801","162347.133492","163114.67144","163880.874102","164648.011524","165415.239087","166182.469354","166949.693611","167716.883916","171556.448284","Mapping"
"Mixed","Female","cave","22","M_romp.wav","space","471.894393421","411","161580.071187","168484.15715","169251.378403","170018.594548","170785.856064","171553.08543","172320.289857","173087.436894","162347.133492","163114.67144","163880.874102","164648.011524","165415.239087","166182.469354","166949.693611","167716.883916","172322.875997","Mapping"
"Mixed","Female","cave","24","F_lash.wav","None","733.232455743","411","176223.994825","168484.15715","169251.378403","170018.594548","170785.856064","171553.08543","172320.289857","173087.436894","162347.133492","163114.67144","163880.874102","164648.011524","165415.239087","166182.469354","166949.693611","167716.883916","173090.239672","Mapping"
"Mixed","Female","cave","24","F_cave.wav","None","728.18246665","411","176223.994825","168484.15715","169251.378403","170018.594548","170785.856064","171553.08543","172320.289857","173087.436894","176990.512078","163114.67144","163880.874102","164648.011524","165415.239087","166182.469354","166949.693611","167716.883916","176227.822805","Mapping"
"Mixed","Female","cave","24","M_greet.wav","space","483.034897116","411","176223.994825","168484.15715","169251.378403","170018.594548","170785.856064","171553.08543","172320.289857","173087.436894","176990.512078","177757.84781","163880.874102","164648.011524","165415.239087","166182.469354","166949.693611","167716.883916","176993.740922","Mapping"
"Mixed","Female","cave","24","M_bluff.wav","None","728.093527709","411","176223.994825","168484.15715","169251.378403","170018.594548","170785.856064","171553.08543","172320.289857","173087.436894","176990.512078","177757.84781","178525.040518","164648.011524","165415.239087","166182.469354","166949.693611","167716.883916","177761.394851","Mapping"
"Mixed","Female","cave","24","F_cave.wav","None","728.703180108","411","176223.994825","168484.15715","169251.378403","170018.594548","170785.856064","171553.08543","172320.289857","173087.436894","176990.512078","177757.84781","178525.040518","179292.336889","165415.239087","166182.469354","166949.693611","167716.883916","178528.360705","Mapping"
"Mixed","Female","cave","24","F_greet.wav","space","417.006447472","411","176223.994825","168484.15715","169251.378403","170018.594548","170785.856064","171553.08543","172320.289857","173087.436894","176990.512078","177757.84781","178525.040518","179292.336889","180059.525992","166182.469354","166949.693611","167716.883916","179295.757432","Mapping"
"Mixed","Female","cave","24","F_cling.wav","None","728.5884008","411","176223.994825","168484.15715","169251.378403","170018.594548","170785.856064","171553.08543","172320.289857","173087.436894","176990.512078","177757.84781","178525.040518","179292.336889","180059.525992","180826.530606","166949.693611","167716.883916","180062.686028","Mapping"
"Mixed","Female","cave","24","M_reek.wav","None","728.939649521","411","176223.994825","168484.15715","169251.378403","170018.594548","170785.856064","171553.08543","172320.289857","173087.436894","176990.512078","177757.84781","178525.040518","179292.336889","180059.525992","180826.530606","181593.877756","167716.883916","180829.948746","Mapping"
"Mixed","Female","cave","24","M_bluff.wav","None","729.268363038","411","176223.994825","168484.15715","169251.378403","170018.594548","170785.856064","171553.08543","172320.289857","173087.436894","176990.512078","177757.84781","178525.040518","179292.336889","180059.525992","180826.530606","181593.877756","182361.255553","181597.297698","Mapping"
"Mixed","Female","cave","24","M_cling.wav","None","729.471780816","411","176223.994825","183128.167023","169251.378403","170018.594548","170785.856064","171553.08543","172320.289857","173087.436894","176990.512078","177757.84781","178525.040518","179292.336889","180059.525992","180826.530606","181593.877756","182361.255553","182364.39636","Mapping"
"Mixed","Female","cave","24","M_jolt.wav","None","729.90595909","411","176223.994825","183128.167023","183895.274698","170018.594548","170785.856064","171553.08543","172320.289857","173087.436894","176990.512078","177757.84781","178525.040518","179292.336889","180059.525992","180826.530606","181593.877756","182361.255553","183131.378139","Mapping"
"Mixed","Female","cave","24","F_jaw.wav","None","731.03512307","411","176223.994825","183128.167023","183895.274698","184662.440064","170785.856064","171553.08543","172320.289857","173087.436894","176990.512078","177757.84781","178525.040518","179292.336889","180059.525992","180826.530606","181593.877756","182361.255553","183898.225007","Mapping"
"Mixed","Female","cave","24","F_cave.wav","None","731.973488985","411","176223.994825","183128.167023","183895.274698","184662.440064","185429.756866","171553.08543","172320.289857","173087.436894","176990.512078","177757.84781","178525.040518","179292.336889","180059.525992","180826.530606","181593.877756","182361.255553","184665.111237","Mapping"
"Mixed","Female","cave","24","M_romp.wav","space","473.458637083","411","176223.994825","183128.167023","183895.274698","184662.440064","185429.756866","186196.945969","172320.289857","173087.436894","176990.512078","177757.84781","178525.040518","179292.336889","180059.525992","180826.530606","181593.877756","182361.255553","185432.343908","Mapping"
"Mixed","Female","cave","24","F_cave.wav","None","732.346071032","411","176223.994825","183128.167023","183895.274698","184662.440064","185429.756866","186196.945969","186964.24294","173087.436894","176990.512078","177757.84781","178525.040518","179292.336889","180059.525992","180826.530606","181593.877756","182361.255553","186199.399302","Mapping"
"Mixed","Female","cave","24","M_gnash.wav","space","545.690277351","411","176223.994825","183128.167023","183895.274698","184662.440064","185429.756866","186196.945969","186964.24294","187731.394484","176990.512078","177757.84781","178525.040518","179292.336889","180059.525992","180826.530606","181593.877756","182361.255553","186968.07693","Mapping"
"Mixed","Male","cave","16","F_reek.wav","None","731.598202713","411","190868.117072","183128.167023","183895.274698","184662.440064","185429.756866","186196.945969","186964.24294","187731.394484","176990.512078","177757.84781","178525.040518","179292.336889","180059.525992","180826.530606","181593.877756","182361.255553","187734.048531","Mapping"
"Mixed","Male","cave","16","M_cave.wav","None","727.821001969","411","190868.117072","183128.167023","183895.274698","184662.440064","185429.756866","186196.945969","186964.24294","187731.394484","191634.685406","177757.84781","178525.040518","179292.336889","180059.525992","180826.530606","181593.877756","182361.255553","190871.558048","Mapping"
"Mixed","Male","cave","16","M_dime.wav","space","473.122111362","411","190868.117072","183128.167023","183895.274698","184662.440064","185429.756866","186196.945969","186964.24294","187731.394484","191634.685406","192402.118189","178525.040518","179292.336889","180059.525992","180826.530606","181593.877756","182361.255553","191637.614081","Mapping"
"Mixed","Male","cave","16","M_depth.wav","None","728.244663814","411","190868.117072","183128.167023","183895.274698","184662.440064","185429.756866","186196.945969","186964.24294","187731.394484","191634.685406","192402.118189","193169.499292","179292.336889","180059.525992","180826.530606","181593.877756","182361.255553","192406.145681","Mapping"
"Mixed","Male","cave","16","M_cave.wav","None","729.033095502","411","190868.117072","183128.167023","183895.274698","184662.440064","185429.756866","186196.945969","186964.24294","187731.394484","191634.685406","192402.118189","193169.499292","193935.917991","180059.525992","180826.530606","181593.877756","182361.255553","193173.235929","Mapping"
"Mixed","Male","cave","16","F_depth.wav","space","632.263021292","411","190868.117072","183128.167023","183895.274698","184662.440064","185429.756866","186196.945969","186964.24294","187731.394484","191634.685406","192402.118189","193169.499292","193935.917991","194703.185216","180826.530606","181593.877756","182361.255553","193938.511042","Mapping"
"Mixed","Male","cave","16","F_dime.wav","None","731.283911727","411","190868.117072","183128.167023","183895.274698","184662.440064","185429.756866","186196.945969","186964.24294","187731.394484","191634.685406","192402.118189","193169.499292","193935.917991","194703.185216","195470.417887","181593.877756","182361.255553","194705.856088","Mapping"
"Mixed","Male","cave","16","M_cave.wav","None","731.823554757","411","190868.117072","183128.167023","183895.274698","184662.440064","185429.756866","186196.945969","186964.24294","187731.394484","191634.685406","192402.118189","193169.499292","193935.917991","194703.185216","195470.417887","196237.603084","182361.255553","195473.097773","Mapping"
"Mixed","Male","cave","16","F_park.wav","space","534.559388677","411","190868.117072","183128.167023","183895.274698","184662.440064","185429.756866","186196.945969","186964.24294","187731.394484","191634.685406","192402.118189","193169.499292","193935.917991","194703.185216","195470.417887","196237.603084","197005.239886","196240.205449","Mapping"
"Mixed","Male","cave","16","F_knife.wav","None","730.739160717","411","190868.117072","197772.413064","183895.274698","184662.440064","185429.756866","186196.945969","186964.24294","187731.394484","191634.685406","192402.118189","193169.499292","193935.917991","194703.185216","195470.417887","196237.603084","197005.239886","197008.8978","Mapping"
"Mixed","Male","cave","16","F_greet.wav","None","731.281207502","411","190868.117072","197772.413064","198539.286073","184662.440064","185429.756866","186196.945969","186964.24294","187731.394484","191634.685406","192402.118189","193169.499292","193935.917991","194703.185216","195470.417887","196237.603084","197005.239886","197776.205288","Mapping"
"Mixed","Male","cave","16","F_jaw.wav","None","732.435911381","411","190868.117072","197772.413064","198539.286073","199306.443927","185429.756866","186196.945969","186964.24294","187731.394484","191634.685406","192402.118189","193169.499292","193935.917991","194703.185216","195470.417887","196237.603084","197005.239886","198542.636607","Mapping"
"Mixed","Male","cave","16","M_cave.wav","None","733.351441622","411","190868.117072","197772.413064","198539.286073","199306.443927","200073.643846","186196.945969","186964.24294","187731.394484","191634.685406","192402.118189","193169.499292","193935.917991","194703.185216","195470.417887","196237.603084","197005.239886","199309.093466","Mapping"
"Mixed","Male","cave","16","F_romp.wav","space","553.128096712","411","190868.117072","197772.413064","198539.286073","199306.443927","200073.643846","200841.340442","186964.24294","187731.394484","191634.685406","192402.118189","193169.499292","193935.917991","194703.185216","195470.417887","196237.603084","197005.239886","200076.653348","Mapping"
"Mixed","Male","cave","16","M_greet.wav","None","732.482784606","411","190868.117072","197772.413064","198539.286073","199306.443927","200073.643846","200841.340442","201608.613075","187731.394484","191634.685406","192402.118189","193169.499292","193935.917991","194703.185216","195470.417887","196237.603084","197005.239886","200844.349343","Mapping"
"Mixed","Male","cave","16","M_romp.wav","None","732.545582709","411","190868.117072","197772.413064","198539.286073","199306.443927","200073.643846","200841.340442","201608.613075","202375.402854","191634.685406","192402.118189","193169.499292","193935.917991","194703.185216","195470.417887","196237.603084","197005.239886","201612.13668","Mapping"
"Mixed","Female","done","43","M_cad.wav","None","734.201169066","411","205511.729123","197772.413064","198539.286073","199306.443927","200073.643846","200841.340442","201608.613075","202375.402854","191634.685406","192402.118189","193169.499292","193935.917991","194703.185216","195470.417887","196237.603084","197005.239886","202378.407849","Mapping"
"Mixed","Female","done","43","F_greet.wav","None","728.229940813","411","205511.729123","197772.413064","198539.286073","199306.443927","200073.643846","200841.340442","201608.613075","202375.402854","206278.787822","192402.118189","193169.499292","193935.917991","194703.185216","195470.417887","196237.603084","197005.239886","205515.866887","Mapping"
"Mixed","Female","done","43","M_dime.wav","None","729.282785568","411","205511.729123","197772.413064","198539.286073","199306.443927","200073.643846","200841.340442","201608.613075","202375.402854","206278.787822","207045.363066","193169.499292","193935.917991","194703.185216","195470.417887","196237.603084","197005.239886","206282.547896","Mapping"
"Mixed","Female","done","43","F_done.wav","None","731.751442103","411","205511.729123","197772.413064","198539.286073","199306.443927","200073.643846","200841.340442","201608.613075","202375.402854","206278.787822","207045.363066","207812.657634","193935.917991","194703.185216","195470.417887","196237.603084","197005.239886","207048.146014","Mapping"
"Mixed","Female","done","43","M_depth.wav","space","589.449137443","411","205511.729123","197772.413064","198539.286073","199306.443927","200073.643846","200841.340442","201608.613075","202375.402854","206278.787822","207045.363066","207812.657634","208579.825704","194703.185216","195470.417887","196237.603084","197005.239886","207815.314985","Mapping"
"Mixed","Female","done","43","F_reek.wav","None","731.767366981","411","205511.729123","197772.413064","198539.286073","199306.443927","200073.643846","200841.340442","201608.613075","202375.402854","206278.787822","207045.363066","207812.657634","208579.825704","209347.107051","195470.417887","196237.603084","197005.239886","208582.616163","Mapping"
"Mixed","Female","done","43","M_cad.wav","None","732.217169662","411","205511.729123","197772.413064","198539.286073","199306.443927","200073.643846","200841.340442","201608.613075","202375.402854","206278.787822","207045.363066","207812.657634","208579.825704","209347.107051","210114.279928","196237.603084","197005.239886","209349.881885","Mapping"
"Mixed","Female","done","43","M_park.wav","None","732.38693487","411","205511.729123","197772.413064","198539.286073","199306.443927","200073.643846","200841.340442","201608.613075","202375.402854","206278.787822","207045.363066","207812.657634","208579.825704","209347.107051","210114.279928","210881.503585","197005.239886","210117.322181","Mapping"
"Mixed","Female","done","43","F_romp.wav","None","733.532624667","411","205511.729123","197772.413064","198539.286073","199306.443927","200073.643846","200841.340442","201608.613075","202375.402854","206278.787822","207045.363066","207812.657634","208579.825704","209347.107051","210114.279928","210881.503585","211649.066772","210884.232147","Mapping"
"Mixed","Female","done","43","F_done.wav","None","732.682596752","411","205511.729123","212416.389584","198539.286073","199306.443927","200073.643846","200841.340442","201608.613075","202375.402854","206278.787822","207045.363066","207812.657634","208579.825704","209347.107051","210114.279928","210881.503585","211649.066772","211652.348799","Mapping"
"Mixed","Female","done","43","F_gnash.wav","space","458.869345692","411","205511.729123","212416.389584","213183.250274","199306.443927","200073.643846","200841.340442","201608.613075","202375.402854","206278.787822","207045.363066","207812.657634","208579.825704","209347.107051","210114.279928","210881.503585","211649.066772","212419.90117","Mapping"
"Mixed","Female","done","43","F_done.wav","None","733.691572976","411","205511.729123","212416.389584","213183.250274","213950.430062","200073.643846","200841.340442","201608.613075","202375.402854","206278.787822","207045.363066","207812.657634","208579.825704","209347.107051","210114.279928","210881.503585","211649.066772","213186.074986","Mapping"
"Mixed","Female","done","43","M_jolt.wav","space","467.6604792","411","205511.729123","212416.389584","213183.250274","213950.430062","214717.592723","200841.340442","201608.613075","202375.402854","206278.787822","207045.363066","207812.657634","208579.825704","209347.107051","210114.279928","210881.503585","211649.066772","213953.088014","Mapping"
"Mixed","Female","done","43","M_jaw.wav","None","733.675948567","411","205511.729123","212416.389584","213183.250274","213950.430062","214717.592723","215484.892699","201608.613075","202375.402854","206278.787822","207045.363066","207812.657634","208579.825704","209347.107051","210114.279928","210881.503585","211649.066772","214720.296647","Mapping"
"Mixed","Female","done","43","F_done.wav","None","734.296117394","411","205511.729123","212416.389584","213183.250274","213950.430062","214717.592723","215484.892699","216252.014798","202375.402854","206278.787822","207045.363066","207812.657634","208579.825704","209347.107051","210114.279928","210881.503585","211649.066772","215487.515196","Mapping"
"Mixed","Female","done","43","M_bluff.wav","space","504.912674581","411","205511.729123","212416.389584","213183.250274","213950.430062","214717.592723","215484.892699","216252.014798","217019.321083","206278.787822","207045.363066","207812.657634","208579.825704","209347.107051","210114.279928","210881.503585","211649.066772","216254.832599","Mapping"
"Mixed","Male","ball","4","M_dime.wav","None","734.770558566","411","220155.606188","212416.389584","213183.250274","213950.430062","214717.592723","215484.892699","216252.014798","217019.321083","206278.787822","207045.363066","207812.657634","208579.825704","209347.107051","210114.279928","210881.503585","211649.066772","217021.932763","Mapping"
"Mixed","Male","ball","4","F_jolt.wav","None","729.204963995","411","220155.606188","212416.389584","213183.250274","213950.430062","214717.592723","215484.892699","216252.014798","217019.321083","220922.191648","207045.363066","207812.657634","208579.825704","209347.107051","210114.279928","210881.503585","211649.066772","220159.160741","Mapping"
"Mixed","Male","ball","4","M_priest.wav","None","731.184456357","411","220155.606188","212416.389584","213183.250274","213950.430062","214717.592723","215484.892699","216252.014798","217019.321083","220922.191648","221689.369934","207812.657634","208579.825704","209347.107051","210114.279928","210881.503585","211649.066772","220925.211666","Mapping"
"Mixed","Male","ball","4","M_ball.wav","None","732.225883275","411","220155.606188","212416.389584","213183.250274","213950.430062","214717.592723","215484.892699","216252.014798","217019.321083","220922.191648","221689.369934","222456.604708","208579.825704","209347.107051","210114.279928","210881.503585","211649.066772","221692.133351","Mapping"
"Mixed","Male","ball","4","F_romp.wav","space","381.427265675","411","220155.606188","212416.389584","213183.250274","213950.430062","214717.592723","215484.892699","216252.014798","217019.321083","220922.191648","221689.369934","222456.604708","223223.793811","209347.107051","210114.279928","210881.503585","211649.066772","222459.399674","Mapping"
"Mixed","Male","ball","4","F_priest.wav","None","732.406164911","411","220155.606188","212416.389584","213183.250274","213950.430062","214717.592723","215484.892699","216252.014798","217019.321083","220922.191648","221689.369934","222456.604708","223223.793811","223991.053223","210114.279928","210881.503585","211649.066772","223226.489322","Mapping"
"Mixed","Male","ball","4","M_cling.wav","None","732.75320706","411","220155.606188","212416.389584","213183.250274","213950.430062","214717.592723","215484.892699","216252.014798","217019.321083","220922.191648","221689.369934","222456.604708","223223.793811","223991.053223","224758.272373","210881.503585","211649.066772","223994.079852","Mapping"
"Mixed","Male","ball","4","F_jolt.wav","None","733.725225547","411","220155.606188","212416.389584","213183.250274","213950.430062","214717.592723","215484.892699","216252.014798","217019.321083","220922.191648","221689.369934","222456.604708","223223.793811","223991.053223","224758.272373","225525.524875","211649.066772","224761.192335","Mapping"
"Mixed","Male","ball","4","F_depth.wav","None","734.550314502","411","220155.606188","212416.389584","213183.250274","213950.430062","214717.592723","215484.892699","216252.014798","217019.321083","220922.191648","221689.369934","222456.604708","223223.793811","223991.053223","224758.272373","225525.524875","226292.723292","225528.138959","Mapping"
"Mixed","Male","ball","4","M_ball.wav","None","734.317150252","411","220155.606188","227059.900376","213183.250274","213950.430062","214717.592723","215484.892699","216252.014798","217019.321083","220922.191648","221689.369934","222456.604708","223223.793811","223991.053223","224758.272373","225525.524875","226292.723292","226295.978277","Mapping"
"Mixed","Male","ball","4","F_reek.wav","space","427.280998376","411","220155.606188","227059.900376","227827.193442","213950.430062","214717.592723","215484.892699","216252.014798","217019.321083","220922.191648","221689.369934","222456.604708","223223.793811","223991.053223","224758.272373","225525.524875","226292.723292","227062.499437","Mapping"
"Mixed","Male","ball","4","F_gnash.wav","None","735.221262657","411","220155.606188","227059.900376","227827.193442","228594.432723","214717.592723","215484.892699","216252.014798","217019.321083","220922.191648","221689.369934","222456.604708","223223.793811","223991.053223","224758.272373","225525.524875","226292.723292","227829.775075","Mapping"
"Mixed","Male","ball","4","M_ball.wav","None","735.79876483","411","220155.606188","227059.900376","227827.193442","228594.432723","229361.647666","215484.892699","216252.014798","217019.321083","220922.191648","221689.369934","222456.604708","223223.793811","223991.053223","224758.272373","225525.524875","226292.723292","228597.139351","Mapping"
"Mixed","Male","ball","4","F_lash.wav","space","426.375083155","411","220155.606188","227059.900376","227827.193442","228594.432723","229361.647666","230128.783886","216252.014798","217019.321083","220922.191648","221689.369934","222456.604708","223223.793811","223991.053223","224758.272373","225525.524875","226292.723292","229364.372322","Mapping"
"Mixed","Male","ball","4","M_ball.wav","None","735.59564752","411","220155.606188","227059.900376","227827.193442","228594.432723","229361.647666","230128.783886","230896.042397","217019.321083","220922.191648","221689.369934","222456.604708","223223.793811","223991.053223","224758.272373","225525.524875","226292.723292","230131.703247","Mapping"
"Mixed","Male","ball","4","M_jaw.wav","space","417.215874639","411","220155.606188","227059.900376","227827.193442","228594.432723","229361.647666","230128.783886","230896.042397","231663.228796","220922.191648","221689.369934","222456.604708","223223.793811","223991.053223","224758.272373","225525.524875","226292.723292","230898.568444","Mapping"
"Mixed","Female","ball","7","M_romp.wav","None","736.387684841","411","234799.588117","227059.900376","227827.193442","228594.432723","229361.647666","230128.783886","230896.042397","231663.228796","220922.191648","221689.369934","222456.604708","223223.793811","223991.053223","224758.272373","225525.524875","226292.723292","231666.018654","Mapping"
"Mixed","Female","ball","7","F_ball.wav","None","729.265959281","411","234799.588117","227059.900376","227827.193442","228594.432723","229361.647666","230128.783886","230896.042397","231663.228796","235567.013689","221689.369934","222456.604708","223223.793811","223991.053223","224758.272373","225525.524875","226292.723292","234803.017674","Mapping"
"Mixed","Female","ball","7","M_cad.wav","space","554.134068241","411","234799.588117","227059.900376","227827.193442","228594.432723","229361.647666","230128.783886","230896.042397","231663.228796","235567.013689","236334.123468","222456.604708","223223.793811","223991.053223","224758.272373","225525.524875","226292.723292","235570.6058","Mapping"
"Mixed","Female","ball","7","M_dime.wav","None","728.984719929","411","234799.588117","227059.900376","227827.193442","228594.432723","229361.647666","230128.783886","230896.042397","231663.228796","235567.013689","236334.123468","237101.320984","223223.793811","223991.053223","224758.272373","225525.524875","226292.723292","236337.777476","Mapping"
"Mixed","Female","ball","7","F_ball.wav","None","729.829339394","411","234799.588117","227059.900376","227827.193442","228594.432723","229361.647666","230128.783886","230896.042397","231663.228796","235567.013689","236334.123468","237101.320984","237868.097842","223991.053223","224758.272373","225525.524875","226292.723292","237104.922109","Mapping"
"Mixed","Female","ball","7","M_reek.wav","space","404.617192979","411","234799.588117","227059.900376","227827.193442","228594.432723","229361.647666","230128.783886","230896.042397","231663.228796","235567.013689","236334.123468","237101.320984","237868.097842","238635.022532","224758.272373","225525.524875","226292.723292","237871.127776","Mapping"
"Mixed","Female","ball","7","M_knife.wav","None","732.327742399","411","234799.588117","227059.900376","227827.193442","228594.432723","229361.647666","230128.783886","230896.042397","231663.228796","235567.013689","236334.123468","237101.320984","237868.097842","238635.022532","239402.196912","225525.524875","226292.723292","238637.588841","Mapping"
"Mixed","Female","ball","7","F_lash.wav","None","732.97104737","411","234799.588117","227059.900376","227827.193442","228594.432723","229361.647666","230128.783886","230896.042397","231663.228796","235567.013689","236334.123468","237101.320984","237868.097842","238635.022532","239402.196912","240169.398935","226292.723292","239404.905944","Mapping"
"Mixed","Female","ball","7","F_gnash.wav","None","733.477939237","411","234799.588117","227059.900376","227827.193442","228594.432723","229361.647666","230128.783886","230896.042397","231663.228796","235567.013689","236334.123468","237101.320984","237868.097842","238635.022532","239402.196912","240169.398935","240936.649935","240172.129","Mapping"
"Mixed","Female","ball","7","F_ball.wav","None","734.096906187","411","234799.588117","241703.866681","227827.193442","228594.432723","229361.647666","230128.783886","230896.042397","231663.228796","235567.013689","236334.123468","237101.320984","237868.097842","238635.022532","239402.196912","240169.398935","240936.649935","240939.422666","Mapping"
"Mixed","Female","ball","7","F_depth.wav","space","345.190055906","411","234799.588117","241703.866681","242471.096046","228594.432723","229361.647666","230128.783886","230896.042397","231663.228796","235567.013689","236334.123468","237101.320984","237868.097842","238635.022532","239402.196912","240169.398935","240936.649935","241706.56129","Mapping"
"Mixed","Female","ball","7","F_ball.wav","None","734.090896799","411","234799.588117","241703.866681","242471.096046","243238.340435","229361.647666","230128.783886","230896.042397","231663.228796","235567.013689","236334.123468","237101.320984","237868.097842","238635.022532","239402.196912","240169.398935","240936.649935","242474.20921","Mapping"
"Mixed","Female","ball","7","M_jolt.wav","space","429.260791208","411","234799.588117","241703.866681","242471.096046","243238.340435","244005.601651","230128.783886","230896.042397","231663.228796","235567.013689","236334.123468","237101.320984","237868.097842","238635.022532","239402.196912","240169.398935","240936.649935","243241.475233","Mapping"
"Mixed","Female","ball","7","M_depth.wav","None","734.501337991","411","234799.588117","241703.866681","242471.096046","243238.340435","244005.601651","244772.879092","230896.042397","231663.228796","235567.013689","236334.123468","237101.320984","237868.097842","238635.022532","239402.196912","240169.398935","240936.649935","244008.39872","Mapping"
"Mixed","Female","ball","7","F_reek.wav","None","735.272943392","411","234799.588117","241703.866681","242471.096046","243238.340435","244005.601651","244772.879092","245540.030335","231663.228796","235567.013689","236334.123468","237101.320984","237868.097842","238635.022532","239402.196912","240169.398935","240936.649935","244775.768706","Mapping"
"Mixed","Female","ball","7","M_reek.wav","None","735.98745961","411","234799.588117","241703.866681","242471.096046","243238.340435","244005.601651","244772.879092","245540.030335","246307.235363","235567.013689","236334.123468","237101.320984","237868.097842","238635.022532","239402.196912","240169.398935","240936.649935","245543.177151","Mapping"
"Mixed","Male","ball","6","M_knife.wav","None","736.664717622","411","249443.864205","241703.866681","242471.096046","243238.340435","244005.601651","244772.879092","245540.030335","246307.235363","235567.013689","236334.123468","237101.320984","237868.097842","238635.022532","239402.196912","240169.398935","240936.649935","246310.412226","Mapping"
"Mixed","Male","ball","6","M_ball.wav","None","728.289433753","411","249443.864205","241703.866681","242471.096046","243238.340435","244005.601651","244772.879092","245540.030335","246307.235363","250210.026604","236334.123468","237101.320984","237868.097842","238635.022532","239402.196912","240169.398935","240936.649935","249447.444898","Mapping"
"Mixed","Male","ball","6","F_depth.wav","space","417.102597678","411","249443.864205","241703.866681","242471.096046","243238.340435","244005.601651","244772.879092","245540.030335","246307.235363","250210.026604","250977.345509","237101.320984","237868.097842","238635.022532","239402.196912","240169.398935","240936.649935","250212.65511","Mapping"
"Mixed","Male","ball","6","M_cad.wav","None","730.283949586","411","249443.864205","241703.866681","242471.096046","243238.340435","244005.601651","244772.879092","245540.030335","246307.235363","250210.026604","250977.345509","251744.45649","237868.097842","238635.022532","239402.196912","240169.398935","240936.649935","250980.311443","Mapping"
"Mixed","Male","ball","6","F_dime.wav","None","731.229827236","411","249443.864205","241703.866681","242471.096046","243238.340435","244005.601651","244772.879092","245540.030335","246307.235363","250210.026604","250977.345509","251744.45649","252511.724316","238635.022532","239402.196912","240169.398935","240936.649935","251747.217804","Mapping"
"Mixed","Male","ball","6","F_gnash.wav","None","732.092775334","411","249443.864205","241703.866681","242471.096046","243238.340435","244005.601651","244772.879092","245540.030335","246307.235363","250210.026604","250977.345509","251744.45649","252511.724316","253278.957588","239402.196912","240169.398935","240936.649935","252514.546324","Mapping"
"Mixed","Male","ball","6","F_lash.wav","None","732.694915998","411","249443.864205","241703.866681","242471.096046","243238.340435","244005.601651","244772.879092","245540.030335","246307.235363","250210.026604","250977.345509","251744.45649","252511.724316","253278.957588","254046.204681","240169.398935","240936.649935","253281.864328","Mapping"
"Mixed","Male","ball","6","M_cad.wav","None","733.680756077","411","249443.864205","241703.866681","242471.096046","243238.340435","244005.601651","244772.879092","245540.030335","246307.235363","250210.026604","250977.345509","251744.45649","252511.724316","253278.957588","254046.204681","254813.407004","240936.649935","254048.718408","Mapping"
"Mixed","Male","ball","6","M_ball.wav","None","733.826784202","411","249443.864205","241703.866681","242471.096046","243238.340435","244005.601651","244772.879092","245540.030335","246307.235363","250210.026604","250977.345509","251744.45649","252511.724316","253278.957588","254046.204681","254813.407004","255580.580483","254816.221802","Mapping"
"Mixed","Male","ball","6","F_greet.wav","space","479.412137642","411","249443.864205","256347.797229","242471.096046","243238.340435","244005.601651","244772.879092","245540.030335","246307.235363","250210.026604","250977.345509","251744.45649","252511.724316","253278.957588","254046.204681","254813.407004","255580.580483","255583.325872","Mapping"
"Mixed","Male","ball","6","M_cling.wav","None","734.301525844","411","249443.864205","256347.797229","257115.015778","243238.340435","244005.601651","244772.879092","245540.030335","246307.235363","250210.026604","250977.345509","251744.45649","252511.724316","253278.957588","254046.204681","254813.407004","255580.580483","256350.585284","Mapping"
"Mixed","Male","ball","6","M_ball.wav","None","734.770258097","411","249443.864205","256347.797229","257115.015778","257882.199172","244005.601651","244772.879092","245540.030335","246307.235363","250210.026604","250977.345509","251744.45649","252511.724316","253278.957588","254046.204681","254813.407004","255580.580483","257118.025279","Mapping"
"Mixed","Male","ball","6","F_jolt.wav","space","493.425128736","411","249443.864205","256347.797229","257115.015778","257882.199172","258649.454378","244772.879092","245540.030335","246307.235363","250210.026604","250977.345509","251744.45649","252511.724316","253278.957588","254046.204681","254813.407004","255580.580483","257885.297311","Mapping"
"Mixed","Male","ball","6","F_depth.wav","None","734.876023324","411","249443.864205","256347.797229","257115.015778","257882.199172","258649.454378","259417.04641","245540.030335","246307.235363","250210.026604","250977.345509","251744.45649","252511.724316","253278.957588","254046.204681","254813.407004","255580.580483","258652.297719","Mapping"
"Mixed","Male","ball","6","M_ball.wav","None","735.474257885","411","249443.864205","256347.797229","257115.015778","257882.199172","258649.454378","259417.04641","260184.318743","246307.235363","250210.026604","250977.345509","251744.45649","252511.724316","253278.957588","254046.204681","254813.407004","255580.580483","259419.928212","Mapping"
"Mixed","Male","ball","6","F_greet.wav","space","435.50935271","411","249443.864205","256347.797229","257115.015778","257882.199172","258649.454378","259417.04641","260184.318743","260951.169817","250210.026604","250977.345509","251744.45649","252511.724316","253278.957588","254046.204681","254813.407004","255580.580483","260187.260038","Mapping"
"Mixed","Female","done","45","M_jolt.wav","None","736.573374927","411","264087.556781","256347.797229","257115.015778","257882.199172","258649.454378","259417.04641","260184.318743","260951.169817","250210.026604","250977.345509","251744.45649","252511.724316","253278.957588","254046.204681","254813.407004","255580.580483","260953.965986","Mapping"
"Mixed","Female","done","45","M_depth.wav","None","728.18216618","411","264087.556781","256347.797229","257115.015778","257882.199172","258649.454378","259417.04641","260184.318743","260951.169817","264854.901828","250977.345509","251744.45649","252511.724316","253278.957588","254046.204681","254813.407004","255580.580483","264091.896761","Mapping"
"Mixed","Female","done","45","M_bluff.wav","None","729.920982559","411","264087.556781","256347.797229","257115.015778","257882.199172","258649.454378","259417.04641","260184.318743","260951.169817","264854.901828","265621.222273","251744.45649","252511.724316","253278.957588","254046.204681","254813.407004","255580.580483","264858.178146","Mapping"
"Mixed","Female","done","45","F_priest.wav","None","732.621901935","411","264087.556781","256347.797229","257115.015778","257882.199172","258649.454378","259417.04641","260184.318743","260951.169817","264854.901828","265621.222273","266388.353987","252511.724316","253278.957588","254046.204681","254813.407004","255580.580483","265623.824939","Mapping"
"Mixed","Female","done","45","M_lash.wav","None","732.576531056","411","264087.556781","256347.797229","257115.015778","257882.199172","258649.454378","259417.04641","260184.318743","260951.169817","264854.901828","265621.222273","266388.353987","267155.622714","253278.957588","254046.204681","254813.407004","255580.580483","266391.566906","Mapping"
"Mixed","Female","done","45","F_done.wav","None","733.371573071","411","264087.556781","256347.797229","257115.015778","257882.199172","258649.454378","259417.04641","260184.318743","260951.169817","264854.901828","265621.222273","266388.353987","267155.622714","267922.896849","254046.204681","254813.407004","255580.580483","267158.809192","Mapping"
"Mixed","Female","done","45","M_bluff.wav","space","385.025386659","411","264087.556781","256347.797229","257115.015778","257882.199172","258649.454378","259417.04641","260184.318743","260951.169817","264854.901828","265621.222273","266388.353987","267155.622714","267922.896849","268690.167379","254813.407004","255580.580483","267925.719759","Mapping"
"Mixed","Female","done","45","F_done.wav","None","733.626070647","411","264087.556781","256347.797229","257115.015778","257882.199172","258649.454378","259417.04641","260184.318743","260951.169817","264854.901828","265621.222273","266388.353987","267155.622714","267922.896849","268690.167379","269457.300595","255580.580483","268693.316599","Mapping"
"Mixed","Female","done","45","M_gnash.wav","space","383.325030362","411","264087.556781","256347.797229","257115.015778","257882.199172","258649.454378","259417.04641","260184.318743","260951.169817","264854.901828","265621.222273","266388.353987","267155.622714","267922.896849","268690.167379","269457.300595","270224.869491","269460.399336","Mapping"
"Mixed","Female","done","45","F_gnash.wav","None","732.982164737","411","264087.556781","270992.278538","257115.015778","257882.199172","258649.454378","259417.04641","260184.318743","260951.169817","264854.901828","265621.222273","266388.353987","267155.622714","267922.896849","268690.167379","269457.300595","270224.869491","270228.3318","Mapping"
"Mixed","Female","done","45","F_done.wav","None","733.83730063","411","264087.556781","270992.278538","271759.000711","257882.199172","258649.454378","259417.04641","260184.318743","260951.169817","264854.901828","265621.222273","266388.353987","267155.622714","267922.896849","268690.167379","269457.300595","270224.869491","270995.396208","Mapping"
"Mixed","Female","done","45","F_bluff.wav","space","548.677544059","411","264087.556781","270992.278538","271759.000711","272526.19372","258649.454378","259417.04641","260184.318743","260951.169817","264854.901828","265621.222273","266388.353987","267155.622714","267922.896849","268690.167379","269457.300595","270224.869491","271762.05378","Mapping"
"Mixed","Female","done","45","M_reek.wav","None","734.884436467","411","264087.556781","270992.278538","271759.000711","272526.19372","273293.373208","259417.04641","260184.318743","260951.169817","264854.901828","265621.222273","266388.353987","267155.622714","267922.896849","268690.167379","269457.300595","270224.869491","272529.049381","Mapping"
"Mixed","Female","done","45","M_priest.wav","None","736.102539387","411","264087.556781","270992.278538","271759.000711","272526.19372","273293.373208","274060.689109","260184.318743","260951.169817","264854.901828","265621.222273","266388.353987","267155.622714","267922.896849","268690.167379","269457.300595","270224.869491","273295.969263","Mapping"
"Mixed","Female","done","45","F_done.wav","None","737.012961648","411","264087.556781","270992.278538","271759.000711","272526.19372","273293.373208","274060.689109","274827.897742","260951.169817","264854.901828","265621.222273","266388.353987","267155.622714","267922.896849","268690.167379","269457.300595","270224.869491","274063.341352","Mapping"
"Mixed","Female","done","45","F_gnash.wav","space","645.981552381","411","264087.556781","270992.278538","271759.000711","272526.19372","273293.373208","274060.689109","274827.897742","275595.125004","264854.901828","265621.222273","266388.353987","267155.622714","267922.896849","268690.167379","269457.300595","270224.869491","274830.767825","Mapping"
"Mixed","Male","cave","13","F_bluff.wav","None","737.280980347","411","278731.431743","270992.278538","271759.000711","272526.19372","273293.373208","274060.689109","274827.897742","275595.125004","264854.901828","265621.222273","266388.353987","267155.622714","267922.896849","268690.167379","269457.300595","270224.869491","275597.937097","Mapping"
"Mixed","Male","cave","13","M_cave.wav","None","728.531011146","411","278731.431743","270992.278538","271759.000711","272526.19372","273293.373208","274060.689109","274827.897742","275595.125004","279498.652395","265621.222273","266388.353987","267155.622714","267922.896849","268690.167379","269457.300595","270224.869491","278735.096267","Mapping"
"Mixed","Male","cave","13","M_dime.wav","space","555.123814423","411","278731.431743","270992.278538","271759.000711","272526.19372","273293.373208","274060.689109","274827.897742","275595.125004","279498.652395","280266.150681","266388.353987","267155.622714","267922.896849","268690.167379","269457.300595","270224.869491","279502.555793","Mapping"
"Mixed","Male","cave","13","F_gnash.wav","None","728.239255364","411","278731.431743","270992.278538","271759.000711","272526.19372","273293.373208","274060.689109","274827.897742","275595.125004","279498.652395","280266.150681","281032.390901","267155.622714","267922.896849","268690.167379","269457.300595","270224.869491","280270.192294","Mapping"
"Mixed","Male","cave","13","M_cave.wav","None","731.982503066","411","278731.431743","270992.278538","271759.000711","272526.19372","273293.373208","274060.689109","274827.897742","275595.125004","279498.652395","280266.150681","281032.390901","281799.638595","267922.896849","268690.167379","269457.300595","270224.869491","281034.910637","Mapping"
"Mixed","Male","cave","13","F_priest.wav","space","527.074095152","411","278731.431743","270992.278538","271759.000711","272526.19372","273293.373208","274060.689109","274827.897742","275595.125004","279498.652395","280266.150681","281032.390901","281799.638595","282566.887492","268690.167379","269457.300595","270224.869491","281802.663721","Mapping"
"Mixed","Male","cave","13","M_cave.wav","None","732.08496313","411","278731.431743","270992.278538","271759.000711","272526.19372","273293.373208","274060.689109","274827.897742","275595.125004","279498.652395","280266.150681","281032.390901","281799.638595","282566.887492","283334.069684","269457.300595","270224.869491","282569.747359","Mapping"
"Mixed","Male","cave","13","F_bluff.wav","space","494.878198722","411","278731.431743","270992.278538","271759.000711","272526.19372","273293.373208","274060.689109","274827.897742","275595.125004","279498.652395","280266.150681","281032.390901","281799.638595","282566.887492","283334.069684","284101.30596","270224.869491","283336.843317","Mapping"
"Mixed","Male","cave","13","M_jolt.wav","space","4.37513483572","411","278731.431743","270992.278538","271759.000711","272526.19372","273293.373208","274060.689109","274827.897742","275595.125004","279498.652395","280266.150681","281032.390901","281799.638595","282566.887492","283334.069684","284101.30596","284868.545241","284104.385171","Mapping"
"Mixed","Male","cave","13","M_jolt.wav","None","731.863817656","411","278731.431743","285635.681462","271759.000711","272526.19372","273293.373208","274060.689109","274827.897742","275595.125004","279498.652395","280266.150681","281032.390901","281799.638595","282566.887492","283334.069684","284101.30596","284868.545241","284871.57187","Mapping"
"Mixed","Male","cave","13","F_gnash.wav","None","733.251986253","411","278731.431743","285635.681462","286402.911428","272526.19372","273293.373208","274060.689109","274827.897742","275595.125004","279498.652395","280266.150681","281032.390901","281799.638595","282566.887492","283334.069684","284101.30596","284868.545241","285638.349029","Mapping"
"Mixed","Male","cave","13","M_cave.wav","None","734.487215928","411","278731.431743","285635.681462","286402.911428","287170.198785","273293.373208","274060.689109","274827.897742","275595.125004","279498.652395","280266.150681","281032.390901","281799.638595","282566.887492","283334.069684","284101.30596","284868.545241","286405.534526","Mapping"
"Mixed","Male","cave","13","F_jaw.wav","space","415.845734206","411","278731.431743","285635.681462","286402.911428","287170.198785","287937.314873","274060.689109","274827.897742","275595.125004","279498.652395","280266.150681","281032.390901","281799.638595","282566.887492","283334.069684","284101.30596","284868.545241","287172.887084","Mapping"
"Mixed","Male","cave","13","F_romp.wav","None","734.147985983","411","278731.431743","285635.681462","286402.911428","287170.198785","287937.314873","288704.62176","274827.897742","275595.125004","279498.652395","280266.150681","281032.390901","281799.638595","282566.887492","283334.069684","284101.30596","284868.545241","287940.507661","Mapping"
"Mixed","Male","cave","13","F_cad.wav","None","734.818032731","411","278731.431743","285635.681462","286402.911428","287170.198785","287937.314873","288704.62176","289471.810863","275595.125004","279498.652395","280266.150681","281032.390901","281799.638595","282566.887492","283334.069684","284101.30596","284868.545241","288707.695862","Mapping"
"Mixed","Male","cave","13","M_park.wav","None","735.816492524","411","278731.431743","285635.681462","286402.911428","287170.198785","287937.314873","288704.62176","289471.810863","290239.119853","279498.652395","280266.150681","281032.390901","281799.638595","282566.887492","283334.069684","284101.30596","284868.545241","289475.2275","Mapping"
"Mixed","Male","tile","26","M_lash.wav","None","737.588961476","411","293374.874028","285635.681462","286402.911428","287170.198785","287937.314873","288704.62176","289471.810863","290239.119853","279498.652395","280266.150681","281032.390901","281799.638595","282566.887492","283334.069684","284101.30596","284868.545241","290241.901599","Mapping"
"Mixed","Male","tile","26","M_tile.wav","None","730.959404783","411","293374.874028","285635.681462","286402.911428","287170.198785","287937.314873","288704.62176","289471.810863","290239.119853","294141.933028","280266.150681","281032.390901","281799.638595","282566.887492","283334.069684","284101.30596","284868.545241","293378.19091","Mapping"
"Mixed","Male","tile","26","M_cling.wav","space","620.10602964","411","293374.874028","285635.681462","286402.911428","287170.198785","287937.314873","288704.62176","289471.810863","290239.119853","294141.933028","294909.079764","281032.390901","281799.638595","282566.887492","283334.069684","284101.30596","284868.545241","294144.648971","Mapping"
"Mixed","Male","tile","26","F_depth.wav","None","732.681995814","411","293374.874028","285635.681462","286402.911428","287170.198785","287937.314873","288704.62176","289471.810863","290239.119853","294141.933028","294909.079764","295676.25174","281799.638595","282566.887492","283334.069684","284101.30596","284868.545241","294911.788796","Mapping"
"Mixed","Male","tile","26","M_tile.wav","None","733.761582343","411","293374.874028","285635.681462","286402.911428","287170.198785","287937.314873","288704.62176","289471.810863","290239.119853","294141.933028","294909.079764","295676.25174","296443.480806","282566.887492","283334.069684","284101.30596","284868.545241","295679.147364","Mapping"
"Mixed","Male","tile","26","M_lash.wav","space","472.560534066","411","293374.874028","285635.681462","286402.911428","287170.198785","287937.314873","288704.62176","289471.810863","290239.119853","294141.933028","294909.079764","295676.25174","296443.480806","297210.784087","283334.069684","284101.30596","284868.545241","296446.179021","Mapping"
"Mixed","Male","tile","26","M_tile.wav","None","734.376342723","411","293374.874028","285635.681462","286402.911428","287170.198785","287937.314873","288704.62176","289471.810863","290239.119853","294141.933028","294909.079764","295676.25174","296443.480806","297210.784087","297978.017359","284101.30596","284868.545241","297213.810715","Mapping"
"Mixed","Male","tile","26","F_priest.wav","space","521.868162444","411","293374.874028","285635.681462","286402.911428","287170.198785","287937.314873","288704.62176","289471.810863","290239.119853","294141.933028","294909.079764","295676.25174","296443.480806","297210.784087","297978.017359","298745.182424","284868.545241","297980.891048","Mapping"
"Mixed","Male","tile","26","F_jaw.wav","None","735.513919845","411","293374.874028","285635.681462","286402.911428","287170.198785","287937.314873","288704.62176","289471.810863","290239.119853","294141.933028","294909.079764","295676.25174","296443.480806","297210.784087","297978.017359","298745.182424","299512.477292","298748.076545","Mapping"
"Mixed","Male","tile","26","F_lash.wav","None","736.018107487","411","293374.874028","300279.660085","286402.911428","287170.198785","287937.314873","288704.62176","289471.810863","290239.119853","294141.933028","294909.079764","295676.25174","296443.480806","297210.784087","297978.017359","298745.182424","299512.477292","299515.604277","Mapping"
"Mixed","Male","tile","26","F_jolt.wav","None","737.743402743","411","293374.874028","300279.660085","301046.909282","287170.198785","287937.314873","288704.62176","289471.810863","290239.119853","294141.933028","294909.079764","295676.25174","296443.480806","297210.784087","297978.017359","298745.182424","299512.477292","300282.435821","Mapping"
"Mixed","Male","tile","26","M_tile.wav","None","738.805862518","411","293374.874028","300279.660085","301046.909282","301814.115511","287937.314873","288704.62176","289471.810863","290239.119853","294141.933028","294909.079764","295676.25174","296443.480806","297210.784087","297978.017359","298745.182424","299512.477292","301049.707553","Mapping"
"Mixed","Male","tile","26","F_park.wav","space","419.320061801","411","293374.874028","300279.660085","301046.909282","301814.115511","302581.373422","288704.62176","289471.810863","290239.119853","294141.933028","294909.079764","295676.25174","296443.480806","297210.784087","297978.017359","298745.182424","299512.477292","301817.382815","Mapping"
"Mixed","Male","tile","26","M_depth.wav","None","739.27519571","411","293374.874028","300279.660085","301046.909282","301814.115511","302581.373422","303348.511445","289471.810863","290239.119853","294141.933028","294909.079764","295676.25174","296443.480806","297210.784087","297978.017359","298745.182424","299512.477292","302584.216463","Mapping"
"Mixed","Male","tile","26","F_knife.wav","None","740.78625629","411","293374.874028","300279.660085","301046.909282","301814.115511","302581.373422","303348.511445","304115.851984","290239.119853","294141.933028","294909.079764","295676.25174","296443.480806","297210.784087","297978.017359","298745.182424","299512.477292","303351.281472","Mapping"
"Mixed","Male","tile","26","F_reek.wav","None","741.526312405","411","293374.874028","300279.660085","301046.909282","301814.115511","302581.373422","303348.511445","304115.851984","304899.923861","294141.933028","294909.079764","295676.25174","296443.480806","297210.784087","297978.017359","298745.182424","299512.477292","304118.920077","Mapping"
"Mixed","Female","done","47","M_jolt.wav","None","725.803650463","411","308019.471018","300279.660085","301046.909282","301814.115511","302581.373422","303348.511445","304115.851984","304899.923861","294141.933028","294909.079764","295676.25174","296443.480806","297210.784087","297978.017359","298745.182424","299512.477292","304903.311954","Mapping"
"Mixed","Female","done","47","M_priest.wav","None","728.399105082","411","308019.471018","300279.660085","301046.909282","301814.115511","302581.373422","303348.511445","304115.851984","304899.923861","308785.869285","294909.079764","295676.25174","296443.480806","297210.784087","297978.017359","298745.182424","299512.477292","308023.529458","Mapping"
"Mixed","Female","done","47","F_cad.wav","None","731.99572372","411","308019.471018","300279.660085","301046.909282","301814.115511","302581.373422","303348.511445","304115.851984","304899.923861","308785.869285","309553.099552","295676.25174","296443.480806","297210.784087","297978.017359","298745.182424","299512.477292","308788.553078","Mapping"
"Mixed","Female","done","47","M_dime.wav","None","733.237263252","411","308019.471018","300279.660085","301046.909282","301814.115511","302581.373422","303348.511445","304115.851984","304899.923861","308785.869285","309553.099552","310320.165462","296443.480806","297210.784087","297978.017359","298745.182424","299512.477292","309555.765317","Mapping"
"Mixed","Female","done","47","F_done.wav","None","734.492023439","411","308019.471018","300279.660085","301046.909282","301814.115511","302581.373422","303348.511445","304115.851984","304899.923861","308785.869285","309553.099552","310320.165462","311087.487673","297210.784087","297978.017359","298745.182424","299512.477292","310322.920767","Mapping"
"Mixed","Female","done","47","F_gnash.wav","space","501.669407949","411","308019.471018","300279.660085","301046.909282","301814.115511","302581.373422","303348.511445","304115.851984","304899.923861","308785.869285","309553.099552","310320.165462","311087.487673","311854.744382","297978.017359","298745.182424","299512.477292","311090.092142","Mapping"
"Mixed","Female","done","47","M_dime.wav","None","734.928004529","411","308019.471018","300279.660085","301046.909282","301814.115511","302581.373422","303348.511445","304115.851984","304899.923861","308785.869285","309553.099552","310320.165462","311087.487673","311854.744382","312622.004996","298745.182424","299512.477292","311857.708813","Mapping"
"Mixed","Female","done","47","M_bluff.wav","None","736.070990101","411","308019.471018","300279.660085","301046.909282","301814.115511","302581.373422","303348.511445","304115.851984","304899.923861","308785.869285","309553.099552","310320.165462","311087.487673","311854.744382","312622.004996","313389.174268","299512.477292","312624.888301","Mapping"
"Mixed","Female","done","47","M_jolt.wav","None","737.372022574","411","308019.471018","300279.660085","301046.909282","301814.115511","302581.373422","303348.511445","304115.851984","304899.923861","308785.869285","309553.099552","310320.165462","311087.487673","311854.744382","312622.004996","313389.174268","314156.3183","313391.975544","Mapping"
"Mixed","Female","done","47","F_done.wav","None","738.852134805","411","308019.471018","314923.628492","301046.909282","301814.115511","302581.373422","303348.511445","304115.851984","304899.923861","308785.869285","309553.099552","310320.165462","311087.487673","311854.744382","312622.004996","313389.174268","314156.3183","314158.855764","Mapping"
"Mixed","Female","done","47","M_reek.wav","space","474.514486531","411","308019.471018","314923.628492","315690.869877","301814.115511","302581.373422","303348.511445","304115.851984","304899.923861","308785.869285","309553.099552","310320.165462","311087.487673","311854.744382","312622.004996","313389.174268","314156.3183","314926.201111","Mapping"
"Mixed","Female","done","47","F_done.wav","None","739.414012571","411","308019.471018","314923.628492","315690.869877","316458.159337","302581.373422","303348.511445","304115.851984","304899.923861","308785.869285","309553.099552","310320.165462","311087.487673","311854.744382","312622.004996","313389.174268","314156.3183","315693.473144","Mapping"
"Mixed","Female","done","47","M_greet.wav","space","572.52790309","411","308019.471018","314923.628492","315690.869877","316458.159337","317225.286843","303348.511445","304115.851984","304899.923861","308785.869285","309553.099552","310320.165462","311087.487673","311854.744382","312622.004996","313389.174268","314156.3183","316461.197082","Mapping"
"Mixed","Female","done","47","F_bluff.wav","None","739.345205079","411","308019.471018","314923.628492","315690.869877","316458.159337","317225.286843","317992.439589","304115.851984","304899.923861","308785.869285","309553.099552","310320.165462","311087.487673","311854.744382","312622.004996","313389.174268","314156.3183","317228.237453","Mapping"
"Mixed","Female","done","47","F_done.wav","None","740.200941912","411","308019.471018","314923.628492","315690.869877","316458.159337","317225.286843","317992.439589","318759.687884","304899.923861","308785.869285","309553.099552","310320.165462","311087.487673","311854.744382","312622.004996","313389.174268","314156.3183","317995.392903","Mapping"
