"Condition","Talker","Target","Trial","current_stimulus","response_response","response_time_response","subject_nr","time_Audio1","time_Audio10","time_Audio11","time_Audio12","time_Audio13","time_Audio14","time_Audio15","time_Audio16","time_Audio2","time_Audio3","time_Audio4","time_Audio5","time_Audio6","time_Audio7","time_Audio8","time_Audio9","time_response"
"Blocked","Male","done","22","M_priest.wav","NA","NA","441","13194.8481475","NA","NA","NA","NA","NA","NA","NA","NA","NA","NA","NA","NA","NA","NA","NA","NA"
"Blocked","Male","done","22","M_cad.wav","None","739.067289682","441","13194.8481475","NA","NA","NA","NA","NA","NA","NA","13961.5320552","NA","NA","NA","NA","NA","NA","NA","13202.1183085"
"Blocked","Male","done","22","M_cad.wav","None","737.138340244","441","13194.8481475","NA","NA","NA","NA","NA","NA","NA","13961.5320552","14728.1627787","NA","NA","NA","NA","NA","NA","13967.0290204"
"Blocked","Male","done","22","M_done.wav","None","733.579383239","441","13194.8481475","NA","NA","NA","NA","NA","NA","NA","13961.5320552","14728.1627787","15494.7546368","NA","NA","NA","NA","NA","14733.3041113"
"Blocked","Male","done","22","M_depth.wav","None","729.838664902","441","13194.8481475","NA","NA","NA","NA","NA","NA","NA","13961.5320552","14728.1627787","15494.7546368","16244.7372497","NA","NA","NA","NA","15499.974869"
"Blocked","Male","done","22","M_done.wav","space","165.277449029","441","13194.8481475","NA","NA","NA","NA","NA","NA","NA","13961.5320552","14728.1627787","15494.7546368","16244.7372497","17011.3825842","NA","NA","NA","16249.9142332"
"Blocked","Male","done","22","M_jaw.wav","space","606.471813844","441","13194.8481475","NA","NA","NA","NA","NA","NA","NA","13961.5320552","14728.1627787","15494.7546368","16244.7372497","17011.3825842","17778.0711675","NA","NA","17016.6451884"
"Blocked","Male","done","22","M_cling.wav","None","734.766384089","441","13194.8481475","NA","NA","NA","NA","NA","NA","NA","13961.5320552","14728.1627787","15494.7546368","16244.7372497","17011.3825842","17778.0711675","18544.696631","NA","17783.5377418"
"Blocked","Male","done","22","M_done.wav","None","731.575333059","441","13194.8481475","NA","NA","NA","NA","NA","NA","NA","13961.5320552","14728.1627787","15494.7546368","16244.7372497","17011.3825842","17778.0711675","18544.696631","19311.5640533","18549.7099709"
"Blocked","Male","done","22","M_jaw.wav","space","530.072149313","441","13194.8481475","20061.3079218","NA","NA","NA","NA","NA","NA","13961.5320552","14728.1627787","15494.7546368","16244.7372497","17011.3825842","17778.0711675","18544.696631","19311.5640533","19316.931857"
"Blocked","Male","done","22","M_reek.wav","None","740.844284308","441","13194.8481475","20061.3079218","20827.9816018","NA","NA","NA","NA","NA","13961.5320552","14728.1627787","15494.7546368","16244.7372497","17011.3825842","17778.0711675","18544.696631","19311.5640533","20066.3449316"
"Blocked","Male","done","22","M_done.wav","None","740.115485657","441","13194.8481475","20061.3079218","20827.9816018","21594.6015131","NA","NA","NA","NA","13961.5320552","14728.1627787","15494.7546368","16244.7372497","17011.3825842","17778.0711675","18544.696631","19311.5640533","20829.9453255"
"Blocked","Male","done","22","M_bluff.wav","space","454.989231664","441","13194.8481475","20061.3079218","20827.9816018","21594.6015131","22361.251231","NA","NA","NA","13961.5320552","14728.1627787","15494.7546368","16244.7372497","17011.3825842","17778.0711675","18544.696631","19311.5640533","21599.8872028"
"Blocked","Male","done","22","M_dime.wav","None","729.646968063","441","13194.8481475","20061.3079218","20827.9816018","21594.6015131","22361.251231","23111.2028684","NA","NA","13961.5320552","14728.1627787","15494.7546368","16244.7372497","17011.3825842","17778.0711675","18544.696631","19311.5640533","22366.3320739"
"Blocked","Male","done","22","M_park.wav","None","742.694626352","441","13194.8481475","20061.3079218","20827.9816018","21594.6015131","22361.251231","23111.2028684","23877.9487269","NA","13961.5320552","14728.1627787","15494.7546368","16244.7372497","17011.3825842","17778.0711675","18544.696631","19311.5640533","23116.2889713"
"Blocked","Male","done","22","M_cling.wav","None","738.780913307","441","13194.8481475","20061.3079218","20827.9816018","21594.6015131","22361.251231","23111.2028684","23877.9487269","24644.508733","13961.5320552","14728.1627787","15494.7546368","16244.7372497","17011.3825842","17778.0711675","18544.696631","19311.5640533","23883.125126"
"Blocked","Male","tile","18","M_bluff.wav","None","735.291212628","441","27777.7359902","20061.3079218","20827.9816018","21594.6015131","22361.251231","23111.2028684","23877.9487269","24644.508733","13961.5320552","14728.1627787","15494.7546368","16244.7372497","17011.3825842","17778.0711675","18544.696631","19311.5640533","24649.7441607"
"Blocked","Male","tile","18","M_bluff.wav","None","740.534238049","441","27777.7359902","20061.3079218","20827.9816018","21594.6015131","22361.251231","23111.2028684","23877.9487269","24644.508733","28544.4876931","14728.1627787","15494.7546368","16244.7372497","17011.3825842","17778.0711675","18544.696631","19311.5640533","27782.9544691"
"Blocked","Male","tile","18","M_tile.wav","None","737.116131465","441","27777.7359902","20061.3079218","20827.9816018","21594.6015131","22361.251231","23111.2028684","23877.9487269","24644.508733","28544.4876931","29311.0789668","15494.7546368","16244.7372497","17011.3825842","17778.0711675","18544.696631","19311.5640533","28549.4744409"
"Blocked","Male","tile","18","M_knife.wav","space","530.25946284","441","27777.7359902","20061.3079218","20827.9816018","21594.6015131","22361.251231","23111.2028684","23877.9487269","24644.508733","28544.4876931","29311.0789668","30077.7485557","16244.7372497","17011.3825842","17778.0711675","18544.696631","19311.5640533","29316.1332176"
"Blocked","Male","tile","18","M_greet.wav","None","729.734049859","441","27777.7359902","20061.3079218","20827.9816018","21594.6015131","22361.251231","23111.2028684","23877.9487269","24644.508733","28544.4876931","29311.0789668","30077.7485557","30827.7165575","17011.3825842","17778.0711675","18544.696631","19311.5640533","30082.7627722"
"Blocked","Male","tile","18","M_jolt.wav","None","742.685859728","441","27777.7359902","20061.3079218","20827.9816018","21594.6015131","22361.251231","23111.2028684","23877.9487269","24644.508733","28544.4876931","29311.0789668","30077.7485557","30827.7165575","31594.3595543","17778.0711675","18544.696631","19311.5640533","30832.9756551"
"Blocked","Male","tile","18","M_dime.wav","None","739.537765154","441","27777.7359902","20061.3079218","20827.9816018","21594.6015131","22361.251231","23111.2028684","23877.9487269","24644.508733","28544.4876931","29311.0789668","30077.7485557","30827.7165575","31594.3595543","32361.0013822","18544.696631","19311.5640533","31599.3112356"
"Blocked","Male","tile","18","M_dime.wav","None","735.751460373","441","27777.7359902","20061.3079218","20827.9816018","21594.6015131","22361.251231","23111.2028684","23877.9487269","24644.508733","28544.4876931","29311.0789668","30077.7485557","30827.7165575","31594.3595543","32361.0013822","33127.616618","19311.5640533","32366.1918079"
"Blocked","Male","tile","18","M_depth.wav","None","732.406993428","441","27777.7359902","20061.3079218","20827.9816018","21594.6015131","22361.251231","23111.2028684","23877.9487269","24644.508733","28544.4876931","29311.0789668","30077.7485557","30827.7165575","31594.3595543","32361.0013822","33127.616618","33894.4670916","33132.556026"
"Blocked","Male","tile","18","M_tile.wav","None","728.012577183","441","27777.7359902","34644.3488882","20827.9816018","21594.6015131","22361.251231","23111.2028684","23877.9487269","24644.508733","28544.4876931","29311.0789668","30077.7485557","30827.7165575","31594.3595543","32361.0013822","33127.616618","33894.4670916","33900.1817613"
"Blocked","Male","tile","18","M_priest.wav","space","453.087750981","441","27777.7359902","34644.3488882","35410.9240898","21594.6015131","22361.251231","23111.2028684","23877.9487269","24644.508733","28544.4876931","29311.0789668","30077.7485557","30827.7165575","31594.3595543","32361.0013822","33127.616618","33894.4670916","34649.0574418"
"Blocked","Male","tile","18","M_gnash.wav","None","738.099454424","441","27777.7359902","34644.3488882","35410.9240898","36177.635174","22361.251231","23111.2028684","23877.9487269","24644.508733","28544.4876931","29311.0789668","30077.7485557","30827.7165575","31594.3595543","32361.0013822","33127.616618","33894.4670916","35416.1557186"
"Blocked","Male","tile","18","M_tile.wav","None","734.4966643","441","27777.7359902","34644.3488882","35410.9240898","36177.635174","36944.2165122","23111.2028684","23877.9487269","24644.508733","28544.4876931","29311.0789668","30077.7485557","30827.7165575","31594.3595543","32361.0013822","33127.616618","33894.4670916","36182.8296908"
"Blocked","Male","tile","18","M_dime.wav","space","600.85416137","441","27777.7359902","34644.3488882","35410.9240898","36177.635174","36944.2165122","37711.2566371","23877.9487269","24644.508733","28544.4876931","29311.0789668","30077.7485557","30827.7165575","31594.3595543","32361.0013822","33127.616618","33894.4670916","36949.1120871"
"Blocked","Male","tile","18","M_tile.wav","None","726.411791693","441","27777.7359902","34644.3488882","35410.9240898","36177.635174","36944.2165122","37711.2566371","38460.8187442","24644.508733","28544.4876931","29311.0789668","30077.7485557","30827.7165575","31594.3595543","32361.0013822","33127.616618","33894.4670916","37716.8076632"
"Blocked","Male","tile","18","M_cling.wav","space","636.114983036","441","27777.7359902","34644.3488882","35410.9240898","36177.635174","36944.2165122","37711.2566371","38460.8187442","39227.4982686","28544.4876931","29311.0789668","30077.7485557","30827.7165575","31594.3595543","32361.0013822","33127.616618","33894.4670916","38465.7958487"
"Blocked","Male","tile","16","M_reek.wav","None","736.479674583","441","42310.7823627","34644.3488882","35410.9240898","36177.635174","36944.2165122","37711.2566371","38460.8187442","39227.4982686","28544.4876931","29311.0789668","30077.7485557","30827.7165575","31594.3595543","32361.0013822","33127.616618","33894.4670916","39232.7281441"
"Blocked","Male","tile","16","M_tile.wav","None","740.851882048","441","42310.7823627","34644.3488882","35410.9240898","36177.635174","36944.2165122","37711.2566371","38460.8187442","39227.4982686","43077.3669153","29311.0789668","30077.7485557","30827.7165575","31594.3595543","32361.0013822","33127.616618","33894.4670916","42315.7293685"
"Blocked","Male","tile","16","M_greet.wav","space","451.24237669","441","42310.7823627","34644.3488882","35410.9240898","36177.635174","36944.2165122","37711.2566371","38460.8187442","39227.4982686","43077.3669153","43844.0072821","30077.7485557","30827.7165575","31594.3595543","32361.0013822","33127.616618","33894.4670916","43082.3682742"
"Blocked","Male","tile","16","M_romp.wav","None","733.706791503","441","42310.7823627","34644.3488882","35410.9240898","36177.635174","36944.2165122","37711.2566371","38460.8187442","39227.4982686","43077.3669153","43844.0072821","44610.7525562","30827.7165575","31594.3595543","32361.0013822","33127.616618","33894.4670916","43849.1871879"
"Blocked","Male","tile","16","M_jolt.wav","None","730.518078239","441","42310.7823627","34644.3488882","35410.9240898","36177.635174","36944.2165122","37711.2566371","38460.8187442","39227.4982686","43077.3669153","43844.0072821","44610.7525562","45360.7313702","31594.3595543","32361.0013822","33127.616618","33894.4670916","44615.6004991"
"Blocked","Male","tile","16","M_tile.wav","None","743.626810673","441","42310.7823627","34644.3488882","35410.9240898","36177.635174","36944.2165122","37711.2566371","38460.8187442","39227.4982686","43077.3669153","43844.0072821","44610.7525562","45360.7313702","46127.3279039","32361.0013822","33127.616618","33894.4670916","45365.6424328"
"Blocked","Male","tile","16","M_park.wav","space","377.13547648","441","42310.7823627","34644.3488882","35410.9240898","36177.635174","36944.2165122","37711.2566371","38460.8187442","39227.4982686","43077.3669153","43844.0072821","44610.7525562","45360.7313702","46127.3279039","46893.9361264","33127.616618","33894.4670916","46132.3155283"
"Blocked","Male","tile","16","M_knife.wav","None","736.426490399","441","42310.7823627","34644.3488882","35410.9240898","36177.635174","36944.2165122","37711.2566371","38460.8187442","39227.4982686","43077.3669153","43844.0072821","44610.7525562","45360.7313702","46127.3279039","46893.9361264","47660.570941","33894.4670916","46898.9208286"
"Blocked","Male","tile","16","M_reek.wav","None","732.875131134","441","42310.7823627","34644.3488882","35410.9240898","36177.635174","36944.2165122","37711.2566371","38460.8187442","39227.4982686","43077.3669153","43844.0072821","44610.7525562","45360.7313702","46127.3279039","46893.9361264","47660.570941","48427.3118317","47665.6836359"
"Blocked","Male","tile","16","M_tile.wav","None","729.421665834","441","42310.7823627","49177.2997046","35410.9240898","36177.635174","36944.2165122","37711.2566371","38460.8187442","39227.4982686","43077.3669153","43844.0072821","44610.7525562","45360.7313702","46127.3279039","46893.9361264","47660.570941","48427.3118317","48432.3196194"
"Blocked","Male","tile","16","M_dime.wav","space","302.913733501","441","42310.7823627","49177.2997046","49943.9377336","36177.635174","36944.2165122","37711.2566371","38460.8187442","39227.4982686","43077.3669153","43844.0072821","44610.7525562","45360.7313702","46127.3279039","46893.9361264","47660.570941","48427.3118317","49182.3817163"
"Blocked","Male","tile","16","M_park.wav","None","738.822993101","441","42310.7823627","49177.2997046","49943.9377336","50710.5456639","36944.2165122","37711.2566371","38460.8187442","39227.4982686","43077.3669153","43844.0072821","44610.7525562","45360.7313702","46127.3279039","46893.9361264","47660.570941","48427.3118317","49948.9472746"
"Blocked","Male","tile","16","M_gnash.wav","None","735.332707981","441","42310.7823627","49177.2997046","49943.9377336","50710.5456639","51477.2108694","37711.2566371","38460.8187442","39227.4982686","43077.3669153","43844.0072821","44610.7525562","45360.7313702","46127.3279039","46893.9361264","47660.570941","48427.3118317","50715.5782903"
"Blocked","Male","tile","16","M_tile.wav","None","732.043470765","441","42310.7823627","49177.2997046","49943.9377336","50710.5456639","51477.2108694","52244.1601136","38460.8187442","39227.4982686","43077.3669153","43844.0072821","44610.7525562","45360.7313702","46127.3279039","46893.9361264","47660.570941","48427.3118317","51482.2087216"
"Blocked","Male","tile","16","M_bluff.wav","space","555.525456814","441","42310.7823627","49177.2997046","49943.9377336","50710.5456639","51477.2108694","52244.1601136","52993.8636556","39227.4982686","43077.3669153","43844.0072821","44610.7525562","45360.7313702","46127.3279039","46893.9361264","47660.570941","48427.3118317","52249.6041869"
"Blocked","Male","tile","16","M_depth.wav","None","741.54795197","441","42310.7823627","49177.2997046","49943.9377336","50710.5456639","51477.2108694","52244.1601136","52993.8636556","53760.425415","43077.3669153","43844.0072821","44610.7525562","45360.7313702","46127.3279039","46893.9361264","47660.570941","48427.3118317","52998.7446195"
"Blocked","Male","ball","3","M_depth.wav","None","738.266604716","441","56877.0220948","49177.2997046","49943.9377336","50710.5456639","51477.2108694","52244.1601136","52993.8636556","53760.425415","43077.3669153","43844.0072821","44610.7525562","45360.7313702","46127.3279039","46893.9361264","47660.570941","48427.3118317","53765.3288799"
"Blocked","Male","ball","3","M_knife.wav","None","741.706335639","441","56877.0220948","49177.2997046","49943.9377336","50710.5456639","51477.2108694","52244.1601136","52993.8636556","53760.425415","57643.6700593","43844.0072821","44610.7525562","45360.7313702","46127.3279039","46893.9361264","47660.570941","48427.3118317","56881.9153319"
"Blocked","Male","ball","3","M_depth.wav","None","738.040425824","441","56877.0220948","49177.2997046","49943.9377336","50710.5456639","51477.2108694","52244.1601136","52993.8636556","53760.425415","57643.6700593","58410.3560126","44610.7525562","45360.7313702","46127.3279039","46893.9361264","47660.570941","48427.3118317","57648.7167124"
"Blocked","Male","ball","3","M_cling.wav","None","734.450201194","441","56877.0220948","49177.2997046","49943.9377336","50710.5456639","51477.2108694","52244.1601136","52993.8636556","53760.425415","57643.6700593","58410.3560126","59176.9794306","45360.7313702","46127.3279039","46893.9361264","47660.570941","48427.3118317","58415.3418837"
"Blocked","Male","ball","3","M_ball.wav","None","731.252136864","441","56877.0220948","49177.2997046","49943.9377336","50710.5456639","51477.2108694","52244.1601136","52993.8636556","53760.425415","57643.6700593","58410.3560126","59176.9794306","59943.8737372","46127.3279039","46893.9361264","47660.570941","48427.3118317","59181.7791571"
"Blocked","Male","ball","3","M_romp.wav","space","519.124681844","441","56877.0220948","49177.2997046","49943.9377336","50710.5456639","51477.2108694","52244.1601136","52993.8636556","53760.425415","57643.6700593","58410.3560126","59176.9794306","59943.8737372","60693.6628999","46893.9361264","47660.570941","48427.3118317","59949.5153518"
"Blocked","Male","ball","3","M_ball.wav","None","740.826458839","441","56877.0220948","49177.2997046","49943.9377336","50710.5456639","51477.2108694","52244.1601136","52993.8636556","53760.425415","57643.6700593","58410.3560126","59176.9794306","59943.8737372","60693.6628999","61460.2416081","47660.570941","48427.3118317","60698.4857119"
"Blocked","Male","ball","3","M_park.wav","space","579.323333538","441","56877.0220948","49177.2997046","49943.9377336","50710.5456639","51477.2108694","52244.1601136","52993.8636556","53760.425415","57643.6700593","58410.3560126","59176.9794306","59943.8737372","60693.6628999","61460.2416081","62226.9231781","48427.3118317","61465.2856312"
"Blocked","Male","ball","3","M_reek.wav","None","733.434149506","441","56877.0220948","49177.2997046","49943.9377336","50710.5456639","51477.2108694","52244.1601136","52993.8636556","53760.425415","57643.6700593","58410.3560126","59176.9794306","59943.8737372","60693.6628999","61460.2416081","62226.9231781","62993.5863381","62231.883626"
"Blocked","Male","ball","3","M_ball.wav","None","730.124164614","441","56877.0220948","63743.5683665","49943.9377336","50710.5456639","51477.2108694","52244.1601136","52993.8636556","53760.425415","57643.6700593","58410.3560126","59176.9794306","59943.8737372","60693.6628999","61460.2416081","62226.9231781","62993.5863381","62998.504414"
"Blocked","Male","ball","3","M_reek.wav","space","575.71177679","441","56877.0220948","63743.5683665","64510.1917845","50710.5456639","51477.2108694","52244.1601136","52993.8636556","53760.425415","57643.6700593","58410.3560126","59176.9794306","59943.8737372","60693.6628999","61460.2416081","62226.9231781","62993.5863381","63748.562712"
"Blocked","Male","ball","3","M_priest.wav","None","739.622216962","441","56877.0220948","63743.5683665","64510.1917845","65276.8526068","51477.2108694","52244.1601136","52993.8636556","53760.425415","57643.6700593","58410.3560126","59176.9794306","59943.8737372","60693.6628999","61460.2416081","62226.9231781","62993.5863381","64515.0873594"
"Blocked","Male","ball","3","M_gnash.wav","None","736.140698466","441","56877.0220948","63743.5683665","64510.1917845","65276.8526068","66043.523949","52244.1601136","52993.8636556","53760.425415","57643.6700593","58410.3560126","59176.9794306","59943.8737372","60693.6628999","61460.2416081","62226.9231781","62993.5863381","65281.7963981"
"Blocked","Male","ball","3","M_ball.wav","None","732.987636139","441","56877.0220948","63743.5683665","64510.1917845","65276.8526068","66043.523949","66810.1508736","52993.8636556","53760.425415","57643.6700593","58410.3560126","59176.9794306","59943.8737372","60693.6628999","61460.2416081","62226.9231781","62993.5863381","66048.2839334"
"Blocked","Male","ball","3","M_park.wav","None","729.454686783","441","56877.0220948","63743.5683665","64510.1917845","65276.8526068","66043.523949","66810.1508736","67560.1291031","53760.425415","57643.6700593","58410.3560126","59176.9794306","59943.8737372","60693.6628999","61460.2416081","62226.9231781","62993.5863381","66815.081515"
"Blocked","Male","ball","3","M_gnash.wav","space","55.1183932535","441","56877.0220948","63743.5683665","64510.1917845","65276.8526068","66043.523949","66810.1508736","67560.1291031","68326.7779443","57643.6700593","58410.3560126","59176.9794306","59943.8737372","60693.6628999","61460.2416081","62226.9231781","62993.5863381","67565.1906595"
"Blocked","Male","done","20","M_cad.wav","None","738.982837873","441","71443.4082295","63743.5683665","64510.1917845","65276.8526068","66043.523949","66810.1508736","67560.1291031","68326.7779443","57643.6700593","58410.3560126","59176.9794306","59943.8737372","60693.6628999","61460.2416081","62226.9231781","62993.5863381","68331.6828703"
"Blocked","Male","done","20","M_done.wav","None","741.375833925","441","71443.4082295","63743.5683665","64510.1917845","65276.8526068","66043.523949","66810.1508736","67560.1291031","68326.7779443","72210.0205431","58410.3560126","59176.9794306","59943.8737372","60693.6628999","61460.2416081","62226.9231781","62993.5863381","71448.3675086"
"Blocked","Male","done","20","M_depth.wav","space","629.012848948","441","71443.4082295","63743.5683665","64510.1917845","65276.8526068","66043.523949","66810.1508736","67560.1291031","68326.7779443","72210.0205431","72976.6600333","59176.9794306","59943.8737372","60693.6628999","61460.2416081","62226.9231781","62993.5863381","72214.9368657"
"Blocked","Male","done","20","M_greet.wav","None","734.061547543","441","71443.4082295","63743.5683665","64510.1917845","65276.8526068","66043.523949","66810.1508736","67560.1291031","68326.7779443","72210.0205431","72976.6600333","73743.2676713","59943.8737372","60693.6628999","61460.2416081","62226.9231781","62993.5863381","72981.8717911"
"Blocked","Male","done","20","M_done.wav","None","730.967513815","441","71443.4082295","63743.5683665","64510.1917845","65276.8526068","66043.523949","66810.1508736","67560.1291031","68326.7779443","72210.0205431","72976.6600333","73743.2676713","74510.3358494","60693.6628999","61460.2416081","62226.9231781","62993.5863381","73748.2363014"
"Blocked","Male","done","20","M_priest.wav","space","528.097905654","441","71443.4082295","63743.5683665","64510.1917845","65276.8526068","66043.523949","66810.1508736","67560.1291031","68326.7779443","72210.0205431","72976.6600333","73743.2676713","74510.3358494","75260.023027","61460.2416081","62226.9231781","62993.5863381","74515.7264463"
"Blocked","Male","done","20","M_dime.wav","None","740.476378332","441","71443.4082295","63743.5683665","64510.1917845","65276.8526068","66043.523949","66810.1508736","67560.1291031","68326.7779443","72210.0205431","72976.6600333","73743.2676713","74510.3358494","75260.023027","76026.5862475","62226.9231781","62993.5863381","75264.7418083"
"Blocked","Male","done","20","M_park.wav","None","737.021159707","441","71443.4082295","63743.5683665","64510.1917845","65276.8526068","66043.523949","66810.1508736","67560.1291031","68326.7779443","72210.0205431","72976.6600333","73743.2676713","74510.3358494","75260.023027","76026.5862475","76793.1874567","62993.5863381","76031.4432493"
"Blocked","Male","done","20","M_dime.wav","None","733.50954247","441","71443.4082295","63743.5683665","64510.1917845","65276.8526068","66043.523949","66810.1508736","67560.1291031","68326.7779443","72210.0205431","72976.6600333","73743.2676713","74510.3358494","75260.023027","76026.5862475","76793.1874567","77559.9479263","76798.3542125"
"Blocked","Male","done","20","M_knife.wav","None","730.251280658","441","71443.4082295","78309.8902126","64510.1917845","65276.8526068","66043.523949","66810.1508736","67560.1291031","68326.7779443","72210.0205431","72976.6600333","73743.2676713","74510.3358494","75260.023027","76026.5862475","76793.1874567","77559.9479263","77564.8887954"
"Blocked","Male","done","20","M_done.wav","None","743.530670033","441","71443.4082295","78309.8902126","79076.5034029","65276.8526068","66043.523949","66810.1508736","67560.1291031","68326.7779443","72210.0205431","72976.6600333","73743.2676713","74510.3358494","75260.023027","76026.5862475","76793.1874567","77559.9479263","78314.7790665"
"Blocked","Male","done","20","M_gnash.wav","space","713.892468594","441","71443.4082295","78309.8902126","79076.5034029","79843.1817584","66043.523949","66810.1508736","67560.1291031","68326.7779443","72210.0205431","72976.6600333","73743.2676713","74510.3358494","75260.023027","76026.5862475","76793.1874567","77559.9479263","79081.6578854"
"Blocked","Male","done","20","M_done.wav","None","736.493993402","441","71443.4082295","78309.8902126","79076.5034029","79843.1817584","80609.8171575","66810.1508736","67560.1291031","68326.7779443","72210.0205431","72976.6600333","73743.2676713","74510.3358494","75260.023027","76026.5862475","76793.1874567","77559.9479263","79848.0662289"
"Blocked","Male","done","20","M_greet.wav","space","732.911074291","441","71443.4082295","78309.8902126","79076.5034029","79843.1817584","80609.8171575","81376.5177217","67560.1291031","68326.7779443","72210.0205431","72976.6600333","73743.2676713","74510.3358494","75260.023027","76026.5862475","76793.1874567","77559.9479263","80614.5572709"
"Blocked","Male","done","20","M_knife.wav","None","729.340428454","441","71443.4082295","78309.8902126","79076.5034029","79843.1817584","80609.8171575","81376.5177217","82126.4234805","68326.7779443","72210.0205431","72976.6600333","73743.2676713","74510.3358494","75260.023027","76026.5862475","76793.1874567","77559.9479263","81381.5564848"
"Blocked","Male","done","20","M_lash.wav","None","742.715958469","441","71443.4082295","78309.8902126","79076.5034029","79843.1817584","80609.8171575","81376.5177217","82126.4234805","82893.0235209","72210.0205431","72976.6600333","73743.2676713","74510.3358494","75260.023027","76026.5862475","76793.1874567","77559.9479263","82131.4040917"
"Blocked","Male","cave","7","M_cad.wav","None","739.262493169","441","86009.6713393","78309.8902126","79076.5034029","79843.1817584","80609.8171575","81376.5177217","82126.4234805","82893.0235209","72210.0205431","72976.6600333","73743.2676713","74510.3358494","75260.023027","76026.5862475","76793.1874567","77559.9479263","82898.3854801"
"Blocked","Male","cave","7","M_cave.wav","None","741.257192284","441","86009.6713393","78309.8902126","79076.5034029","79843.1817584","80609.8171575","81376.5177217","82126.4234805","82893.0235209","86776.3181349","72976.6600333","73743.2676713","74510.3358494","75260.023027","76026.5862475","76793.1874567","77559.9479263","86014.6253583"
"Blocked","Male","cave","7","M_reek.wav","space","550.013296046","441","86009.6713393","78309.8902126","79076.5034029","79843.1817584","80609.8171575","81376.5177217","82126.4234805","82893.0235209","86776.3181349","87542.9371696","73743.2676713","74510.3358494","75260.023027","76026.5862475","76793.1874567","77559.9479263","86781.1277969"
"Blocked","Male","cave","7","M_greet.wav","None","734.150967105","441","86009.6713393","78309.8902126","79076.5034029","79843.1817584","80609.8171575","81376.5177217","82126.4234805","82893.0235209","86776.3181349","87542.9371696","88309.6333506","74510.3358494","75260.023027","76026.5862475","76793.1874567","77559.9479263","87547.9531395"
"Blocked","Male","cave","7","M_jolt.wav","None","730.89182863","441","86009.6713393","78309.8902126","79076.5034029","79843.1817584","80609.8171575","81376.5177217","82126.4234805","82893.0235209","86776.3181349","87542.9371696","88309.6333506","89076.487623","75260.023027","76026.5862475","76793.1874567","77559.9479263","88314.5794797"
"Blocked","Male","cave","7","M_cave.wav","None","726.502087917","441","86009.6713393","78309.8902126","79076.5034029","79843.1817584","80609.8171575","81376.5177217","82126.4234805","82893.0235209","86776.3181349","87542.9371696","88309.6333506","89076.487623","89826.2431803","76026.5862475","76793.1874567","77559.9479263","89082.3086611"
"Blocked","Male","cave","7","M_lash.wav","space","548.032623529","441","86009.6713393","78309.8902126","79076.5034029","79843.1817584","80609.8171575","81376.5177217","82126.4234805","82893.0235209","86776.3181349","87542.9371696","88309.6333506","89076.487623","89826.2431803","90592.9259191","76793.1874567","77559.9479263","89830.9312784"
"Blocked","Male","cave","7","M_cling.wav","None","738.018509265","441","86009.6713393","78309.8902126","79076.5034029","79843.1817584","80609.8171575","81376.5177217","82126.4234805","82893.0235209","86776.3181349","87542.9371696","88309.6333506","89076.487623","89826.2431803","90592.9259191","91359.5405705","77559.9479263","90597.7659721"
"Blocked","Male","cave","7","M_knife.wav","None","734.512736443","441","86009.6713393","78309.8902126","79076.5034029","79843.1817584","80609.8171575","81376.5177217","82126.4234805","82893.0235209","86776.3181349","87542.9371696","88309.6333506","89076.487623","89826.2431803","90592.9259191","91359.5405705","92126.1403186","91364.6994363"
"Blocked","Male","cave","7","M_cave.wav","None","731.485913497","441","86009.6713393","92892.9411146","79076.5034029","79843.1817584","80609.8171575","81376.5177217","82126.4234805","82893.0235209","86776.3181349","87542.9371696","88309.6333506","89076.487623","89826.2431803","90592.9259191","91359.5405705","92126.1403186","92131.0543034"
"Blocked","Male","cave","7","M_reek.wav","None","727.474890929","441","86009.6713393","92892.9411146","93642.8693744","79843.1817584","80609.8171575","81376.5177217","82126.4234805","82893.0235209","86776.3181349","87542.9371696","88309.6333506","89076.487623","89826.2431803","90592.9259191","91359.5405705","92126.1403186","92898.597048"
"Blocked","Male","cave","7","M_romp.wav","space","0.0210398970958","441","86009.6713393","92892.9411146","93642.8693744","94409.4258738","80609.8171575","81376.5177217","82126.4234805","82893.0235209","86776.3181349","87542.9371696","88309.6333506","89076.487623","89826.2431803","90592.9259191","91359.5405705","92126.1403186","93647.7927103"
"Blocked","Male","cave","7","M_cave.wav","None","741.249302323","441","86009.6713393","92892.9411146","93642.8693744","94409.4258738","95176.1015993","81376.5177217","82126.4234805","82893.0235209","86776.3181349","87542.9371696","88309.6333506","89076.487623","89826.2431803","90592.9259191","91359.5405705","92126.1403186","94411.0675702"
"Blocked","Male","cave","7","M_depth.wav","space","573.876922448","441","86009.6713393","92892.9411146","93642.8693744","94409.4258738","95176.1015993","95942.7936892","82126.4234805","82893.0235209","86776.3181349","87542.9371696","88309.6333506","89076.487623","89826.2431803","90592.9259191","91359.5405705","92126.1403186","95180.7701187"
"Blocked","Male","cave","7","M_cad.wav","None","730.989430374","441","86009.6713393","92892.9411146","93642.8693744","94409.4258738","95176.1015993","95942.7936892","96709.6520527","82893.0235209","86776.3181349","87542.9371696","88309.6333506","89076.487623","89826.2431803","90592.9259191","91359.5405705","92126.1403186","95947.5902013"
"Blocked","Male","cave","7","M_park.wav","None","727.329949416","441","86009.6713393","92892.9411146","93642.8693744","94409.4258738","95176.1015993","95942.7936892","96709.6520527","97459.3766346","86776.3181349","87542.9371696","88309.6333506","89076.487623","89826.2431803","90592.9259191","91359.5405705","92126.1403186","96714.6276961"
"Blocked","Male","ball","4","M_greet.wav","None","741.140011747","441","100576.32281","92892.9411146","93642.8693744","94409.4258738","95176.1015993","95942.7936892","96709.6520527","97459.3766346","86776.3181349","87542.9371696","88309.6333506","89076.487623","89826.2431803","90592.9259191","91359.5405705","92126.1403186","97464.1798677"
"Blocked","Male","ball","4","M_greet.wav","None","723.602965457","441","100576.32281","92892.9411146","93642.8693744","94409.4258738","95176.1015993","95942.7936892","96709.6520527","97459.3766346","101325.960603","87542.9371696","88309.6333506","89076.487623","89826.2431803","90592.9259191","91359.5405705","92126.1403186","100581.612591"
"Blocked","Male","ball","4","M_ball.wav","None","737.808110296","441","100576.32281","92892.9411146","93642.8693744","94409.4258738","95176.1015993","95942.7936892","96709.6520527","97459.3766346","101325.960603","102092.572916","88309.6333506","89076.487623","89826.2431803","90592.9259191","91359.5405705","92126.1403186","101330.964007"
"Blocked","Male","ball","4","M_greet.wav","space","720.66848428","441","100576.32281","92892.9411146","93642.8693744","94409.4258738","95176.1015993","95942.7936892","96709.6520527","97459.3766346","101325.960603","102092.572916","102859.257701","89076.487623","89826.2431803","90592.9259191","91359.5405705","92126.1403186","102097.556158"
"Blocked","Male","ball","4","M_ball.wav","None","730.831631147","441","100576.32281","92892.9411146","93642.8693744","94409.4258738","95176.1015993","95942.7936892","96709.6520527","97459.3766346","101325.960603","102092.572916","102859.257701","103626.202562","89826.2431803","90592.9259191","91359.5405705","92126.1403186","102864.400787"
"Blocked","Male","ball","4","M_jaw.wav","None","726.907982596","441","100576.32281","92892.9411146","93642.8693744","94409.4258738","95176.1015993","95942.7936892","96709.6520527","97459.3766346","101325.960603","102092.572916","102859.257701","103626.202562","104375.885648","90592.9259191","91359.5405705","92126.1403186","103631.694851"
"Blocked","Male","ball","4","M_dime.wav","space","37.2385719756","441","100576.32281","92892.9411146","93642.8693744","94409.4258738","95176.1015993","95942.7936892","96709.6520527","97459.3766346","101325.960603","102092.572916","102859.257701","103626.202562","104375.885648","105142.552023","91359.5405705","92126.1403186","104380.955971"
"Blocked","Male","ball","4","M_ball.wav","None","737.641836666","441","100576.32281","92892.9411146","93642.8693744","94409.4258738","95176.1015993","95942.7936892","96709.6520527","97459.3766346","101325.960603","102092.572916","102859.257701","103626.202562","104375.885648","105142.552023","105909.204078","92126.1403186","105147.482956"
"Blocked","Male","ball","4","M_priest.wav","space","623.960059263","441","100576.32281","92892.9411146","93642.8693744","94409.4258738","95176.1015993","95942.7936892","96709.6520527","97459.3766346","101325.960603","102092.572916","102859.257701","103626.202562","104375.885648","105142.552023","105909.204078","106675.829542","105914.072184"
"Blocked","Male","ball","4","M_knife.wav","None","730.12270351","441","100576.32281","107442.819989","93642.8693744","94409.4258738","95176.1015993","95942.7936892","96709.6520527","97459.3766346","101325.960603","102092.572916","102859.257701","103626.202562","104375.885648","105142.552023","105909.204078","106675.829542","106681.250237"
"Blocked","Male","ball","4","M_gnash.wav","None","726.334353184","441","100576.32281","107442.819989","108192.457489","94409.4258738","95176.1015993","95942.7936892","96709.6520527","97459.3766346","101325.960603","102092.572916","102859.257701","103626.202562","104375.885648","105142.552023","105909.204078","106675.829542","107448.479429"
"Blocked","Male","ball","4","M_priest.wav","None","740.908865102","441","100576.32281","107442.819989","108192.457489","108959.099317","95176.1015993","95942.7936892","96709.6520527","97459.3766346","101325.960603","102092.572916","102859.257701","103626.202562","104375.885648","105142.552023","105909.204078","106675.829542","108197.415599"
"Blocked","Male","ball","4","M_ball.wav","None","737.741191735","441","100576.32281","107442.819989","108192.457489","108959.099317","109725.771244","95942.7936892","96709.6520527","97459.3766346","101325.960603","102092.572916","102859.257701","103626.202562","104375.885648","105142.552023","105909.204078","106675.829542","108964.102721"
"Blocked","Male","ball","4","M_dime.wav","space","594.52056796","441","100576.32281","107442.819989","108192.457489","108959.099317","109725.771244","110492.397876","96709.6520527","97459.3766346","101325.960603","102092.572916","102859.257701","103626.202562","104375.885648","105142.552023","105909.204078","106675.829542","109727.328488"
"Blocked","Male","ball","4","M_dime.wav","None","731.629686125","441","100576.32281","107442.819989","108192.457489","108959.099317","109725.771244","110492.397876","111259.058114","97459.3766346","101325.960603","102092.572916","102859.257701","103626.202562","104375.885648","105142.552023","105909.204078","106675.829542","110497.342252"
"Blocked","Male","ball","4","M_dime.wav","None","729.611901568","441","100576.32281","107442.819989","108192.457489","108959.099317","109725.771244","110492.397876","111259.058114","112008.931728","101325.960603","102092.572916","102859.257701","103626.202562","104375.885648","105142.552023","105909.204078","106675.829542","111263.790337"
"Blocked","Male","ball","5","M_jaw.wav","None","744.07683069","441","115125.638575","107442.819989","108192.457489","108959.099317","109725.771244","110492.397876","111259.058114","112008.931728","101325.960603","102092.572916","102859.257701","103626.202562","104375.885648","105142.552023","105909.204078","106675.829542","112013.85711"
"Blocked","Male","ball","5","M_ball.wav","None","740.685900639","441","115125.638575","107442.819989","108192.457489","108959.099317","109725.771244","110492.397876","111259.058114","112008.931728","115892.263747","102092.572916","102859.257701","103626.202562","104375.885648","105142.552023","105909.204078","106675.829542","115130.590841"
"Blocked","Male","ball","5","M_park.wav","None","737.737392865","441","115125.638575","107442.819989","108192.457489","108959.099317","109725.771244","110492.397876","111259.058114","112008.931728","115892.263747","116658.868463","102859.257701","103626.202562","104375.885648","105142.552023","105909.204078","106675.829542","115897.111982"
"Blocked","Male","ball","5","M_gnash.wav","space","1.6668273879","441","115125.638575","107442.819989","108192.457489","108959.099317","109725.771244","110492.397876","111259.058114","112008.931728","115892.263747","116658.868463","117425.646465","103626.202562","104375.885648","105142.552023","105909.204078","106675.829542","116663.826281"
"Blocked","Male","ball","5","M_greet.wav","None","730.537949253","441","115125.638575","107442.819989","108192.457489","108959.099317","109725.771244","110492.397876","111259.058114","112008.931728","115892.263747","116658.868463","117425.646465","118192.515933","104375.885648","105142.552023","105909.204078","106675.829542","117430.737828"
"Blocked","Male","ball","5","M_ball.wav","None","726.539784399","441","115125.638575","107442.819989","108192.457489","108959.099317","109725.771244","110492.397876","111259.058114","112008.931728","115892.263747","116658.868463","117425.646465","118192.515933","118942.140284","105142.552023","105909.204078","106675.829542","118198.423761"
"Blocked","Male","ball","5","M_park.wav","None","741.457071304","441","115125.638575","107442.819989","108192.457489","108959.099317","109725.771244","110492.397876","111259.058114","112008.931728","115892.263747","116658.868463","117425.646465","118192.515933","118942.140284","119708.837341","105909.204078","106675.829542","118947.097809"
"Blocked","Male","ball","5","M_reek.wav","space","90.7307565308","441","115125.638575","107442.819989","108192.457489","108959.099317","109725.771244","110492.397876","111259.058114","112008.931728","115892.263747","116658.868463","117425.646465","118192.515933","118942.140284","119708.837341","120475.507514","106675.829542","119710.578977"
"Blocked","Male","ball","5","M_ball.wav","None","734.831549325","441","115125.638575","107442.819989","108192.457489","108959.099317","109725.771244","110492.397876","111259.058114","112008.931728","115892.263747","116658.868463","117425.646465","118192.515933","118942.140284","119708.837341","120475.507514","121242.170967","120480.652646"
"Blocked","Male","ball","5","M_lash.wav","space","530.002892986","441","115125.638575","122008.935235","108192.457489","108959.099317","109725.771244","110492.397876","111259.058114","112008.931728","115892.263747","116658.868463","117425.646465","118192.515933","118942.140284","119708.837341","120475.507514","121242.170967","121247.18606"
"Blocked","Male","ball","5","M_lash.wav","None","728.331974507","441","115125.638575","122008.935235","122758.765309","108959.099317","109725.771244","110492.397876","111259.058114","112008.931728","115892.263747","116658.868463","117425.646465","118192.515933","118942.140284","119708.837341","120475.507514","121242.170967","122013.891007"
"Blocked","Male","ball","5","M_lash.wav","None","742.640273285","441","115125.638575","122008.935235","122758.765309","123525.382882","109725.771244","110492.397876","111259.058114","112008.931728","115892.263747","116658.868463","117425.646465","118192.515933","118942.140284","119708.837341","120475.507514","121242.170967","122763.716113"
"Blocked","Male","ball","5","M_cad.wav","None","740.039800472","441","115125.638575","122008.935235","122758.765309","123525.382882","124292.055101","110492.397876","111259.058114","112008.931728","115892.263747","116658.868463","117425.646465","118192.515933","118942.140284","119708.837341","120475.507514","121242.170967","123530.320245"
"Blocked","Male","ball","5","M_jolt.wav","None","737.18480335","441","115125.638575","122008.935235","122758.765309","123525.382882","124292.055101","125058.705403","111259.058114","112008.931728","115892.263747","116658.868463","117425.646465","118192.515933","118942.140284","119708.837341","120475.507514","121242.170967","124296.907427"
"Blocked","Male","ball","5","M_ball.wav","None","733.973881306","441","115125.638575","122008.935235","122758.765309","123525.382882","124292.055101","125058.705403","125825.379376","112008.931728","115892.263747","116658.868463","117425.646465","118192.515933","118942.140284","119708.837341","120475.507514","121242.170967","125063.771928"
"Blocked","Male","ball","5","M_park.wav","space","602.368157285","441","115125.638575","122008.935235","122758.765309","123525.382882","124292.055101","125058.705403","125825.379376","126592.31021","115892.263747","116658.868463","117425.646465","118192.515933","118942.140284","119708.837341","120475.507514","121242.170967","125830.532397"
"Blocked","Male","cave","11","M_bluff.wav","None","726.660471586","441","129691.908699","122008.935235","122758.765309","123525.382882","124292.055101","125058.705403","125825.379376","126592.31021","115892.263747","116658.868463","117425.646465","118192.515933","118942.140284","119708.837341","120475.507514","121242.170967","126597.723308"
"Blocked","Male","cave","11","M_jaw.wav","None","740.637684209","441","129691.908699","122008.935235","122758.765309","123525.382882","124292.055101","125058.705403","125825.379376","126592.31021","130458.592022","116658.868463","117425.646465","118192.515933","118942.140284","119708.837341","120475.507514","121242.170967","129696.758979"
"Blocked","Male","cave","11","M_gnash.wav","None","737.435236567","441","129691.908699","122008.935235","122758.765309","123525.382882","124292.055101","125058.705403","125825.379376","126592.31021","130458.592022","131225.237064","117425.646465","118192.515933","118942.140284","119708.837341","120475.507514","121242.170967","130463.593965"
"Blocked","Male","cave","11","M_park.wav","None","734.540497418","441","129691.908699","122008.935235","122758.765309","123525.382882","124292.055101","125058.705403","125825.379376","126592.31021","130458.592022","131225.237064","131991.838858","118192.515933","118942.140284","119708.837341","120475.507514","121242.170967","131230.106339"
"Blocked","Male","cave","11","M_cave.wav","None","731.609230671","441","129691.908699","122008.935235","122758.765309","123525.382882","124292.055101","125058.705403","125825.379376","126592.31021","130458.592022","131225.237064","131991.838858","132758.69839","118942.140284","119708.837341","120475.507514","121242.170967","131996.656117"
"Blocked","Male","cave","11","M_jaw.wav","space","548.929741355","441","129691.908699","122008.935235","122758.765309","123525.382882","124292.055101","125058.705403","125825.379376","126592.31021","130458.592022","131225.237064","131991.838858","132758.69839","133508.528756","119708.837341","120475.507514","121242.170967","132763.593965"
"Blocked","Male","cave","11","M_greet.wav","None","741.03364338","441","129691.908699","122008.935235","122758.765309","123525.382882","124292.055101","125058.705403","125825.379376","126592.31021","130458.592022","131225.237064","131991.838858","132758.69839","133508.528756","134275.088178","120475.507514","121242.170967","133513.541511"
"Blocked","Male","cave","11","M_romp.wav","None","737.984027211","441","129691.908699","122008.935235","122758.765309","123525.382882","124292.055101","125058.705403","125825.379376","126592.31021","130458.592022","131225.237064","131991.838858","132758.69839","133508.528756","134275.088178","135041.791956","121242.170967","134280.252596"
"Blocked","Male","cave","11","M_cad.wav","None","735.013895098","441","129691.908699","122008.935235","122758.765309","123525.382882","124292.055101","125058.705403","125825.379376","126592.31021","130458.592022","131225.237064","131991.838858","132758.69839","133508.528756","134275.088178","135041.791956","135808.458623","135046.972739"
"Blocked","Male","cave","11","M_dime.wav","None","732.167664601","441","129691.908699","136575.10951","122758.765309","123525.382882","124292.055101","125058.705403","125825.379376","126592.31021","130458.592022","131225.237064","131991.838858","132758.69839","133508.528756","134275.088178","135041.791956","135808.458623","135813.293416"
"Blocked","Male","cave","11","M_cave.wav","None","728.77702677","441","129691.908699","136575.10951","137325.036016","123525.382882","124292.055101","125058.705403","125825.379376","126592.31021","130458.592022","131225.237064","131991.838858","132758.69839","133508.528756","134275.088178","135041.791956","135808.458623","136580.290292"
"Blocked","Male","cave","11","M_romp.wav","None","742.722387327","441","129691.908699","136575.10951","137325.036016","138091.729567","124292.055101","125058.705403","125825.379376","126592.31021","130458.592022","131225.237064","131991.838858","132758.69839","133508.528756","134275.088178","135041.791956","135808.458623","137330.07098"
"Blocked","Male","cave","11","M_cave.wav","space","47.5428614845","441","129691.908699","136575.10951","137325.036016","138091.729567","138858.412598","125058.705403","125825.379376","126592.31021","130458.592022","131225.237064","131991.838858","132758.69839","133508.528756","134275.088178","135041.791956","135808.458623","138096.725958"
"Blocked","Male","cave","11","M_knife.wav","None","735.394366568","441","129691.908699","136575.10951","137325.036016","138091.729567","138858.412598","139624.966175","125825.379376","126592.31021","130458.592022","131225.237064","131991.838858","132758.69839","133508.528756","134275.088178","135041.791956","135808.458623","138863.765499"
"Blocked","Male","cave","11","M_cave.wav","space","0.020747675997","441","129691.908699","136575.10951","137325.036016","138091.729567","138858.412598","139624.966175","140391.717878","126592.31021","130458.592022","131225.237064","131991.838858","132758.69839","133508.528756","134275.088178","135041.791956","135808.458623","139629.925747"
"Blocked","Male","cave","11","M_dime.wav","None","729.029505533","441","129691.908699","136575.10951","137325.036016","138091.729567","138858.412598","139624.966175","140391.717878","141141.595584","130458.592022","131225.237064","131991.838858","132758.69839","133508.528756","134275.088178","135041.791956","135808.458623","140396.834372"
"Blocked","Male","cave","9","M_cad.wav","space","189.519501354","441","144258.234636","136575.10951","137325.036016","138091.729567","138858.412598","139624.966175","140391.717878","141141.595584","130458.592022","131225.237064","131991.838858","132758.69839","133508.528756","134275.088178","135041.791956","135808.458623","141146.543174"
"Blocked","Male","cave","9","M_cave.wav","None","741.53304871","441","144258.234636","136575.10951","137325.036016","138091.729567","138858.412598","139624.966175","140391.717878","141141.595584","145024.879678","131225.237064","131991.838858","132758.69839","133508.528756","134275.088178","135041.791956","135808.458623","144263.18018"
"Blocked","Male","cave","9","M_cad.wav","space","585.51344654","441","144258.234636","136575.10951","137325.036016","138091.729567","138858.412598","139624.966175","140391.717878","141141.595584","145024.879678","145791.529688","131991.838858","132758.69839","133508.528756","134275.088178","135041.791956","135808.458623","145030.25245"
"Blocked","Male","cave","9","M_dime.wav","None","734.738623114","441","144258.234636","136575.10951","137325.036016","138091.729567","138858.412598","139624.966175","140391.717878","141141.595584","145024.879678","145791.529688","146558.188757","132758.69839","133508.528756","134275.088178","135041.791956","135808.458623","145796.514975"
"Blocked","Male","cave","9","M_cave.wav","None","731.907295876","441","144258.234636","136575.10951","137325.036016","138091.729567","138858.412598","139624.966175","140391.717878","141141.595584","145024.879678","145791.529688","146558.188757","147325.252844","133508.528756","134275.088178","135041.791956","135808.458623","146563.168492"
"Blocked","Male","cave","9","M_gnash.wav","space","564.971201641","441","144258.234636","136575.10951","137325.036016","138091.729567","138858.412598","139624.966175","140391.717878","141141.595584","145024.879678","145791.529688","146558.188757","147325.252844","148074.832192","134275.088178","135041.791956","135808.458623","147330.771434"
"Blocked","Male","cave","9","M_cave.wav","None","741.701952327","441","144258.234636","136575.10951","137325.036016","138091.729567","138858.412598","139624.966175","140391.717878","141141.595584","145024.879678","145791.529688","146558.188757","147325.252844","148074.832192","148841.451519","135041.791956","135808.458623","148079.770139"
"Blocked","Male","cave","9","M_park.wav","space","576.758511661","441","144258.234636","136575.10951","137325.036016","138091.729567","138858.412598","139624.966175","140391.717878","141141.595584","145024.879678","145791.529688","146558.188757","147325.252844","148074.832192","148841.451519","149608.054189","135808.458623","148846.864617"
"Blocked","Male","cave","9","M_romp.wav","None","734.91074116","441","144258.234636","136575.10951","137325.036016","138091.729567","138858.412598","139624.966175","140391.717878","141141.595584","145024.879678","145791.529688","146558.188757","147325.252844","148074.832192","148841.451519","149608.054189","150374.773748","149613.222699"
"Blocked","Male","cave","9","M_jaw.wav","None","732.205068862","441","144258.234636","151141.451519","137325.036016","138091.729567","138858.412598","139624.966175","140391.717878","141141.595584","145024.879678","145791.529688","146558.188757","147325.252844","148074.832192","148841.451519","149608.054189","150374.773748","150379.638055"
"Blocked","Male","cave","9","M_dime.wav","None","729.035349949","441","144258.234636","151141.451519","151891.44173","138091.729567","138858.412598","139624.966175","140391.717878","141141.595584","145024.879678","145791.529688","146558.188757","147325.252844","148074.832192","148841.451519","149608.054189","150374.773748","151146.627918"
"Blocked","Male","cave","9","M_romp.wav","None","742.944767348","441","144258.234636","151141.451519","151891.44173","152658.025406","138858.412598","139624.966175","140391.717878","141141.595584","145024.879678","145791.529688","146558.188757","147325.252844","148074.832192","148841.451519","149608.054189","150374.773748","151896.524326"
"Blocked","Male","cave","9","M_depth.wav","None","740.407706447","441","144258.234636","151141.451519","151891.44173","152658.025406","153424.634797","139624.966175","140391.717878","141141.595584","145024.879678","145791.529688","146558.188757","147325.252844","148074.832192","148841.451519","149608.054189","150374.773748","152662.77487"
"Blocked","Male","cave","9","M_greet.wav","None","737.57316478","441","144258.234636","151141.451519","151891.44173","152658.025406","153424.634797","154191.332731","140391.717878","141141.595584","145024.879678","145791.529688","146558.188757","147325.252844","148074.832192","148841.451519","149608.054189","150374.773748","153429.409393"
"Blocked","Male","cave","9","M_cave.wav","None","734.44494122","441","144258.234636","151141.451519","151891.44173","152658.025406","153424.634797","154191.332731","154957.968423","141141.595584","145024.879678","145791.529688","146558.188757","147325.252844","148074.832192","148841.451519","149608.054189","150374.773748","154196.187395"
"Blocked","Male","cave","9","M_lash.wav","space","676.289789513","441","144258.234636","151141.451519","151891.44173","152658.025406","153424.634797","154191.332731","154957.968423","155724.748179","145024.879678","145791.529688","146558.188757","147325.252844","148074.832192","148841.451519","149608.054189","150374.773748","154962.965106"
"Blocked","Male","done","19","M_priest.wav","None","726.758949992","441","158824.513818","151141.451519","151891.44173","152658.025406","153424.634797","154191.332731","154957.968423","155724.748179","145024.879678","145791.529688","146558.188757","147325.252844","148074.832192","148841.451519","149608.054189","150374.773748","155730.459926"
"Blocked","Male","done","19","M_done.wav","space","537.318348252","441","158824.513818","151141.451519","151891.44173","152658.025406","153424.634797","154191.332731","154957.968423","155724.748179","159591.186329","145791.529688","146558.188757","147325.252844","148074.832192","148841.451519","149608.054189","150374.773748","158829.696646"
"Blocked","Male","done","19","M_priest.wav","None","737.571995897","441","158824.513818","151141.451519","151891.44173","152658.025406","153424.634797","154191.332731","154957.968423","155724.748179","159591.186329","160357.79835","146558.188757","147325.252844","148074.832192","148841.451519","149608.054189","150374.773748","159596.072845"
"Blocked","Male","done","19","M_done.wav","space","12.100862928","441","158824.513818","151141.451519","151891.44173","152658.025406","153424.634797","154191.332731","154957.968423","155724.748179","159591.186329","160357.79835","161124.486349","147325.252844","148074.832192","148841.451519","149608.054189","150374.773748","160362.904616"
"Blocked","Male","done","19","M_reek.wav","None","730.556359163","441","158824.513818","151141.451519","151891.44173","152658.025406","153424.634797","154191.332731","154957.968423","155724.748179","159591.186329","160357.79835","161124.486349","161891.499882","148074.832192","148841.451519","149608.054189","150374.773748","161129.547613"
"Blocked","Male","done","19","M_depth.wav","space","126.003267028","441","158824.513818","151141.451519","151891.44173","152658.025406","153424.634797","154191.332731","154957.968423","155724.748179","159591.186329","160357.79835","161124.486349","161891.499882","162641.112835","148841.451519","149608.054189","150374.773748","161896.878498"
"Blocked","Male","done","19","M_done.wav","None","740.952406","441","158824.513818","151141.451519","151891.44173","152658.025406","153424.634797","154191.332731","154957.968423","155724.748179","159591.186329","160357.79835","161124.486349","161891.499882","162641.112835","163407.743559","149608.054189","150374.773748","162645.897366"
"Blocked","Male","done","19","M_knife.wav","None","737.896360974","441","158824.513818","151141.451519","151891.44173","152658.025406","153424.634797","154191.332731","154957.968423","155724.748179","159591.186329","160357.79835","161124.486349","161891.499882","162641.112835","163407.743559","164174.404965","150374.773748","163412.816512"
"Blocked","Male","done","19","M_cling.wav","space","251.401637021","441","158824.513818","151141.451519","151891.44173","152658.025406","153424.634797","154191.332731","154957.968423","155724.748179","159591.186329","160357.79835","161124.486349","161891.499882","162641.112835","163407.743559","164174.404965","164941.026922","164179.306969"
"Blocked","Male","done","19","M_reek.wav","None","731.309412139","441","158824.513818","165707.973536","151891.44173","152658.025406","153424.634797","154191.332731","154957.968423","155724.748179","159591.186329","160357.79835","161124.486349","161891.499882","162641.112835","163407.743559","164174.404965","164941.026922","164945.990292"
"Blocked","Male","done","19","M_jaw.wav","None","727.603175856","441","158824.513818","165707.973536","166457.693735","152658.025406","153424.634797","154191.332731","154957.968423","155724.748179","159591.186329","160357.79835","161124.486349","161891.499882","162641.112835","163407.743559","164174.404965","164941.026922","165713.509952"
"Blocked","Male","done","19","M_done.wav","None","742.296621635","441","158824.513818","165707.973536","166457.693735","167224.283548","153424.634797","154191.332731","154957.968423","155724.748179","159591.186329","160357.79835","161124.486349","161891.499882","162641.112835","163407.743559","164174.404965","164941.026922","166462.659443"
"Blocked","Male","done","19","M_gnash.wav","space","625.239694104","441","158824.513818","165707.973536","166457.693735","167224.283548","167990.977099","154191.332731","154957.968423","155724.748179","159591.186329","160357.79835","161124.486349","161891.499882","162641.112835","163407.743559","164174.404965","164941.026922","167229.286075"
"Blocked","Male","done","19","M_romp.wav","None","735.484955012","441","158824.513818","165707.973536","166457.693735","167224.283548","167990.977099","168757.627693","154957.968423","155724.748179","159591.186329","160357.79835","161124.486349","161891.499882","162641.112835","163407.743559","164174.404965","164941.026922","167996.142686"
"Blocked","Male","done","19","M_reek.wav","None","732.52972616","441","158824.513818","165707.973536","166457.693735","167224.283548","167990.977099","168757.627693","169524.277995","155724.748179","159591.186329","160357.79835","161124.486349","161891.499882","162641.112835","163407.743559","164174.404965","164941.026922","168762.838282"
"Blocked","Male","done","19","M_lash.wav","None","730.064551572","441","158824.513818","165707.973536","166457.693735","167224.283548","167990.977099","168757.627693","169524.277995","170291.25091","159591.186329","160357.79835","161124.486349","161891.499882","162641.112835","163407.743559","164174.404965","164941.026922","169529.258314"
"Blocked","Male","tile","14","M_park.wav","None","726.801906448","441","173374.231971","165707.973536","166457.693735","167224.283548","167990.977099","168757.627693","169524.277995","170291.25091","159591.186329","160357.79835","161124.486349","161891.499882","162641.112835","163407.743559","164174.404965","164941.026922","170296.358052"
"Blocked","Male","tile","14","M_tile.wav","None","740.991855807","441","173374.231971","165707.973536","166457.693735","167224.283548","167990.977099","168757.627693","169524.277995","170291.25091","174140.85159","160357.79835","161124.486349","161891.499882","162641.112835","163407.743559","164174.404965","164941.026922","173379.318658"
"Blocked","Male","tile","14","M_bluff.wav","space","660.018935907","441","173374.231971","165707.973536","166457.693735","167224.283548","167990.977099","168757.627693","169524.277995","170291.25091","174140.85159","174907.492833","161124.486349","161891.499882","162641.112835","163407.743559","164174.404965","164941.026922","174146.182866"
"Blocked","Male","tile","14","M_tile.wav","None","734.373639347","441","173374.231971","165707.973536","166457.693735","167224.283548","167990.977099","168757.627693","169524.277995","170291.25091","174140.85159","174907.492833","175674.142551","161891.499882","162641.112835","163407.743559","164174.404965","164941.026922","174912.75047"
"Blocked","Male","tile","14","M_depth.wav","None","731.827811822","441","173374.231971","165707.973536","166457.693735","167224.283548","167990.977099","168757.627693","169524.277995","170291.25091","174140.85159","174907.492833","175674.142551","176440.831134","162641.112835","163407.743559","164174.404965","164941.026922","175679.219595"
"Blocked","Male","tile","14","M_cad.wav","space","0.0204554553493","441","173374.231971","165707.973536","166457.693735","167224.283548","167990.977099","168757.627693","169524.277995","170291.25091","174140.85159","174907.492833","175674.142551","176440.831134","177190.788324","163407.743559","164174.404965","164941.026922","176445.820804"
"Blocked","Male","tile","14","M_jaw.wav","None","741.999433092","441","173374.231971","165707.973536","166457.693735","167224.283548","167990.977099","168757.627693","169524.277995","170291.25091","174140.85159","174907.492833","175674.142551","176440.831134","177190.788324","177957.375799","164174.404965","164941.026922","177196.082488"
"Blocked","Male","tile","14","M_greet.wav","None","739.552960635","441","173374.231971","165707.973536","166457.693735","167224.283548","167990.977099","168757.627693","169524.277995","170291.25091","174140.85159","174907.492833","175674.142551","176440.831134","177190.788324","177957.375799","178724.080162","164941.026922","177962.445537"
"Blocked","Male","tile","14","M_tile.wav","None","736.892582559","441","173374.231971","165707.973536","166457.693735","167224.283548","167990.977099","168757.627693","169524.277995","170291.25091","174140.85159","174907.492833","175674.142551","176440.831134","177190.788324","177957.375799","178724.080162","179490.656825","178729.046162"
"Blocked","Male","tile","14","M_jolt.wav","space","518.214998524","441","173374.231971","180257.393917","166457.693735","167224.283548","167990.977099","168757.627693","169524.277995","170291.25091","174140.85159","174907.492833","175674.142551","176440.831134","177190.788324","177957.375799","178724.080162","179490.656825","179495.667242"
"Blocked","Male","tile","14","M_tile.wav","None","730.312354803","441","173374.231971","180257.393917","181024.295529","167224.283548","167990.977099","168757.627693","169524.277995","170291.25091","174140.85159","174907.492833","175674.142551","176440.831134","177190.788324","177957.375799","178724.080162","179490.656825","180262.524729"
"Blocked","Male","tile","14","M_knife.wav","space","567.982244665","441","173374.231971","180257.393917","181024.295529","181773.971602","167990.977099","168757.627693","169524.277995","170291.25091","174140.85159","174907.492833","175674.142551","176440.831134","177190.788324","177957.375799","178724.080162","179490.656825","181029.823469"
"Blocked","Male","tile","14","M_jaw.wav","None","740.704310549","441","173374.231971","180257.393917","181024.295529","181773.971602","182540.65025","168757.627693","169524.277995","170291.25091","174140.85159","174907.492833","175674.142551","176440.831134","177190.788324","177957.375799","178724.080162","179490.656825","181779.06764"
"Blocked","Male","tile","14","M_bluff.wav","None","738.122247645","441","173374.231971","180257.393917","181024.295529","181773.971602","182540.65025","183307.267531","169524.277995","170291.25091","174140.85159","174907.492833","175674.142551","176440.831134","177190.788324","177957.375799","178724.080162","179490.656825","182545.708884"
"Blocked","Male","tile","14","M_lash.wav","None","735.822470026","441","173374.231971","180257.393917","181024.295529","181773.971602","182540.65025","183307.267531","184073.862604","170291.25091","174140.85159","174907.492833","175674.142551","176440.831134","177190.788324","177957.375799","178724.080162","179490.656825","183312.238499"
"Blocked","Male","tile","14","M_gnash.wav","None","733.069165739","441","173374.231971","180257.393917","181024.295529","181773.971602","182540.65025","183307.267531","184073.862604","184840.550602","174140.85159","174907.492833","175674.142551","176440.831134","177190.788324","177957.375799","178724.080162","179490.656825","184079.04923"
"Blocked","Male","cave","12","M_park.wav","None","730.456419652","441","187940.485145","180257.393917","181024.295529","181773.971602","182540.65025","183307.267531","184073.862604","184840.550602","174140.85159","174907.492833","175674.142551","176440.831134","177190.788324","177957.375799","178724.080162","179490.656825","184845.631153"
"Blocked","Male","cave","12","M_cave.wav","None","740.477839436","441","187940.485145","180257.393917","181024.295529","181773.971602","182540.65025","183307.267531","184073.862604","184840.550602","188707.131064","174907.492833","175674.142551","176440.831134","177190.788324","177957.375799","178724.080162","179490.656825","187945.585274"
"Blocked","Male","cave","12","M_jolt.wav","space","557.162477682","441","187940.485145","180257.393917","181024.295529","181773.971602","182540.65025","183307.267531","184073.862604","184840.550602","188707.131064","189473.786918","175674.142551","176440.831134","177190.788324","177957.375799","178724.080162","179490.656825","188712.188821"
"Blocked","Male","cave","12","M_gnash.wav","None","733.994921203","441","187940.485145","180257.393917","181024.295529","181773.971602","182540.65025","183307.267531","184073.862604","184840.550602","188707.131064","189473.786918","190240.450955","176440.831134","177190.788324","177957.375799","178724.080162","179490.656825","189478.789154"
"Blocked","Male","cave","12","M_lash.wav","None","731.295093321","441","187940.485145","180257.393917","181024.295529","181773.971602","182540.65025","183307.267531","184073.862604","184840.550602","188707.131064","189473.786918","190240.450955","191007.405751","177190.788324","177957.375799","178724.080162","179490.656825","190245.382765"
"Blocked","Male","cave","12","M_cave.wav","None","727.651100065","441","187940.485145","180257.393917","181024.295529","181773.971602","182540.65025","183307.267531","184073.862604","184840.550602","188707.131064","189473.786918","190240.450955","191007.405751","191757.012861","177957.375799","178724.080162","179490.656825","191012.913821"
"Blocked","Male","cave","12","M_cling.wav","space","586.942990646","441","187940.485145","180257.393917","181024.295529","181773.971602","182540.65025","183307.267531","184073.862604","184840.550602","188707.131064","189473.786918","190240.450955","191007.405751","191757.012861","192523.706704","178724.080162","179490.656825","191762.220235"
"Blocked","Male","cave","12","M_jolt.wav","None","738.692954849","441","187940.485145","180257.393917","181024.295529","181773.971602","182540.65025","183307.267531","184073.862604","184840.550602","188707.131064","189473.786918","190240.450955","191007.405751","191757.012861","192523.706704","193290.367818","179490.656825","192528.665398"
"Blocked","Male","cave","12","M_knife.wav","None","735.947540524","441","187940.485145","180257.393917","181024.295529","181773.971602","182540.65025","183307.267531","184073.862604","184840.550602","188707.131064","189473.786918","190240.450955","191007.405751","191757.012861","192523.706704","193290.367818","194057.031855","193295.430544"
"Blocked","Male","cave","12","M_reek.wav","None","733.574999927","441","187940.485145","194823.649429","181024.295529","181773.971602","182540.65025","183307.267531","184073.862604","184840.550602","188707.131064","189473.786918","190240.450955","191007.405751","191757.012861","192523.706704","193290.367818","194057.031855","194061.799729"
"Blocked","Male","cave","12","M_bluff.wav","None","730.682014103","441","187940.485145","194823.649429","195590.56536","181773.971602","182540.65025","183307.267531","184073.862604","184840.550602","188707.131064","189473.786918","190240.450955","191007.405751","191757.012861","192523.706704","193290.367818","194057.031855","194828.664814"
"Blocked","Male","cave","12","M_cave.wav","None","727.021072041","441","187940.485145","194823.649429","195590.56536","196340.281467","182540.65025","183307.267531","184073.862604","184840.550602","188707.131064","189473.786918","190240.450955","191007.405751","191757.012861","192523.706704","193290.367818","194057.031855","195596.29727"
"Blocked","Male","cave","12","M_lash.wav","space","611.670713924","441","187940.485145","194823.649429","195590.56536","196340.281467","197106.935568","183307.267531","184073.862604","184840.550602","188707.131064","189473.786918","190240.450955","191007.405751","191757.012861","192523.706704","193290.367818","194057.031855","196345.245129"
"Blocked","Male","cave","12","M_cave.wav","None","737.985488316","441","187940.485145","194823.649429","195590.56536","196340.281467","197106.935568","197873.576519","184073.862604","184840.550602","188707.131064","189473.786918","190240.450955","191007.405751","191757.012861","192523.706704","193290.367818","194057.031855","197111.916472"
"Blocked","Male","cave","12","M_knife.wav","None","735.276601589","441","187940.485145","194823.649429","195590.56536","196340.281467","197106.935568","197873.576519","198640.235588","184840.550602","188707.131064","189473.786918","190240.450955","191007.405751","191757.012861","192523.706704","193290.367818","194057.031855","197878.777173"
"Blocked","Male","cave","12","M_park.wav","None","732.79214043","441","187940.485145","194823.649429","195590.56536","196340.281467","197106.935568","197873.576519","198640.235588","199406.907223","188707.131064","189473.786918","190240.450955","191007.405751","191757.012861","192523.706704","193290.367818","194057.031855","198645.394454"
"Blocked","Male","ball","1","M_reek.wav","None","730.395929949","441","202506.781276","194823.649429","195590.56536","196340.281467","197106.935568","197873.576519","198640.235588","199406.907223","188707.131064","189473.786918","190240.450955","191007.405751","191757.012861","192523.706704","193290.367818","194057.031855","199411.836111"
"Blocked","Male","ball","1","M_romp.wav","None","741.821762851","441","202506.781276","194823.649429","195590.56536","196340.281467","197106.935568","197873.576519","198640.235588","199406.907223","203273.468982","189473.786918","190240.450955","191007.405751","191757.012861","192523.706704","193290.367818","194057.031855","202511.60438"
"Blocked","Male","ball","1","M_ball.wav","None","739.134208242","441","202506.781276","194823.649429","195590.56536","196340.281467","197106.935568","197873.576519","198640.235588","199406.907223","203273.468982","204040.101751","190240.450955","191007.405751","191757.012861","192523.706704","193290.367818","194057.031855","203278.452223"
"Blocked","Male","ball","1","M_cad.wav","space","519.380082816","441","202506.781276","194823.649429","195590.56536","196340.281467","197106.935568","197873.576519","198640.235588","199406.907223","203273.468982","204040.101751","204806.736566","191007.405751","191757.012861","192523.706704","193290.367818","194057.031855","204045.06103"
"Blocked","Male","ball","1","M_jolt.wav","None","732.505764055","441","202506.781276","194823.649429","195590.56536","196340.281467","197106.935568","197873.576519","198640.235588","199406.907223","203273.468982","204040.101751","204806.736566","205573.406447","191757.012861","192523.706704","193290.367818","194057.031855","204811.872346"
"Blocked","Male","ball","1","M_depth.wav","None","729.994418583","441","202506.781276","194823.649429","195590.56536","196340.281467","197106.935568","197873.576519","198640.235588","199406.907223","203273.468982","204040.101751","204806.736566","205573.406447","206340.5056","192523.706704","193290.367818","194057.031855","205578.381506"
"Blocked","Male","ball","1","M_romp.wav","None","726.662809353","441","202506.781276","194823.649429","195590.56536","196340.281467","197106.935568","197873.576519","198640.235588","199406.907223","203273.468982","204040.101751","204806.736566","205573.406447","206340.5056","207090.008095","193290.367818","194057.031855","206345.932433"
"Blocked","Male","ball","1","M_ball.wav","None","741.500027761","441","202506.781276","194823.649429","195590.56536","196340.281467","197106.935568","197873.576519","198640.235588","199406.907223","203273.468982","204040.101751","204806.736566","205573.406447","206340.5056","207090.008095","207856.657812","194057.031855","207095.174266"
"Blocked","Male","ball","1","M_knife.wav","space","510.631576794","441","202506.781276","194823.649429","195590.56536","196340.281467","197106.935568","197873.576519","198640.235588","199406.907223","203273.468982","204040.101751","204806.736566","205573.406447","206340.5056","207090.008095","207856.657812","208623.311037","207861.625858"
"Blocked","Male","ball","1","M_bluff.wav","None","735.518560403","441","202506.781276","209389.956956","195590.56536","196340.281467","197106.935568","197873.576519","198640.235588","199406.907223","203273.468982","204040.101751","204806.736566","205573.406447","206340.5056","207090.008095","207856.657812","208623.311037","208628.258335"
"Blocked","Male","ball","1","M_ball.wav","None","733.245667096","441","202506.781276","209389.956956","210156.559918","196340.281467","197106.935568","197873.576519","198640.235588","199406.907223","203273.468982","204040.101751","204806.736566","205573.406447","206340.5056","207090.008095","207856.657812","208623.311037","209394.752007"
"Blocked","Male","ball","1","M_dime.wav","space","554.251374168","441","202506.781276","209389.956956","210156.559918","210906.549545","197106.935568","197873.576519","198640.235588","199406.907223","203273.468982","204040.101751","204806.736566","205573.406447","206340.5056","207090.008095","207856.657812","208623.311037","210161.83801"
"Blocked","Male","ball","1","M_cad.wav","None","743.353584234","441","202506.781276","209389.956956","210156.559918","210906.549545","211673.211828","197873.576519","198640.235588","199406.907223","203273.468982","204040.101751","204806.736566","205573.406447","206340.5056","207090.008095","207856.657812","208623.311037","210911.520805"
"Blocked","Male","ball","1","M_lash.wav","None","740.981920299","441","202506.781276","209389.956956","210156.559918","210906.549545","211673.211828","212439.836999","198640.235588","199406.907223","203273.468982","204040.101751","204806.736566","205573.406447","206340.5056","207090.008095","207856.657812","208623.311037","211678.157957"
"Blocked","Male","ball","1","M_ball.wav","None","738.274494677","441","202506.781276","209389.956956","210156.559918","210906.549545","211673.211828","212439.836999","213206.528797","199406.907223","203273.468982","204040.101751","204806.736566","205573.406447","206340.5056","207090.008095","207856.657812","208623.311037","212444.94911"
"Blocked","Male","ball","1","M_park.wav","space","544.643154582","441","202506.781276","209389.956956","210156.559918","210906.549545","211673.211828","212439.836999","213206.528797","213973.140818","203273.468982","204040.101751","204806.736566","205573.406447","206340.5056","207090.008095","207856.657812","208623.311037","213211.315958"
"Blocked","Male","tile","13","M_depth.wav","None","731.825766276","441","217073.089972","209389.956956","210156.559918","210906.549545","211673.211828","212439.836999","213206.528797","213973.140818","203273.468982","204040.101751","204806.736566","205573.406447","206340.5056","207090.008095","207856.657812","208623.311037","213978.400208"
"Blocked","Male","tile","13","M_jaw.wav","None","740.596773298","441","217073.089972","209389.956956","210156.559918","210906.549545","211673.211828","212439.836999","213206.528797","213973.140818","217839.726832","204040.101751","204806.736566","205573.406447","206340.5056","207090.008095","207856.657812","208623.311037","217078.055972"
"Blocked","Male","tile","13","M_reek.wav","None","738.123416529","441","217073.089972","209389.956956","210156.559918","210906.549545","211673.211828","212439.836999","213206.528797","213973.140818","217839.726832","218606.417461","204806.736566","205573.406447","206340.5056","207090.008095","207856.657812","208623.311037","217844.748062"
"Blocked","Male","tile","13","M_romp.wav","None","735.267542745","441","217073.089972","209389.956956","210156.559918","210906.549545","211673.211828","212439.836999","213206.528797","213973.140818","217839.726832","218606.417461","219373.047892","205573.406447","206340.5056","207090.008095","207856.657812","208623.311037","218611.744938"
"Blocked","Male","tile","13","M_tile.wav","None","733.299727942","441","217073.089972","209389.956956","210156.559918","210906.549545","211673.211828","212439.836999","213206.528797","213973.140818","217839.726832","218606.417461","219373.047892","220139.761899","206340.5056","207090.008095","207856.657812","208623.311037","219378.006879"
"Blocked","Male","tile","13","M_reek.wav","space","458.824921758","441","217073.089972","209389.956956","210156.559918","210906.549545","211673.211828","212439.836999","213206.528797","213973.140818","217839.726832","218606.417461","219373.047892","220139.761899","220889.707399","207090.008095","207856.657812","208623.311037","220144.730821"
"Blocked","Male","tile","13","M_dime.wav","None","743.897114904","441","217073.089972","209389.956956","210156.559918","210906.549545","211673.211828","212439.836999","213206.528797","213973.140818","217839.726832","218606.417461","219373.047892","220139.761899","220889.707399","221656.324388","207856.657812","208623.311037","220894.579597"
"Blocked","Male","tile","13","M_bluff.wav","None","741.14819393","441","217073.089972","209389.956956","210156.559918","210906.549545","211673.211828","212439.836999","213206.528797","213973.140818","217839.726832","218606.417461","219373.047892","220139.761899","220889.707399","221656.324388","222422.960664","208623.311037","221661.60511"
"Blocked","Male","tile","13","M_tile.wav","None","738.832928607","441","217073.089972","209389.956956","210156.559918","210906.549545","211673.211828","212439.836999","213206.528797","213973.140818","217839.726832","218606.417461","219373.047892","220139.761899","220889.707399","221656.324388","222422.960664","223189.605999","222428.17739"
"Blocked","Male","tile","13","M_gnash.wav","space","568.961476533","441","217073.089972","223956.25747","210156.559918","210906.549545","211673.211828","212439.836999","213206.528797","213973.140818","217839.726832","218606.417461","219373.047892","220139.761899","220889.707399","221656.324388","222422.960664","223189.605999","223194.361308"
"Blocked","Male","tile","13","M_knife.wav","None","732.658595528","441","217073.089972","223956.25747","224722.868322","210906.549545","211673.211828","212439.836999","213206.528797","213973.140818","217839.726832","218606.417461","219373.047892","220139.761899","220889.707399","221656.324388","222422.960664","223189.605999","223961.453156"
"Blocked","Male","tile","13","M_tile.wav","None","730.416969846","441","217073.089972","223956.25747","224722.868322","225489.996406","211673.211828","212439.836999","213206.528797","213973.140818","217839.726832","218606.417461","219373.047892","220139.761899","220889.707399","221656.324388","222422.960664","223189.605999","224728.019883"
"Blocked","Male","tile","13","M_cling.wav","space","467.436668449","441","217073.089972","223956.25747","224722.868322","225489.996406","226239.581598","212439.836999","213206.528797","213973.140818","217839.726832","218606.417461","219373.047892","220139.761899","220889.707399","221656.324388","222422.960664","223189.605999","225495.869167"
"Blocked","Male","tile","13","M_tile.wav","None","740.924645025","441","217073.089972","223956.25747","224722.868322","225489.996406","226239.581598","227006.17784","213206.528797","213973.140818","217839.726832","218606.417461","219373.047892","220139.761899","220889.707399","221656.324388","222422.960664","223189.605999","226244.64257"
"Blocked","Male","tile","13","M_knife.wav","space","591.929153991","441","217073.089972","223956.25747","224722.868322","225489.996406","226239.581598","227006.17784","227772.806225","213973.140818","217839.726832","218606.417461","219373.047892","220139.761899","220889.707399","221656.324388","222422.960664","223189.605999","227011.240857"
"Blocked","Male","tile","13","M_greet.wav","None","734.775735154","441","217073.089972","223956.25747","224722.868322","225489.996406","226239.581598","227006.17784","227772.806225","228539.486919","217839.726832","218606.417461","219373.047892","220139.761899","220889.707399","221656.324388","222422.960664","223189.605999","227777.92155"
"Blocked","Male","cave","10","M_greet.wav","None","732.364621414","441","231639.405681","223956.25747","224722.868322","225489.996406","226239.581598","227006.17784","227772.806225","228539.486919","217839.726832","218606.417461","219373.047892","220139.761899","220889.707399","221656.324388","222422.960664","223189.605999","228544.657766"
"Blocked","Male","cave","10","M_cave.wav","None","741.233814621","441","231639.405681","223956.25747","224722.868322","225489.996406","226239.581598","227006.17784","227772.806225","228539.486919","232406.093388","218606.417461","219373.047892","220139.761899","220889.707399","221656.324388","222422.960664","223189.605999","231644.447367"
"Blocked","Male","cave","10","M_depth.wav","space","544.036796442","441","231639.405681","223956.25747","224722.868322","225489.996406","226239.581598","227006.17784","227772.806225","228539.486919","232406.093388","233172.718267","219373.047892","220139.761899","220889.707399","221656.324388","222422.960664","223189.605999","232410.824735"
"Blocked","Male","cave","10","M_greet.wav","None","735.065033737","441","231639.405681","223956.25747","224722.868322","225489.996406","226239.581598","227006.17784","227772.806225","228539.486919","232406.093388","233172.718267","233939.362433","220139.761899","220889.707399","221656.324388","222422.960664","223189.605999","233177.732776"
"Blocked","Male","cave","10","M_cave.wav","None","732.441475481","441","231639.405681","223956.25747","224722.868322","225489.996406","226239.581598","227006.17784","227772.806225","228539.486919","232406.093388","233172.718267","233939.362433","234706.041373","220889.707399","221656.324388","222422.960664","223189.605999","233944.567469"
"Blocked","Male","cave","10","M_depth.wav","None","729.914934528","441","231639.405681","223956.25747","224722.868322","225489.996406","226239.581598","227006.17784","227772.806225","228539.486919","232406.093388","233172.718267","233939.362433","234706.041373","235472.833402","221656.324388","222422.960664","223189.605999","234711.219817"
"Blocked","Male","cave","10","M_cad.wav","space","84.9506292975","441","231639.405681","223956.25747","224722.868322","225489.996406","226239.581598","227006.17784","227772.806225","228539.486919","232406.093388","233172.718267","233939.362433","234706.041373","235472.833402","236222.63776","222422.960664","223189.605999","235477.803785"
"Blocked","Male","cave","10","M_cave.wav","None","740.644697508","441","231639.405681","223956.25747","224722.868322","225489.996406","226239.581598","227006.17784","227772.806225","228539.486919","232406.093388","233172.718267","233939.362433","234706.041373","235472.833402","236222.63776","236989.276958","223189.605999","236227.540056"
"Blocked","Male","cave","10","M_gnash.wav","space","616.407905157","441","231639.405681","223956.25747","224722.868322","225489.996406","226239.581598","227006.17784","227772.806225","228539.486919","232406.093388","233172.718267","233939.362433","234706.041373","235472.833402","236222.63776","236989.276958","237755.943625","236994.223087"
"Blocked","Male","cave","10","M_cad.wav","None","734.279836473","441","231639.405681","238522.532268","224722.868322","225489.996406","226239.581598","227006.17784","227772.806225","228539.486919","232406.093388","233172.718267","233939.362433","234706.041373","235472.833402","236222.63776","236989.276958","237755.943625","237760.880695"
"Blocked","Male","cave","10","M_priest.wav","None","731.495849003","441","231639.405681","238522.532268","239289.217929","225489.996406","226239.581598","227006.17784","227772.806225","228539.486919","232406.093388","233172.718267","233939.362433","234706.041373","235472.833402","236222.63776","236989.276958","237755.943625","238527.788736"
"Blocked","Male","cave","10","M_gnash.wav","None","729.354162831","441","231639.405681","238522.532268","239289.217929","240039.2397","226239.581598","227006.17784","227772.806225","228539.486919","232406.093388","233172.718267","233939.362433","234706.041373","235472.833402","236222.63776","236989.276958","237755.943625","239294.302279"
"Blocked","Male","cave","10","M_cad.wav","None","743.312965544","441","231639.405681","238522.532268","239289.217929","240039.2397","240805.848507","227006.17784","227772.806225","228539.486919","232406.093388","233172.718267","233939.362433","234706.041373","235472.833402","236222.63776","236989.276958","237755.943625","240044.516915"
"Blocked","Male","cave","10","M_dime.wav","None","741.422589252","441","231639.405681","238522.532268","239289.217929","240039.2397","240805.848507","241572.555792","227772.806225","228539.486919","232406.093388","233172.718267","233939.362433","234706.041373","235472.833402","236222.63776","236989.276958","237755.943625","240810.640051"
"Blocked","Male","cave","10","M_cave.wav","None","739.02228768","441","231639.405681","238522.532268","239289.217929","240039.2397","240805.848507","241572.555792","242339.151449","228539.486919","232406.093388","233172.718267","233939.362433","234706.041373","235472.833402","236222.63776","236989.276958","237755.943625","241577.384741"
"Blocked","Male","cave","10","M_gnash.wav","space","554.112861514","441","231639.405681","238522.532268","239289.217929","240039.2397","240805.848507","241572.555792","242339.151449","243105.747983","232406.093388","233172.718267","233939.362433","234706.041373","235472.833402","236222.63776","236989.276958","237755.943625","242344.148133"
"Blocked","Male","done","23","M_bluff.wav","None","732.52621951","441","246189.048734","238522.532268","239289.217929","240039.2397","240805.848507","241572.555792","242339.151449","243105.747983","232406.093388","233172.718267","233939.362433","234706.041373","235472.833402","236222.63776","236989.276958","237755.943625","243110.764829"
"Blocked","Male","done","23","M_lash.wav","None","740.464689501","441","246189.048734","238522.532268","239289.217929","240039.2397","240805.848507","241572.555792","242339.151449","243105.747983","246955.736148","233172.718267","233939.362433","234706.041373","235472.833402","236222.63776","236989.276958","237755.943625","246194.290006"
"Blocked","Male","done","23","M_dime.wav","None","738.032243642","441","246189.048734","238522.532268","239289.217929","240039.2397","240805.848507","241572.555792","242339.151449","243105.747983","246955.736148","247722.346416","233939.362433","234706.041373","235472.833402","236222.63776","236989.276958","237755.943625","246960.947321"
"Blocked","Male","done","23","M_done.wav","None","735.739479321","441","246189.048734","238522.532268","239289.217929","240039.2397","240805.848507","241572.555792","242339.151449","243105.747983","246955.736148","247722.346416","248489.002271","234706.041373","235472.833402","236222.63776","236989.276958","237755.943625","247727.498561"
"Blocked","Male","done","23","M_dime.wav","space","515.866420032","441","246189.048734","238522.532268","239289.217929","240039.2397","240805.848507","241572.555792","242339.151449","243105.747983","246955.736148","247722.346416","248489.002271","249255.60611","235472.833402","236222.63776","236989.276958","237755.943625","248494.032851"
"Blocked","Male","done","23","M_done.wav","None","729.520728682","441","246189.048734","238522.532268","239289.217929","240039.2397","240805.848507","241572.555792","242339.151449","243105.747983","246955.736148","247722.346416","248489.002271","249255.60611","250022.463304","236222.63776","236989.276958","237755.943625","249260.78134"
"Blocked","Male","done","23","M_jolt.wav","space","445.779016794","441","246189.048734","238522.532268","239289.217929","240039.2397","240805.848507","241572.555792","242339.151449","243105.747983","246955.736148","247722.346416","248489.002271","249255.60611","250022.463304","250772.266494","236989.276958","237755.943625","250028.09323"
"Blocked","Male","done","23","M_done.wav","None","740.078958058","441","246189.048734","238522.532268","239289.217929","240039.2397","240805.848507","241572.555792","242339.151449","243105.747983","246955.736148","247722.346416","248489.002271","249255.60611","250022.463304","250772.266494","251538.904815","237755.943625","250777.405781"
"Blocked","Male","done","23","M_jolt.wav","None","737.560891507","441","246189.048734","238522.532268","239289.217929","240039.2397","240805.848507","241572.555792","242339.151449","243105.747983","246955.736148","247722.346416","248489.002271","249255.60611","250022.463304","250772.266494","251538.904815","252305.565053","251544.251287"
"Blocked","Male","done","23","M_dime.wav","space","2.99409421769","441","246189.048734","253072.23581","239289.217929","240039.2397","240805.848507","241572.555792","242339.151449","243105.747983","246955.736148","247722.346416","248489.002271","249255.60611","250022.463304","250772.266494","251538.904815","252305.565053","252310.735023"
"Blocked","Male","done","23","M_done.wav","None","731.802388613","441","246189.048734","253072.23581","253838.873547","240039.2397","240805.848507","241572.555792","242339.151449","243105.747983","246955.736148","247722.346416","248489.002271","249255.60611","250022.463304","250772.266494","251538.904815","252305.565053","253077.072065"
"Blocked","Male","done","23","M_gnash.wav","space","717.616530346","441","246189.048734","253072.23581","253838.873547","254588.87194","240805.848507","241572.555792","242339.151449","243105.747983","246955.736148","247722.346416","248489.002271","249255.60611","250022.463304","250772.266494","251538.904815","252305.565053","253844.023354"
"Blocked","Male","done","23","M_reek.wav","None","742.297790519","441","246189.048734","253072.23581","253838.873547","254588.87194","255355.500034","241572.555792","242339.151449","243105.747983","246955.736148","247722.346416","248489.002271","249255.60611","250022.463304","250772.266494","251538.904815","252305.565053","254593.761086"
"Blocked","Male","done","23","M_park.wav","None","739.571662766","441","246189.048734","253072.23581","253838.873547","254588.87194","255355.500034","256122.113224","242339.151449","243105.747983","246955.736148","247722.346416","248489.002271","249255.60611","250022.463304","250772.266494","251538.904815","252305.565053","255360.783678"
"Blocked","Male","done","23","M_cling.wav","None","737.439035438","441","246189.048734","253072.23581","253838.873547","254588.87194","255355.500034","256122.113224","256888.786904","243105.747983","246955.736148","247722.346416","248489.002271","249255.60611","250022.463304","250772.266494","251538.904815","252305.565053","256127.288454"
"Blocked","Male","done","23","M_jaw.wav","None","735.362222281","441","246189.048734","253072.23581","253838.873547","254588.87194","255355.500034","256122.113224","256888.786904","257655.427271","246955.736148","247722.346416","248489.002271","249255.60611","250022.463304","250772.266494","251538.904815","252305.565053","256893.729819"
"Blocked","Male","done","21","M_knife.wav","None","733.193651796","441","260755.403016","253072.23581","253838.873547","254588.87194","255355.500034","256122.113224","256888.786904","257655.427271","246955.736148","247722.346416","248489.002271","249255.60611","250022.463304","250772.266494","251538.904815","252305.565053","257660.531783"
"Blocked","Male","done","21","M_priest.wav","None","740.616352091","441","260755.403016","253072.23581","253838.873547","254588.87194","255355.500034","256122.113224","256888.786904","257655.427271","261521.965068","247722.346416","248489.002271","249255.60611","250022.463304","250772.266494","251538.904815","252305.565053","260760.514542"
"Blocked","Male","done","21","M_done.wav","None","738.383493032","441","260755.403016","253072.23581","253838.873547","254588.87194","255355.500034","256122.113224","256888.786904","257655.427271","261521.965068","262288.617124","248489.002271","249255.60611","250022.463304","250772.266494","251538.904815","252305.565053","261527.059645"
"Blocked","Male","done","21","M_priest.wav","space","603.541423758","441","260755.403016","253072.23581","253838.873547","254588.87194","255355.500034","256122.113224","256888.786904","257655.427271","261521.965068","262288.617124","263055.275316","249255.60611","250022.463304","250772.266494","251538.904815","252305.565053","262293.587215"
"Blocked","Male","done","21","M_romp.wav","None","732.265266345","441","260755.403016","253072.23581","253838.873547","254588.87194","255355.500034","256122.113224","256888.786904","257655.427271","261521.965068","262288.617124","263055.275316","263821.964191","250022.463304","250772.266494","251538.904815","252305.565053","263060.374861"
"Blocked","Male","done","21","M_jaw.wav","None","729.906167904","441","260755.403016","253072.23581","253838.873547","254588.87194","255355.500034","256122.113224","256888.786904","257655.427271","261521.965068","262288.617124","263055.275316","263821.964191","264588.90087","250772.266494","251538.904815","252305.565053","263827.111076"
"Blocked","Male","done","21","M_done.wav","None","727.17594906","441","260755.403016","253072.23581","253838.873547","254588.87194","255355.500034","256122.113224","256888.786904","257655.427271","261521.965068","262288.617124","263055.275316","263821.964191","264588.90087","265338.57782","251538.904815","252305.565053","264594.34056"
"Blocked","Male","done","21","M_greet.wav","None","742.335779221","441","260755.403016","253072.23581","253838.873547","254588.87194","255355.500034","256122.113224","256888.786904","257655.427271","261521.965068","262288.617124","263055.275316","263821.964191","264588.90087","265338.57782","266105.237181","252305.565053","265343.554632"
"Blocked","Male","done","21","M_lash.wav","space","18.7573603112","441","260755.403016","253072.23581","253838.873547","254588.87194","255355.500034","256122.113224","256888.786904","257655.427271","261521.965068","262288.617124","263055.275316","263821.964191","264588.90087","265338.57782","266105.237181","266871.874626","266110.219253"
"Blocked","Male","done","21","M_done.wav","None","736.129886297","441","260755.403016","267638.521129","253838.873547","254588.87194","255355.500034","256122.113224","256888.786904","257655.427271","261521.965068","262288.617124","263055.275316","263821.964191","264588.90087","265338.57782","266105.237181","266871.874626","266876.935597"
"Blocked","Male","done","21","M_dime.wav","None","733.74594909","441","260755.403016","267638.521129","268405.167048","254588.87194","255355.500034","256122.113224","256888.786904","257655.427271","261521.965068","262288.617124","263055.275316","263821.964191","264588.90087","265338.57782","266105.237181","266871.874626","267643.713016"
"Blocked","Male","done","21","M_park.wav","space","630.516032693","441","260755.403016","267638.521129","268405.167048","269172.119214","255355.500034","256122.113224","256888.786904","257655.427271","261521.965068","262288.617124","263055.275316","263821.964191","264588.90087","265338.57782","266105.237181","266871.874626","268410.329128"
"Blocked","Male","done","21","M_dime.wav","None","726.704889146","441","260755.403016","267638.521129","268405.167048","269172.119214","269921.797041","256122.113224","256888.786904","257655.427271","261521.965068","262288.617124","263055.275316","263821.964191","264588.90087","265338.57782","266105.237181","266871.874626","269177.804954"
"Blocked","Male","done","21","M_romp.wav","space","625.91881522","441","260755.403016","267638.521129","268405.167048","269172.119214","269921.797041","270688.401172","256888.786904","257655.427271","261521.965068","262288.617124","263055.275316","263821.964191","264588.90087","265338.57782","266105.237181","266871.874626","269926.782328"
"Blocked","Male","done","21","M_done.wav","None","738.228031572","441","260755.403016","267638.521129","268405.167048","269172.119214","269921.797041","270688.401172","271455.093262","257655.427271","261521.965068","262288.617124","263055.275316","263821.964191","264588.90087","265338.57782","266105.237181","266871.874626","270693.598027"
"Blocked","Male","done","21","M_romp.wav","space","708.365404565","441","260755.403016","267638.521129","268405.167048","269172.119214","269921.797041","270688.401172","271455.093262","272221.807853","261521.965068","262288.617124","263055.275316","263821.964191","264588.90087","265338.57782","266105.237181","266871.874626","271460.263525"
"Blocked","Male","ball","6","M_priest.wav","None","732.375433583","441","275321.668172","267638.521129","268405.167048","269172.119214","269921.797041","270688.401172","271455.093262","272221.807853","261521.965068","262288.617124","263055.275316","263821.964191","264588.90087","265338.57782","266105.237181","266871.874626","272226.689986"
"Blocked","Male","ball","6","M_jolt.wav","None","740.528393633","441","275321.668172","267638.521129","268405.167048","269172.119214","269921.797041","270688.401172","271455.093262","272221.807853","276088.338637","262288.617124","263055.275316","263821.964191","264588.90087","265338.57782","266105.237181","266871.874626","275326.718916"
"Blocked","Male","ball","6","M_jolt.wav","None","738.633341808","441","275321.668172","267638.521129","268405.167048","269172.119214","269921.797041","270688.401172","271455.093262","272221.807853","276088.338637","276854.982218","263055.275316","263821.964191","264588.90087","265338.57782","266105.237181","266871.874626","276093.140701"
"Blocked","Male","ball","6","M_bluff.wav","None","736.432042594","441","275321.668172","267638.521129","268405.167048","269172.119214","269921.797041","270688.401172","271455.093262","272221.807853","276088.338637","276854.982218","277621.611773","263821.964191","264588.90087","265338.57782","266105.237181","266871.874626","276859.969843"
"Blocked","Male","ball","6","M_ball.wav","None","734.451954519","441","275321.668172","267638.521129","268405.167048","269172.119214","269921.797041","270688.401172","271455.093262","272221.807853","276088.338637","276854.982218","277621.611773","278388.276102","264588.90087","265338.57782","266105.237181","266871.874626","277626.643523"
"Blocked","Male","ball","6","M_depth.wav","space","574.862583173","441","275321.668172","267638.521129","268405.167048","269172.119214","269921.797041","270688.401172","271455.093262","272221.807853","276088.338637","276854.982218","277621.611773","278388.276102","279155.103198","265338.57782","266105.237181","266871.874626","278393.352269"
"Blocked","Male","ball","6","M_ball.wav","None","728.509936968","441","275321.668172","267638.521129","268405.167048","269172.119214","269921.797041","270688.401172","271455.093262","272221.807853","276088.338637","276854.982218","277621.611773","278388.276102","279155.103198","279904.854664","266105.237181","266871.874626","279160.132025"
