"Condition","Talker","Target","Trial","current_stimulus","response_response","response_time_response","subject_nr","time_Audio1","time_Audio10","time_Audio11","time_Audio12","time_Audio13","time_Audio14","time_Audio15","time_Audio16","time_Audio2","time_Audio3","time_Audio4","time_Audio5","time_Audio6","time_Audio7","time_Audio8","time_Audio9","time_response"
"Mixed","Male","ball","1","F_jolt.wav","NA","NA","243","161039.380461","NA","NA","NA","NA","NA","NA","NA","NA","NA","NA","NA","NA","NA","NA","NA","NA"
"Mixed","Male","ball","1","F_gnash.wav","None","718.805418583","243","161039.380461","NA","NA","NA","NA","NA","NA","NA","161805.691315","NA","NA","NA","NA","NA","NA","NA","161053.351212"
"Mixed","Male","ball","1","M_ball.wav","None","723.680402851","243","161039.380461","NA","NA","NA","NA","NA","NA","NA","161805.691315","162572.642768","NA","NA","NA","NA","NA","NA","161814.800685"
"Mixed","Male","ball","1","M_cave.wav","space","534.77445466","243","161039.380461","NA","NA","NA","NA","NA","NA","NA","161805.691315","162572.642768","163339.03988","NA","NA","NA","NA","NA","162582.501564"
"Mixed","Male","ball","1","F_romp.wav","None","720.684241503","243","161039.380461","NA","NA","NA","NA","NA","NA","NA","161805.691315","162572.642768","163339.03988","164105.731322","NA","NA","NA","NA","163349.705609"
"Mixed","Male","ball","1","F_bluff.wav","None","720.371362055","243","161039.380461","NA","NA","NA","NA","NA","NA","NA","161805.691315","162572.642768","163339.03988","164105.731322","164872.779854","NA","NA","NA","164116.146005"
"Mixed","Male","ball","1","F_gnash.wav","None","719.934196328","243","161039.380461","NA","NA","NA","NA","NA","NA","NA","161805.691315","162572.642768","163339.03988","164105.731322","164872.779854","165639.214685","NA","NA","164882.775303"
"Mixed","Male","ball","1","M_bluff.wav","None","719.764153124","243","161039.380461","NA","NA","NA","NA","NA","NA","NA","161805.691315","162572.642768","163339.03988","164105.731322","164872.779854","165639.214685","166389.088544","NA","165648.68671"
"Mixed","Male","ball","1","M_ball.wav","None","736.405199976","243","161039.380461","NA","NA","NA","NA","NA","NA","NA","161805.691315","162572.642768","163339.03988","164105.731322","164872.779854","165639.214685","166389.088544","167155.655081","166398.413095"
"Mixed","Male","ball","1","F_done.wav","space","463.955786312","243","161039.380461","167922.124538","NA","NA","NA","NA","NA","NA","161805.691315","162572.642768","163339.03988","164105.731322","164872.779854","165639.214685","166389.088544","167155.655081","167165.227586"
"Mixed","Male","ball","1","F_park.wav","None","735.157082789","243","161039.380461","167922.124538","168689.288082","NA","NA","NA","NA","NA","161805.691315","162572.642768","163339.03988","164105.731322","164872.779854","165639.214685","166389.088544","167155.655081","167931.735381"
"Mixed","Male","ball","1","M_jolt.wav","None","734.552347334","243","161039.380461","167922.124538","168689.288082","169455.632635","NA","NA","NA","NA","161805.691315","162572.642768","163339.03988","164105.731322","164872.779854","165639.214685","166389.088544","167155.655081","168698.68065"
"Mixed","Male","ball","1","M_ball.wav","None","732.841403456","243","161039.380461","167922.124538","168689.288082","169455.632635","170222.193607","NA","NA","NA","161805.691315","162572.642768","163339.03988","164105.731322","164872.779854","165639.214685","166389.088544","167155.655081","169466.662874"
"Mixed","Male","ball","1","F_gnash.wav","space","517.447051709","243","161039.380461","167922.124538","168689.288082","169455.632635","170222.193607","170989.076115","NA","NA","161805.691315","162572.642768","163339.03988","164105.731322","164872.779854","165639.214685","166389.088544","167155.655081","170231.60318"
"Mixed","Male","ball","1","M_ball.wav","None","733.85331512","243","161039.380461","167922.124538","168689.288082","169455.632635","170222.193607","170989.076115","171755.675424","NA","161805.691315","162572.642768","163339.03988","164105.731322","164872.779854","165639.214685","166389.088544","167155.655081","170998.617394"
"Mixed","Male","ball","1","M_gnash.wav","space","623.79207497","243","161039.380461","167922.124538","168689.288082","169455.632635","170222.193607","170989.076115","171755.675424","172522.30565","161805.691315","162572.642768","163339.03988","164105.731322","164872.779854","165639.214685","166389.088544","167155.655081","171765.223814"
"Mixed","Female","ball","7","M_tile.wav","None","734.01006416","243","175689.313743","167922.124538","168689.288082","169455.632635","170222.193607","170989.076115","171755.675424","172522.30565","161805.691315","162572.642768","163339.03988","164105.731322","164872.779854","165639.214685","166389.088544","167155.655081","172531.470979"
"Mixed","Female","ball","7","M_jolt.wav","None","722.537712427","243","175689.313743","167922.124538","168689.288082","169455.632635","170222.193607","170989.076115","171755.675424","172522.30565","176455.952007","162572.642768","163339.03988","164105.731322","164872.779854","165639.214685","166389.088544","167155.655081","175699.061238"
"Mixed","Female","ball","7","M_bluff.wav","None","722.130227135","243","175689.313743","167922.124538","168689.288082","169455.632635","170222.193607","170989.076115","171755.675424","172522.30565","176455.952007","177222.734035","163339.03988","164105.731322","164872.779854","165639.214685","166389.088544","167155.655081","176466.102968"
"Mixed","Female","ball","7","F_ball.wav","None","722.38714702","243","175689.313743","167922.124538","168689.288082","169455.632635","170222.193607","170989.076115","171755.675424","172522.30565","176455.952007","177222.734035","177989.463814","164105.731322","164872.779854","165639.214685","166389.088544","167155.655081","177232.307159"
"Mixed","Female","ball","7","F_priest.wav","space","517.540420755","243","175689.313743","167922.124538","168689.288082","169455.632635","170222.193607","170989.076115","171755.675424","172522.30565","176455.952007","177222.734035","177989.463814","178755.405519","164872.779854","165639.214685","166389.088544","167155.655081","177999.31519"
"Mixed","Female","ball","7","F_ball.wav","None","723.177384119","243","175689.313743","167922.124538","168689.288082","169455.632635","170222.193607","170989.076115","171755.675424","172522.30565","176455.952007","177222.734035","177989.463814","178755.405519","179522.601525","165639.214685","166389.088544","167155.655081","178764.252713"
"Mixed","Female","ball","7","M_tile.wav","None","721.169946715","243","175689.313743","167922.124538","168689.288082","169455.632635","170222.193607","170989.076115","171755.675424","172522.30565","176455.952007","177222.734035","177989.463814","178755.405519","179522.601525","180289.175173","166389.088544","167155.655081","179532.480726"
"Mixed","Female","ball","7","F_ball.wav","space","1.8834604416","243","175689.313743","167922.124538","168689.288082","169455.632635","170222.193607","170989.076115","171755.675424","172522.30565","176455.952007","177222.734035","177989.463814","178755.405519","179522.601525","180289.175173","181055.826732","167155.655081","180298.944619"
"Mixed","Female","ball","7","M_jolt.wav","space","466.819623136","243","175689.313743","167922.124538","168689.288082","169455.632635","170222.193607","170989.076115","171755.675424","172522.30565","176455.952007","177222.734035","177989.463814","178755.405519","179522.601525","180289.175173","181055.826732","181823.0518","181065.882469"
"Mixed","Female","ball","7","M_park.wav","None","720.145977451","243","175689.313743","182589.195702","168689.288082","169455.632635","170222.193607","170989.076115","171755.675424","172522.30565","176455.952007","177222.734035","177989.463814","178755.405519","179522.601525","180289.175173","181055.826732","181823.0518","181832.244954"
"Mixed","Female","ball","7","M_cave.wav","None","719.889985048","243","175689.313743","182589.195702","183355.771514","169455.632635","170222.193607","170989.076115","171755.675424","172522.30565","176455.952007","177222.734035","177989.463814","178755.405519","179522.601525","180289.175173","181055.826732","181823.0518","182598.921555"
"Mixed","Female","ball","7","F_cling.wav","None","719.910081127","243","175689.313743","182589.195702","183355.771514","184122.547977","170222.193607","170989.076115","171755.675424","172522.30565","176455.952007","177222.734035","177989.463814","178755.405519","179522.601525","180289.175173","181055.826732","181823.0518","183365.010116"
"Mixed","Female","ball","7","F_park.wav","None","718.776047463","243","175689.313743","182589.195702","183355.771514","184122.547977","184889.238491","170989.076115","171755.675424","172522.30565","176455.952007","177222.734035","177989.463814","178755.405519","179522.601525","180289.175173","181055.826732","181823.0518","184132.637104"
"Mixed","Female","ball","7","F_knife.wav","None","719.097274705","243","175689.313743","182589.195702","183355.771514","184122.547977","184889.238491","185655.709185","171755.675424","172522.30565","176455.952007","177222.734035","177989.463814","178755.405519","179522.601525","180289.175173","181055.826732","181823.0518","184898.852734"
"Mixed","Female","ball","7","F_ball.wav","None","718.431941932","243","175689.313743","182589.195702","183355.771514","184122.547977","184889.238491","185655.709185","186405.19009","172522.30565","176455.952007","177222.734035","177989.463814","178755.405519","179522.601525","180289.175173","181055.826732","181823.0518","185665.766777"
"Mixed","Female","ball","7","M_bluff.wav","space","430.745110847","243","175689.313743","182589.195702","183355.771514","184122.547977","184889.238491","185655.709185","186405.19009","187171.769612","176455.952007","177222.734035","177989.463814","178755.405519","179522.601525","180289.175173","181055.826732","181823.0518","186413.819628"
"Mixed","Male","cave","15","F_done.wav","None","735.545090516","243","190305.590217","182589.195702","183355.771514","184122.547977","184889.238491","185655.709185","186405.19009","187171.769612","176455.952007","177222.734035","177989.463814","178755.405519","179522.601525","180289.175173","181055.826732","181823.0518","187181.58296"
"Mixed","Male","cave","15","F_knife.wav","None","723.310636124","243","190305.590217","182589.195702","183355.771514","184122.547977","184889.238491","185655.709185","186405.19009","187171.769612","191072.091828","177222.734035","177989.463814","178755.405519","179522.601525","180289.175173","181055.826732","181823.0518","190315.049566"
"Mixed","Male","cave","15","M_greet.wav","None","722.820911789","243","190305.590217","182589.195702","183355.771514","184122.547977","184889.238491","185655.709185","186405.19009","187171.769612","191072.091828","191839.125211","177989.463814","178755.405519","179522.601525","180289.175173","181055.826732","181823.0518","191081.991126"
"Mixed","Male","cave","15","M_cave.wav","None","722.080141772","243","190305.590217","182589.195702","183355.771514","184122.547977","184889.238491","185655.709185","186405.19009","187171.769612","191072.091828","191839.125211","192605.391235","178755.405519","179522.601525","180289.175173","181055.826732","181823.0518","191848.923101"
"Mixed","Male","cave","15","M_bluff.wav","space","525.043654721","243","190305.590217","182589.195702","183355.771514","184122.547977","184889.238491","185655.709185","186405.19009","187171.769612","191072.091828","191839.125211","192605.391235","193372.243445","179522.601525","180289.175173","181055.826732","181823.0518","192615.400597"
"Mixed","Male","cave","15","M_cave.wav","None","721.337207477","243","190305.590217","182589.195702","183355.771514","184122.547977","184889.238491","185655.709185","186405.19009","187171.769612","191072.091828","191839.125211","192605.391235","193372.243445","194138.943852","180289.175173","181055.826732","181823.0518","193382.083073"
"Mixed","Male","cave","15","F_done.wav","space","535.250575631","243","190305.590217","182589.195702","183355.771514","184122.547977","184889.238491","185655.709185","186405.19009","187171.769612","191072.091828","191839.125211","192605.391235","193372.243445","194138.943852","194904.816922","181055.826732","181823.0518","194149.10378"
"Mixed","Male","cave","15","M_cave.wav","None","722.460420104","243","190305.590217","182589.195702","183355.771514","184122.547977","184889.238491","185655.709185","186405.19009","187171.769612","191072.091828","191839.125211","192605.391235","193372.243445","194138.943852","194904.816922","195671.35718","181823.0518","194913.810971"
"Mixed","Male","cave","15","F_priest.wav","space","532.15517092","243","190305.590217","182589.195702","183355.771514","184122.547977","184889.238491","185655.709185","186405.19009","187171.769612","191072.091828","191839.125211","192605.391235","193372.243445","194138.943852","194904.816922","195671.35718","196438.726321","195680.188297"
"Mixed","Male","cave","15","F_knife.wav","None","720.822440227","243","190305.590217","197205.549468","183355.771514","184122.547977","184889.238491","185655.709185","186405.19009","187171.769612","191072.091828","191839.125211","192605.391235","193372.243445","194138.943852","194904.816922","195671.35718","196438.726321","196448.505042"
"Mixed","Male","cave","15","F_greet.wav","None","720.203173812","243","190305.590217","197205.549468","197972.150632","184122.547977","184889.238491","185655.709185","186405.19009","187171.769612","191072.091828","191839.125211","192605.391235","193372.243445","194138.943852","194904.816922","195671.35718","196438.726321","197215.487412"
"Mixed","Male","cave","15","M_lash.wav","None","720.363323577","243","190305.590217","197205.549468","197972.150632","198738.641114","184889.238491","185655.709185","186405.19009","187171.769612","191072.091828","191839.125211","192605.391235","193372.243445","194138.943852","194904.816922","195671.35718","196438.726321","197981.901219"
"Mixed","Male","cave","15","F_dime.wav","None","719.978407607","243","190305.590217","197205.549468","197972.150632","198738.641114","199504.721018","185655.709185","186405.19009","187171.769612","191072.091828","191839.125211","192605.391235","193372.243445","194138.943852","194904.816922","195671.35718","196438.726321","198748.807842"
"Mixed","Male","cave","15","M_bluff.wav","None","721.781483851","243","190305.590217","197205.549468","197972.150632","198738.641114","199504.721018","200272.080884","186405.19009","187171.769612","191072.091828","191839.125211","192605.391235","193372.243445","194138.943852","194904.816922","195671.35718","196438.726321","199513.651378"
"Mixed","Male","cave","15","M_cave.wav","None","720.268408535","243","190305.590217","197205.549468","197972.150632","198738.641114","199504.721018","200272.080884","201038.674318","187171.769612","191072.091828","191839.125211","192605.391235","193372.243445","194138.943852","194904.816922","195671.35718","196438.726321","200281.447482"
"Mixed","Male","cave","15","F_depth.wav","space","427.803363302","243","190305.590217","197205.549468","197972.150632","198738.641114","199504.721018","200272.080884","201038.674318","201805.201591","191072.091828","191839.125211","192605.391235","193372.243445","194138.943852","194904.816922","195671.35718","196438.726321","201048.365854"
"Mixed","Male","cave","14","F_cad.wav","None","718.867870746","243","204938.488569","197205.549468","197972.150632","198738.641114","199504.721018","200272.080884","201038.674318","201805.201591","191072.091828","191839.125211","192605.391235","193372.243445","194138.943852","194904.816922","195671.35718","196438.726321","201815.343895"
"Mixed","Male","cave","14","M_knife.wav","None","722.381581902","243","204938.488569","197205.549468","197972.150632","198738.641114","199504.721018","200272.080884","201038.674318","201805.201591","205704.541267","191839.125211","192605.391235","193372.243445","194138.943852","194904.816922","195671.35718","196438.726321","204948.246267"
"Mixed","Male","cave","14","M_jolt.wav","None","723.787993775","243","204938.488569","197205.549468","197972.150632","198738.641114","199504.721018","200272.080884","201038.674318","201805.201591","205704.541267","206471.128827","192605.391235","193372.243445","194138.943852","194904.816922","195671.35718","196438.726321","205713.477192"
"Mixed","Male","cave","14","F_jolt.wav","None","723.535711528","243","204938.488569","197205.549468","197972.150632","198738.641114","199504.721018","200272.080884","201038.674318","201805.201591","205704.541267","206471.128827","207238.416347","193372.243445","194138.943852","194904.816922","195671.35718","196438.726321","206480.198314"
"Mixed","Male","cave","14","M_cave.wav","None","727.645810461","243","204938.488569","197205.549468","197972.150632","198738.641114","199504.721018","200272.080884","201038.674318","201805.201591","205704.541267","206471.128827","207238.416347","208004.440601","194138.943852","194904.816922","195671.35718","196438.726321","207242.656916"
"Mixed","Male","cave","14","F_done.wav","space","446.774002048","243","204938.488569","197205.549468","197972.150632","198738.641114","199504.721018","200272.080884","201038.674318","201805.201591","205704.541267","206471.128827","207238.416347","208004.440601","208771.107","194904.816922","195671.35718","196438.726321","208013.183914"
"Mixed","Male","cave","14","F_jaw.wav","None","723.247565562","243","204938.488569","197205.549468","197972.150632","198738.641114","199504.721018","200272.080884","201038.674318","201805.201591","205704.541267","206471.128827","207238.416347","208004.440601","208771.107","209538.41678","195671.35718","196438.726321","208780.001187"
"Mixed","Male","cave","14","F_depth.wav","None","721.759532928","243","204938.488569","197205.549468","197972.150632","198738.641114","199504.721018","200272.080884","201038.674318","201805.201591","205704.541267","206471.128827","207238.416347","208004.440601","208771.107","209538.41678","210304.381364","196438.726321","209548.122537"
"Mixed","Male","cave","14","M_knife.wav","None","723.768825294","243","204938.488569","197205.549468","197972.150632","198738.641114","199504.721018","200272.080884","201038.674318","201805.201591","205704.541267","206471.128827","207238.416347","208004.440601","208771.107","209538.41678","210304.381364","211072.178087","210313.120039"
"Mixed","Male","cave","14","M_cave.wav","None","720.970532391","243","204938.488569","211838.261392","197972.150632","198738.641114","199504.721018","200272.080884","201038.674318","201805.201591","205704.541267","206471.128827","207238.416347","208004.440601","208771.107","209538.41678","210304.381364","211072.178087","211082.010912"
"Mixed","Male","cave","14","F_tile.wav","space","387.417791761","243","204938.488569","211838.261392","212604.375923","198738.641114","199504.721018","200272.080884","201038.674318","201805.201591","205704.541267","206471.128827","207238.416347","208004.440601","208771.107","209538.41678","210304.381364","211072.178087","211848.384528"
"Mixed","Male","cave","14","M_cave.wav","None","722.444652463","243","204938.488569","211838.261392","212604.375923","213370.932566","199504.721018","200272.080884","201038.674318","201805.201591","205704.541267","206471.128827","207238.416347","208004.440601","208771.107","209538.41678","210304.381364","211072.178087","212613.255888"
"Mixed","Male","cave","14","F_cling.wav","space","504.013328929","243","204938.488569","211838.261392","212604.375923","213370.932566","214138.228434","200272.080884","201038.674318","201805.201591","205704.541267","206471.128827","207238.416347","208004.440601","208771.107","209538.41678","210304.381364","211072.178087","213379.765847"
"Mixed","Male","cave","14","M_cave.wav","None","719.617916038","243","204938.488569","211838.261392","212604.375923","213370.932566","214138.228434","214904.893905","201038.674318","201805.201591","205704.541267","206471.128827","207238.416347","208004.440601","208771.107","209538.41678","210304.381364","211072.178087","214148.260984"
"Mixed","Male","cave","14","F_jaw.wav","space","392.977586482","243","204938.488569","211838.261392","212604.375923","213370.932566","214138.228434","214904.893905","215671.503417","201805.201591","205704.541267","206471.128827","207238.416347","208004.440601","208771.107","209538.41678","210304.381364","211072.178087","214914.754866"
"Mixed","Male","cave","14","M_lash.wav","None","719.839590485","243","204938.488569","211838.261392","212604.375923","213370.932566","214138.228434","214904.893905","215671.503417","216437.812725","205704.541267","206471.128827","207238.416347","208004.440601","208771.107","209538.41678","210304.381364","211072.178087","215681.267607"
"Mixed","Female","cave","23","M_park.wav","None","720.425466658","243","219554.959202","211838.261392","212604.375923","213370.932566","214138.228434","214904.893905","215671.503417","216437.812725","205704.541267","206471.128827","207238.416347","208004.440601","208771.107","209538.41678","210304.381364","211072.178087","216446.843256"
"Mixed","Female","cave","23","F_cave.wav","None","722.219267976","243","219554.959202","211838.261392","212604.375923","213370.932566","214138.228434","214904.893905","215671.503417","216437.812725","220321.302519","206471.128827","207238.416347","208004.440601","208771.107","209538.41678","210304.381364","211072.178087","219564.543765"
"Mixed","Female","cave","23","F_jaw.wav","space","632.48870289","243","219554.959202","211838.261392","212604.375923","213370.932566","214138.228434","214904.893905","215671.503417","216437.812725","220321.302519","221087.307913","207238.416347","208004.440601","208771.107","209538.41678","210304.381364","211072.178087","220331.08866"
"Mixed","Female","cave","23","M_priest.wav","None","723.079068237","243","219554.959202","211838.261392","212604.375923","213370.932566","214138.228434","214904.893905","215671.503417","216437.812725","220321.302519","221087.307913","221854.011103","208004.440601","208771.107","209538.41678","210304.381364","211072.178087","221096.682241"
"Mixed","Female","cave","23","M_dime.wav","None","723.392875283","243","219554.959202","211838.261392","212604.375923","213370.932566","214138.228434","214904.893905","215671.503417","216437.812725","220321.302519","221087.307913","221854.011103","222620.673792","208771.107","209538.41678","210304.381364","211072.178087","221863.068223"
"Mixed","Female","cave","23","F_cave.wav","None","724.751365953","243","219554.959202","211838.261392","212604.375923","213370.932566","214138.228434","214904.893905","215671.503417","216437.812725","220321.302519","221087.307913","221854.011103","222620.673792","223387.239401","209538.41678","210304.381364","211072.178087","222628.373657"
"Mixed","Female","cave","23","M_ball.wav","space","503.177952953","243","219554.959202","211838.261392","212604.375923","213370.932566","214138.228434","214904.893905","215671.503417","216437.812725","220321.302519","221087.307913","221854.011103","222620.673792","223387.239401","224154.617508","210304.381364","211072.178087","223396.324964"
"Mixed","Female","cave","23","F_cave.wav","None","720.743292826","243","219554.959202","211838.261392","212604.375923","213370.932566","214138.228434","214904.893905","215671.503417","216437.812725","220321.302519","221087.307913","221854.011103","222620.673792","223387.239401","224154.617508","224921.354088","211072.178087","224164.652531"
"Mixed","Female","cave","23","F_greet.wav","space","440.276805661","243","219554.959202","211838.261392","212604.375923","213370.932566","214138.228434","214904.893905","215671.503417","216437.812725","220321.302519","221087.307913","221854.011103","222620.673792","223387.239401","224154.617508","224921.354088","225687.828183","224931.16218"
"Mixed","Female","cave","23","M_tile.wav","None","720.54573358","243","219554.959202","226454.475414","212604.375923","213370.932566","214138.228434","214904.893905","215671.503417","216437.812725","220321.302519","221087.307913","221854.011103","222620.673792","223387.239401","224154.617508","224921.354088","225687.828183","225697.994603"
"Mixed","Female","cave","23","M_gnash.wav","None","721.248785034","243","219554.959202","226454.475414","227221.212921","213370.932566","214138.228434","214904.893905","215671.503417","216437.812725","220321.302519","221087.307913","221854.011103","222620.673792","223387.239401","224154.617508","224921.354088","225687.828183","226464.046682"
"Mixed","Female","cave","23","M_park.wav","None","720.90375179","243","219554.959202","226454.475414","227221.212921","227987.118763","214138.228434","214904.893905","215671.503417","216437.812725","220321.302519","221087.307913","221854.011103","222620.673792","223387.239401","224154.617508","224921.354088","225687.828183","227231.11562"
"Mixed","Female","cave","23","F_reek.wav","None","722.675602068","243","219554.959202","226454.475414","227221.212921","227987.118763","228754.468117","214904.893905","215671.503417","216437.812725","220321.302519","221087.307913","221854.011103","222620.673792","223387.239401","224154.617508","224921.354088","225687.828183","227996.118996"
"Mixed","Female","cave","23","M_park.wav","None","720.974242431","243","219554.959202","226454.475414","227221.212921","227987.118763","228754.468117","229521.123386","215671.503417","216437.812725","220321.302519","221087.307913","221854.011103","222620.673792","223387.239401","224154.617508","224921.354088","225687.828183","228764.338662"
"Mixed","Female","cave","23","F_cave.wav","None","721.253113239","243","219554.959202","226454.475414","227221.212921","227987.118763","228754.468117","229521.123386","230287.689923","216437.812725","220321.302519","221087.307913","221854.011103","222620.673792","223387.239401","224154.617508","224921.354088","225687.828183","229530.744122"
"Mixed","Female","cave","23","F_lash.wav","space","489.532758365","243","219554.959202","226454.475414","227221.212921","227987.118763","228754.468117","229521.123386","230287.689923","231054.340863","220321.302519","221087.307913","221854.011103","222620.673792","223387.239401","224154.617508","224921.354088","225687.828183","230297.736076"
"Mixed","Male","tile","28","F_lash.wav","None","720.51759914","243","234187.570645","226454.475414","227221.212921","227987.118763","228754.468117","229521.123386","230287.689923","231054.340863","220321.302519","221087.307913","221854.011103","222620.673792","223387.239401","224154.617508","224921.354088","225687.828183","231064.27386"
"Mixed","Male","tile","28","M_tile.wav","None","722.782574827","243","234187.570645","226454.475414","227221.212921","227987.118763","228754.468117","229521.123386","230287.689923","231054.340863","234954.207673","221087.307913","221854.011103","222620.673792","223387.239401","224154.617508","224921.354088","225687.828183","234197.174686"
"Mixed","Male","tile","28","F_cling.wav","space","455.221748678","243","234187.570645","226454.475414","227221.212921","227987.118763","228754.468117","229521.123386","230287.689923","231054.340863","234954.207673","235721.00114","221854.011103","222620.673792","223387.239401","224154.617508","224921.354088","225687.828183","234963.952076"
"Mixed","Male","tile","28","M_tile.wav","None","722.270280938","243","234187.570645","226454.475414","227221.212921","227987.118763","228754.468117","229521.123386","230287.689923","231054.340863","234954.207673","235721.00114","236487.368572","222620.673792","223387.239401","224154.617508","224921.354088","225687.828183","235730.974329"
"Mixed","Male","tile","28","F_knife.wav","space","553.772609564","243","234187.570645","226454.475414","227221.212921","227987.118763","228754.468117","229521.123386","230287.689923","231054.340863","234954.207673","235721.00114","236487.368572","237254.166059","223387.239401","224154.617508","224921.354088","225687.828183","236497.317027"
"Mixed","Male","tile","28","M_park.wav","None","721.88103653","243","234187.570645","226454.475414","227221.212921","227987.118763","228754.468117","229521.123386","230287.689923","231054.340863","234954.207673","235721.00114","236487.368572","237254.166059","238020.748672","224154.617508","224921.354088","225687.828183","237264.188715"
"Mixed","Male","tile","28","M_tile.wav","None","722.39054786","243","234187.570645","226454.475414","227221.212921","227987.118763","228754.468117","229521.123386","230287.689923","231054.340863","234954.207673","235721.00114","236487.368572","237254.166059","238020.748672","238786.781892","224921.354088","225687.828183","238030.597266"
"Mixed","Male","tile","28","F_lash.wav","space","679.185350891","243","234187.570645","226454.475414","227221.212921","227987.118763","228754.468117","229521.123386","230287.689923","231054.340863","234954.207673","235721.00114","236487.368572","237254.166059","238020.748672","238786.781892","239553.81342","225687.828183","238795.854161"
"Mixed","Male","tile","28","M_bluff.wav","None","722.858939553","243","234187.570645","226454.475414","227221.212921","227987.118763","228754.468117","229521.123386","230287.689923","231054.340863","234954.207673","235721.00114","236487.368572","237254.166059","238020.748672","238786.781892","239553.81342","240320.611834","239563.038109"
"Mixed","Male","tile","28","M_tile.wav","None","721.957092173","243","234187.570645","241087.332337","227221.212921","227987.118763","228754.468117","229521.123386","230287.689923","231054.340863","234954.207673","235721.00114","236487.368572","237254.166059","238020.748672","238786.781892","239553.81342","240320.611834","240330.512986"
"Mixed","Male","tile","28","F_dime.wav","space","601.511158515","243","234187.570645","241087.332337","241854.026561","227987.118763","228754.468117","229521.123386","230287.689923","231054.340863","234954.207673","235721.00114","236487.368572","237254.166059","238020.748672","238786.781892","239553.81342","240320.611834","241097.452691"
"Mixed","Male","tile","28","M_jolt.wav","None","722.092508455","243","234187.570645","241087.332337","241854.026561","242620.807971","228754.468117","229521.123386","230287.689923","231054.340863","234954.207673","235721.00114","236487.368572","237254.166059","238020.748672","238786.781892","239553.81342","240320.611834","241863.510026"
"Mixed","Male","tile","28","F_ball.wav","None","722.127753776","243","234187.570645","241087.332337","241854.026561","242620.807971","243386.626318","229521.123386","230287.689923","231054.340863","234954.207673","235721.00114","236487.368572","237254.166059","238020.748672","238786.781892","239553.81342","240320.611834","242630.5094"
"Mixed","Male","tile","28","M_gnash.wav","None","723.725541611","243","234187.570645","241087.332337","241854.026561","242620.807971","243386.626318","244153.880139","230287.689923","231054.340863","234954.207673","235721.00114","236487.368572","237254.166059","238020.748672","238786.781892","239553.81342","240320.611834","243395.803705"
"Mixed","Male","tile","28","F_cad.wav","None","722.317583743","243","234187.570645","241087.332337","241854.026561","242620.807971","243386.626318","244153.880139","244920.742551","231054.340863","234954.207673","235721.00114","236487.368572","237254.166059","238020.748672","238786.781892","239553.81342","240320.611834","244164.087369"
"Mixed","Male","tile","28","F_depth.wav","None","722.195461858","243","234187.570645","241087.332337","241854.026561","242620.807971","243386.626318","244153.880139","244920.742551","245686.476495","234954.207673","235721.00114","236487.368572","237254.166059","238020.748672","238786.781892","239553.81342","240320.611834","244930.839717"
"Mixed","Male","ball","6","F_cling.wav","None","725.268606446","243","248820.517537","241087.332337","241854.026561","242620.807971","243386.626318","244153.880139","244920.742551","245686.476495","234954.207673","235721.00114","236487.368572","237254.166059","238020.748672","238786.781892","239553.81342","240320.611834","245695.157664"
"Mixed","Male","ball","6","M_gnash.wav","None","720.486682141","243","248820.517537","241087.332337","241854.026561","242620.807971","243386.626318","244153.880139","244920.742551","245686.476495","249586.463262","235721.00114","236487.368572","237254.166059","238020.748672","238786.781892","239553.81342","240320.611834","248832.014623"
"Mixed","Male","ball","6","F_greet.wav","None","722.592435544","243","248820.517537","241087.332337","241854.026561","242620.807971","243386.626318","244153.880139","244920.742551","245686.476495","249586.463262","250353.255493","236487.368572","237254.166059","238020.748672","238786.781892","239553.81342","240320.611834","249596.83126"
"Mixed","Male","ball","6","F_done.wav","None","724.226705264","243","248820.517537","241087.332337","241854.026561","242620.807971","243386.626318","244153.880139","244920.742551","245686.476495","249586.463262","250353.255493","251119.415472","237254.166059","238020.748672","238786.781892","239553.81342","240320.611834","250362.100831"
"Mixed","Male","ball","6","M_ball.wav","None","726.985115441","243","248820.517537","241087.332337","241854.026561","242620.807971","243386.626318","244153.880139","244920.742551","245686.476495","249586.463262","250353.255493","251119.415472","251886.701755","238020.748672","238786.781892","239553.81342","240320.611834","251128.156311"
"Mixed","Male","ball","6","F_dime.wav","space","417.242752388","243","248820.517537","241087.332337","241854.026561","242620.807971","243386.626318","244153.880139","244920.742551","245686.476495","249586.463262","250353.255493","251119.415472","251886.701755","252653.367536","238786.781892","239553.81342","240320.611834","251897.401802"
"Mixed","Male","ball","6","M_jolt.wav","None","725.053424481","243","248820.517537","241087.332337","241854.026561","242620.807971","243386.626318","244153.880139","244920.742551","245686.476495","249586.463262","250353.255493","251119.415472","251886.701755","252653.367536","253420.051248","239553.81342","240320.611834","252662.834305"
"Mixed","Male","ball","6","F_gnash.wav","None","720.660126302","243","248820.517537","241087.332337","241854.026561","242620.807971","243386.626318","244153.880139","244920.742551","245686.476495","249586.463262","250353.255493","251119.415472","251886.701755","252653.367536","253420.051248","254186.596143","240320.611834","253434.079813"
"Mixed","Male","ball","6","F_romp.wav","None","724.793412955","243","248820.517537","241087.332337","241854.026561","242620.807971","243386.626318","244153.880139","244920.742551","245686.476495","249586.463262","250353.255493","251119.415472","251886.701755","252653.367536","253420.051248","254186.596143","254952.778692","254196.376719"
"Mixed","Male","ball","6","M_ball.wav","None","725.979077863","243","248820.517537","255719.535059","241854.026561","242620.807971","243386.626318","244153.880139","244920.742551","245686.476495","249586.463262","250353.255493","251119.415472","251886.701755","252653.367536","253420.051248","254186.596143","254952.778692","254962.031206"
"Mixed","Male","ball","6","M_reek.wav","space","425.86363398","243","248820.517537","255719.535059","256486.067278","242620.807971","243386.626318","244153.880139","244920.742551","245686.476495","249586.463262","250353.255493","251119.415472","251886.701755","252653.367536","253420.051248","254186.596143","254952.778692","255728.638245"
"Mixed","Male","ball","6","M_ball.wav","None","726.134590106","243","248820.517537","255719.535059","256486.067278","257253.382314","243386.626318","244153.880139","244920.742551","245686.476495","249586.463262","250353.255493","251119.415472","251886.701755","252653.367536","253420.051248","254186.596143","254952.778692","256494.979397"
"Mixed","Male","ball","6","F_depth.wav","space","539.538137964","243","248820.517537","255719.535059","256486.067278","257253.382314","258019.922881","244153.880139","244920.742551","245686.476495","249586.463262","250353.255493","251119.415472","251886.701755","252653.367536","253420.051248","254186.596143","254952.778692","257262.936269"
"Mixed","Male","ball","6","M_cad.wav","None","724.800523836","243","248820.517537","255719.535059","256486.067278","257253.382314","258019.922881","258785.968776","244920.742551","245686.476495","249586.463262","250353.255493","251119.415472","251886.701755","252653.367536","253420.051248","254186.596143","254952.778692","258029.109233"
"Mixed","Male","ball","6","M_ball.wav","None","726.202607388","243","248820.517537","255719.535059","256486.067278","257253.382314","258019.922881","258785.968776","259553.041424","245686.476495","249586.463262","250353.255493","251119.415472","251886.701755","252653.367536","253420.051248","254186.596143","254952.778692","258794.633251"
"Mixed","Male","ball","6","F_bluff.wav","space","655.893141171","243","248820.517537","255719.535059","256486.067278","257253.382314","258019.922881","258785.968776","259553.041424","260320.371609","249586.463262","250353.255493","251119.415472","251886.701755","252653.367536","253420.051248","254186.596143","254952.778692","259562.51685"
"Mixed","Female","cave","24","M_greet.wav","None","722.839461872","243","263453.295623","255719.535059","256486.067278","257253.382314","258019.922881","258785.968776","259553.041424","260320.371609","249586.463262","250353.255493","251119.415472","251886.701755","252653.367536","253420.051248","254186.596143","254952.778692","260330.514841"
"Mixed","Female","cave","24","M_bluff.wav","None","723.111840198","243","263453.295623","255719.535059","256486.067278","257253.382314","258019.922881","258785.968776","259553.041424","260320.371609","264219.293288","250353.255493","251119.415472","251886.701755","252653.367536","253420.051248","254186.596143","254952.778692","263462.83381"
"Mixed","Female","cave","24","F_park.wav","None","724.258549861","243","263453.295623","255719.535059","256486.067278","257253.382314","258019.922881","258785.968776","259553.041424","260320.371609","264219.293288","264986.685617","251119.415472","251886.701755","252653.367536","253420.051248","254186.596143","254952.778692","264228.529417"
"Mixed","Female","cave","24","F_cave.wav","None","723.097309237","243","263453.295623","255719.535059","256486.067278","257253.382314","258019.922881","258785.968776","259553.041424","260320.371609","264219.293288","264986.685617","265753.175789","251886.701755","252653.367536","253420.051248","254186.596143","254952.778692","264996.655095"
"Mixed","Female","cave","24","M_cling.wav","space","654.784150189","243","263453.295623","255719.535059","256486.067278","257253.382314","258019.922881","258785.968776","259553.041424","260320.371609","264219.293288","264986.685617","265753.175789","266519.858574","252653.367536","253420.051248","254186.596143","254952.778692","265763.437433"
"Mixed","Female","cave","24","M_knife.wav","None","722.972404794","243","263453.295623","255719.535059","256486.067278","257253.382314","258019.922881","258785.968776","259553.041424","260320.371609","264219.293288","264986.685617","265753.175789","266519.858574","267286.624834","253420.051248","254186.596143","254952.778692","266530.050964"
"Mixed","Female","cave","24","F_dime.wav","None","723.787375493","243","263453.295623","255719.535059","256486.067278","257253.382314","258019.922881","258785.968776","259553.041424","260320.371609","264219.293288","264986.685617","265753.175789","266519.858574","267286.624834","268052.788214","254186.596143","254952.778692","267296.285762"
"Mixed","Female","cave","24","F_cave.wav","None","724.597090273","243","263453.295623","255719.535059","256486.067278","257253.382314","258019.922881","258785.968776","259553.041424","260320.371609","264219.293288","264986.685617","265753.175789","266519.858574","267286.624834","268052.788214","268819.64166","254952.778692","268062.164087"
"Mixed","Female","cave","24","F_cad.wav","space","557.251693681","243","263453.295623","255719.535059","256486.067278","257253.382314","258019.922881","258785.968776","259553.041424","260320.371609","264219.293288","264986.685617","265753.175789","266519.858574","267286.624834","268052.788214","268819.64166","269586.903829","268828.864804"
"Mixed","Female","cave","24","F_cave.wav","None","723.544986686","243","263453.295623","270352.756802","256486.067278","257253.382314","258019.922881","258785.968776","259553.041424","260320.371609","264219.293288","264986.685617","265753.175789","266519.858574","267286.624834","268052.788214","268819.64166","269586.903829","269596.308455"
"Mixed","Female","cave","24","M_cling.wav","space","479.78371731","243","263453.295623","270352.756802","271119.076622","257253.382314","258019.922881","258785.968776","259553.041424","260320.371609","264219.293288","264986.685617","265753.175789","266519.858574","267286.624834","268052.788214","268819.64166","269586.903829","270362.285715"
"Mixed","Female","cave","24","M_lash.wav","None","725.141537841","243","263453.295623","270352.756802","271119.076622","271886.127628","258019.922881","258785.968776","259553.041424","260320.371609","264219.293288","264986.685617","265753.175789","266519.858574","267286.624834","268052.788214","268819.64166","269586.903829","271128.042228"
"Mixed","Female","cave","24","M_park.wav","None","724.801451317","243","263453.295623","270352.756802","271119.076622","271886.127628","272652.256071","258785.968776","259553.041424","260320.371609","264219.293288","264986.685617","265753.175789","266519.858574","267286.624834","268052.788214","268819.64166","269586.903829","271895.235142"
"Mixed","Female","cave","24","F_cave.wav","None","725.834695739","243","263453.295623","270352.756802","271119.076622","271886.127628","272652.256071","273419.449295","259553.041424","260320.371609","264219.293288","264986.685617","265753.175789","266519.858574","267286.624834","268052.788214","268819.64166","269586.903829","272661.075749"
"Mixed","Female","cave","24","F_gnash.wav","space","516.9542355","243","263453.295623","270352.756802","271119.076622","271886.127628","272652.256071","273419.449295","274185.553933","260320.371609","264219.293288","264986.685617","265753.175789","266519.858574","267286.624834","268052.788214","268819.64166","269586.903829","273429.01809"
"Mixed","Female","cave","24","M_done.wav","None","726.266296348","243","263453.295623","270352.756802","271119.076622","271886.127628","272652.256071","273419.449295","274185.553933","274952.681612","264219.293288","264986.685617","265753.175789","266519.858574","267286.624834","268052.788214","268819.64166","269586.903829","274194.177597"
"Mixed","Female","ball","11","M_gnash.wav","None","725.371250766","243","278086.31146","270352.756802","271119.076622","271886.127628","272652.256071","273419.449295","274185.553933","274952.681612","264219.293288","264986.685617","265753.175789","266519.858574","267286.624834","268052.788214","268819.64166","269586.903829","274962.049138"
"Mixed","Female","ball","11","F_ball.wav","None","722.593363025","243","278086.31146","270352.756802","271119.076622","271886.127628","272652.256071","273419.449295","274185.553933","274952.681612","278852.852027","264986.685617","265753.175789","266519.858574","267286.624834","268052.788214","268819.64166","269586.903829","278096.069467"
"Mixed","Female","ball","11","M_priest.wav","space","539.132198435","243","278086.31146","270352.756802","271119.076622","271886.127628","272652.256071","273419.449295","274185.553933","274952.681612","278852.852027","279619.682903","265753.175789","266519.858574","267286.624834","268052.788214","268819.64166","269586.903829","278862.692891"
"Mixed","Female","ball","11","F_bluff.wav","None","722.445889143","243","278086.31146","270352.756802","271119.076622","271886.127628","272652.256071","273419.449295","274185.553933","274952.681612","278852.852027","279619.682903","280385.563703","266519.858574","267286.624834","268052.788214","268819.64166","269586.903829","279629.421433"
"Mixed","Female","ball","11","F_ball.wav","None","724.357484025","243","278086.31146","270352.756802","271119.076622","271886.127628","272652.256071","273419.449295","274185.553933","274952.681612","278852.852027","279619.682903","280385.563703","281152.980456","267286.624834","268052.788214","268819.64166","269586.903829","280394.61804"
"Mixed","Female","ball","11","M_lash.wav","space","486.812685383","243","278086.31146","270352.756802","271119.076622","271886.127628","272652.256071","273419.449295","274185.553933","274952.681612","278852.852027","279619.682903","280385.563703","281152.980456","281919.432291","268052.788214","268819.64166","269586.903829","281162.952099"
"Mixed","Female","ball","11","F_bluff.wav","None","723.005485954","243","278086.31146","270352.756802","271119.076622","271886.127628","272652.256071","273419.449295","274185.553933","274952.681612","278852.852027","279619.682903","280385.563703","281152.980456","281919.432291","282684.959091","268819.64166","269586.903829","281929.399605"
"Mixed","Female","ball","11","M_priest.wav","None","728.820654564","243","278086.31146","270352.756802","271119.076622","271886.127628","272652.256071","273419.449295","274185.553933","274952.681612","278852.852027","279619.682903","280385.563703","281152.980456","281919.432291","282684.959091","283451.965576","269586.903829","282693.719717"
"Mixed","Female","ball","11","F_depth.wav","None","728.714918601","243","278086.31146","270352.756802","271119.076622","271886.127628","272652.256071","273419.449295","274185.553933","274952.681612","278852.852027","279619.682903","280385.563703","281152.980456","281919.432291","282684.959091","283451.965576","284219.536604","283461.009092"
"Mixed","Female","ball","11","F_ball.wav","None","727.546567097","243","278086.31146","284985.224482","271119.076622","271886.127628","272652.256071","273419.449295","274185.553933","274952.681612","278852.852027","279619.682903","280385.563703","281152.980456","281919.432291","282684.959091","283451.965576","284219.536604","284229.014813"
"Mixed","Female","ball","11","M_dime.wav","space","551.622954197","243","278086.31146","284985.224482","285751.865529","271886.127628","272652.256071","273419.449295","274185.553933","274952.681612","278852.852027","279619.682903","280385.563703","281152.980456","281919.432291","282684.959091","283451.965576","284219.536604","284994.026537"
"Mixed","Female","ball","11","M_romp.wav","None","729.372831178","243","278086.31146","284985.224482","285751.865529","286518.577066","272652.256071","273419.449295","274185.553933","274952.681612","278852.852027","279619.682903","280385.563703","281152.980456","281919.432291","282684.959091","283451.965576","284219.536604","285760.654908"
"Mixed","Female","ball","11","M_lash.wav","None","729.668706423","243","278086.31146","284985.224482","285751.865529","286518.577066","287285.649713","273419.449295","274185.553933","274952.681612","278852.852027","279619.682903","280385.563703","281152.980456","281919.432291","282684.959091","283451.965576","284219.536604","286527.359334"
"Mixed","Female","ball","11","F_ball.wav","None","729.327383218","243","278086.31146","284985.224482","285751.865529","286518.577066","287285.649713","288051.829479","274185.553933","274952.681612","278852.852027","279619.682903","280385.563703","281152.980456","281919.432291","282684.959091","283451.965576","284219.536604","287295.032389"
"Mixed","Female","ball","11","F_dime.wav","space","452.572784619","243","278086.31146","284985.224482","285751.865529","286518.577066","287285.649713","288051.829479","288818.430025","274952.681612","278852.852027","279619.682903","280385.563703","281152.980456","281919.432291","282684.959091","283451.965576","284219.536604","288060.964819"
"Mixed","Female","ball","11","M_gnash.wav","None","730.407930561","243","278086.31146","284985.224482","285751.865529","286518.577066","287285.649713","288051.829479","288818.430025","289585.07911","278852.852027","279619.682903","280385.563703","281152.980456","281919.432291","282684.959091","283451.965576","284219.536604","288827.363168"
"Mixed","Male","cave","13","M_cling.wav","None","731.212389539","243","292719.317403","284985.224482","285751.865529","286518.577066","287285.649713","288051.829479","288818.430025","289585.07911","278852.852027","279619.682903","280385.563703","281152.980456","281919.432291","282684.959091","283451.965576","284219.536604","289593.748841"
"Mixed","Male","cave","13","M_cave.wav","None","722.303361981","243","292719.317403","284985.224482","285751.865529","286518.577066","287285.649713","288051.829479","288818.430025","289585.07911","293486.005135","279619.682903","280385.563703","281152.980456","281919.432291","282684.959091","283451.965576","284219.536604","292728.940612"
"Mixed","Male","cave","13","F_jolt.wav","space","559.237798327","243","292719.317403","284985.224482","285751.865529","286518.577066","287285.649713","288051.829479","288818.430025","289585.07911","293486.005135","294252.465317","280385.563703","281152.980456","281919.432291","282684.959091","283451.965576","284219.536604","293490.134093"
"Mixed","Male","cave","13","M_gnash.wav","None","722.220195457","243","292719.317403","284985.224482","285751.865529","286518.577066","287285.649713","288051.829479","288818.430025","289585.07911","293486.005135","294252.465317","295018.537802","281152.980456","281919.432291","282684.959091","283451.965576","284219.536604","294262.575777"
"Mixed","Male","cave","13","M_priest.wav","None","724.480842589","243","292719.317403","284985.224482","285751.865529","286518.577066","287285.649713","288051.829479","288818.430025","289585.07911","293486.005135","294252.465317","295018.537802","295785.383209","281919.432291","282684.959091","283451.965576","284219.536604","295027.518247"
"Mixed","Male","cave","13","M_cave.wav","None","724.776099436","243","292719.317403","284985.224482","285751.865529","286518.577066","287285.649713","288051.829479","288818.430025","289585.07911","293486.005135","294252.465317","295018.537802","295785.383209","296551.939853","282684.959091","283451.965576","284219.536604","295794.487632"
"Mixed","Male","cave","13","F_reek.wav","space","647.938829032","243","292719.317403","284985.224482","285751.865529","286518.577066","287285.649713","288051.829479","288818.430025","289585.07911","293486.005135","294252.465317","295018.537802","295785.383209","296551.939853","297319.153172","283451.965576","284219.536604","296561.300577"
"Mixed","Male","cave","13","F_lash.wav","None","723.771917052","243","292719.317403","284985.224482","285751.865529","286518.577066","287285.649713","288051.829479","288818.430025","289585.07911","293486.005135","294252.465317","295018.537802","295785.383209","296551.939853","297319.153172","298085.319026","284219.536604","297328.742682"
"Mixed","Male","cave","13","M_cave.wav","None","725.008904119","243","292719.317403","284985.224482","285751.865529","286518.577066","287285.649713","288051.829479","288818.430025","289585.07911","293486.005135","294252.465317","295018.537802","295785.383209","296551.939853","297319.153172","298085.319026","298851.761277","298094.639558"
"Mixed","Male","cave","13","F_tile.wav","space","460.30233067","243","292719.317403","299618.610395","285751.865529","286518.577066","287285.649713","288051.829479","288818.430025","289585.07911","293486.005135","294252.465317","295018.537802","295785.383209","296551.939853","297319.153172","298085.319026","298851.761277","298860.886104"
"Mixed","Male","cave","13","F_cad.wav","None","725.287774927","243","292719.317403","299618.610395","300385.231345","286518.577066","287285.649713","288051.829479","288818.430025","289585.07911","293486.005135","294252.465317","295018.537802","295785.383209","296551.939853","297319.153172","298085.319026","298851.761277","299627.537354"
"Mixed","Male","cave","13","M_cave.wav","None","725.740089896","243","292719.317403","299618.610395","300385.231345","301151.875484","287285.649713","288051.829479","288818.430025","289585.07911","293486.005135","294252.465317","295018.537802","295785.383209","296551.939853","297319.153172","298085.319026","298851.761277","300394.218593"
"Mixed","Male","cave","13","F_bluff.wav","space","439.751835889","243","292719.317403","299618.610395","300385.231345","301151.875484","301918.668024","288051.829479","288818.430025","289585.07911","293486.005135","294252.465317","295018.537802","295785.383209","296551.939853","297319.153172","298085.319026","298851.761277","301161.361422"
"Mixed","Male","cave","13","F_done.wav","None","724.753220915","243","292719.317403","299618.610395","300385.231345","301151.875484","301918.668024","302685.32793","288818.430025","289585.07911","293486.005135","294252.465317","295018.537802","295785.383209","296551.939853","297319.153172","298085.319026","298851.761277","301928.223834"
"Mixed","Male","cave","13","F_greet.wav","None","725.270152325","243","292719.317403","299618.610395","300385.231345","301151.875484","301918.668024","302685.32793","303451.737409","289585.07911","293486.005135","294252.465317","295018.537802","295785.383209","296551.939853","297319.153172","298085.319026","298851.761277","302694.941555"
"Mixed","Male","cave","13","M_priest.wav","None","726.220539189","243","292719.317403","299618.610395","300385.231345","301151.875484","301918.668024","302685.32793","303451.737409","304218.55561","293486.005135","294252.465317","295018.537802","295785.383209","296551.939853","297319.153172","298085.319026","298851.761277","303461.124103"
"Mixed","Female","ball","8","M_gnash.wav","None","726.928228163","243","307351.982951","299618.610395","300385.231345","301151.875484","301918.668024","302685.32793","303451.737409","304218.55561","293486.005135","294252.465317","295018.537802","295785.383209","296551.939853","297319.153172","298085.319026","298851.761277","304227.688167"
"Mixed","Female","ball","8","F_ball.wav","None","723.445124924","243","307351.982951","299618.610395","300385.231345","301151.875484","301918.668024","302685.32793","303451.737409","304218.55561","308117.962066","294252.465317","295018.537802","295785.383209","296551.939853","297319.153172","298085.319026","298851.761277","307361.30843"
"Mixed","Female","ball","8","M_bluff.wav","space","498.060889076","243","307351.982951","299618.610395","300385.231345","301151.875484","301918.668024","302685.32793","303451.737409","304218.55561","308117.962066","308885.368307","295018.537802","295785.383209","296551.939853","297319.153172","298085.319026","298851.761277","308126.820081"
"Mixed","Female","ball","8","F_ball.wav","None","722.751657828","243","307351.982951","299618.610395","300385.231345","301151.875484","301918.668024","302685.32793","303451.737409","304218.55561","308117.962066","308885.368307","309652.094685","295785.383209","296551.939853","297319.153172","298085.319026","298851.761277","308895.402403"
"Mixed","Female","ball","8","M_reek.wav","space","555.155833834","243","307351.982951","299618.610395","300385.231345","301151.875484","301918.668024","302685.32793","303451.737409","304218.55561","308117.962066","308885.368307","309652.094685","310418.76974","296551.939853","297319.153172","298085.319026","298851.761277","309661.789312"
"Mixed","Female","ball","8","M_gnash.wav","None","723.300742684","243","307351.982951","299618.610395","300385.231345","301151.875484","301918.668024","302685.32793","303451.737409","304218.55561","308117.962066","308885.368307","309652.094685","310418.76974","311185.266405","297319.153172","298085.319026","298851.761277","310428.469624"
"Mixed","Female","ball","8","F_ball.wav","None","723.348354804","243","307351.982951","299618.610395","300385.231345","301151.875484","301918.668024","302685.32793","303451.737409","304218.55561","308117.962066","308885.368307","309652.094685","310418.76974","311185.266405","311951.52099","298085.319026","298851.761277","311195.367899"
"Mixed","Female","ball","8","M_depth.wav","space","487.569223042","243","307351.982951","299618.610395","300385.231345","301151.875484","301918.668024","302685.32793","303451.737409","304218.55561","308117.962066","308885.368307","309652.094685","310418.76974","311185.266405","311951.52099","312717.916866","298851.761277","311961.245607"
"Mixed","Female","ball","8","F_ball.wav","None","725.681656855","243","307351.982951","299618.610395","300385.231345","301151.875484","301918.668024","302685.32793","303451.737409","304218.55561","308117.962066","308885.368307","309652.094685","310418.76974","311185.266405","311951.52099","312717.916866","313485.187382","312726.610402"
"Mixed","Female","ball","8","F_tile.wav","space","434.567063814","243","307351.982951","314251.387243","300385.231345","301151.875484","301918.668024","302685.32793","303451.737409","304218.55561","308117.962066","308885.368307","309652.094685","310418.76974","311185.266405","311951.52099","312717.916866","313485.187382","313494.215748"
"Mixed","Female","ball","8","M_lash.wav","None","724.931302597","243","307351.982951","314251.387243","315017.665635","301151.875484","301918.668024","302685.32793","303451.737409","304218.55561","308117.962066","308885.368307","309652.094685","310418.76974","311185.266405","311951.52099","312717.916866","313485.187382","314260.780739"
"Mixed","Female","ball","8","F_tile.wav","None","726.684293477","243","307351.982951","314251.387243","315017.665635","315784.777856","301918.668024","302685.32793","303451.737409","304218.55561","308117.962066","308885.368307","309652.094685","310418.76974","311185.266405","311951.52099","312717.916866","313485.187382","315026.380194"
"Mixed","Female","ball","8","F_lash.wav","None","726.457981393","243","307351.982951","314251.387243","315017.665635","315784.777856","316551.39015","302685.32793","303451.737409","304218.55561","308117.962066","308885.368307","309652.094685","310418.76974","311185.266405","311951.52099","312717.916866","313485.187382","315793.835284"
"Mixed","Female","ball","8","M_reek.wav","None","726.894219522","243","307351.982951","314251.387243","315017.665635","315784.777856","316551.39015","317318.121474","303451.737409","304218.55561","308117.962066","308885.368307","309652.094685","310418.76974","311185.266405","311951.52099","312717.916866","313485.187382","316560.914424"
"Mixed","Female","ball","8","F_lash.wav","None","727.614893578","243","307351.982951","314251.387243","315017.665635","315784.777856","316551.39015","317318.121474","318084.733459","304218.55561","308117.962066","308885.368307","309652.094685","310418.76974","311185.266405","311951.52099","312717.916866","313485.187382","317327.428712"
"Mixed","Female","ball","8","M_jolt.wav","None","727.954670787","243","307351.982951","314251.387243","315017.665635","315784.777856","316551.39015","317318.121474","318084.733459","318851.296904","308117.962066","308885.368307","309652.094685","310418.76974","311185.266405","311951.52099","312717.916866","313485.187382","318094.361615"
"Mixed","Male","tile","30","M_park.wav","None","728.636080283","243","321984.927679","314251.387243","315017.665635","315784.777856","316551.39015","317318.121474","318084.733459","318851.296904","308117.962066","308885.368307","309652.094685","310418.76974","311185.266405","311951.52099","312717.916866","313485.187382","318860.825198"
"Mixed","Male","tile","30","F_gnash.wav","None","727.977240225","243","321984.927679","314251.387243","315017.665635","315784.777856","316551.39015","317318.121474","318084.733459","318851.296904","322750.762721","308885.368307","309652.094685","310418.76974","311185.266405","311951.52099","312717.916866","313485.187382","321989.423312"
"Mixed","Male","tile","30","M_tile.wav","None","725.259022205","243","321984.927679","314251.387243","315017.665635","315784.777856","316551.39015","317318.121474","318084.733459","318851.296904","322750.762721","323517.561135","309652.094685","310418.76974","311185.266405","311951.52099","312717.916866","313485.187382","322759.570959"
"Mixed","Male","tile","30","F_cave.wav","space","450.237318408","243","321984.927679","314251.387243","315017.665635","315784.777856","316551.39015","317318.121474","318084.733459","318851.296904","322750.762721","323517.561135","324283.941243","310418.76974","311185.266405","311951.52099","312717.916866","313485.187382","323526.254672"
"Mixed","Male","tile","30","F_depth.wav","None","725.765132578","243","321984.927679","314251.387243","315017.665635","315784.777856","316551.39015","317318.121474","318084.733459","318851.296904","322750.762721","323517.561135","324283.941243","325050.685862","311185.266405","311951.52099","312717.916866","313485.187382","324292.647146"
"Mixed","Male","tile","30","M_park.wav","None","726.668525836","243","321984.927679","314251.387243","315017.665635","315784.777856","316551.39015","317318.121474","318084.733459","318851.296904","322750.762721","323517.561135","324283.941243","325050.685862","325817.852497","311951.52099","312717.916866","313485.187382","325059.502757"
"Mixed","Male","tile","30","M_cling.wav","None","726.396765909","243","321984.927679","314251.387243","315017.665635","315784.777856","316551.39015","317318.121474","318084.733459","318851.296904","322750.762721","323517.561135","324283.941243","325050.685862","325817.852497","326584.463863","312717.916866","313485.187382","325826.666918"
"Mixed","Male","tile","30","M_priest.wav","None","727.052823408","243","321984.927679","314251.387243","315017.665635","315784.777856","316551.39015","317318.121474","318084.733459","318851.296904","322750.762721","323517.561135","324283.941243","325050.685862","325817.852497","326584.463863","327351.019579","313485.187382","326593.478317"
"Mixed","Male","tile","30","M_tile.wav","None","727.411460131","243","321984.927679","314251.387243","315017.665635","315784.777856","316551.39015","317318.121474","318084.733459","318851.296904","322750.762721","323517.561135","324283.941243","325050.685862","325817.852497","326584.463863","327351.019579","328118.281129","327360.612799"
"Mixed","Male","tile","30","F_park.wav","space","464.733347413","243","321984.927679","328884.39195","315017.665635","315784.777856","316551.39015","317318.121474","318084.733459","318851.296904","322750.762721","323517.561135","324283.941243","325050.685862","325817.852497","326584.463863","327351.019579","328118.281129","328127.60568"
"Mixed","Male","tile","30","F_greet.wav","None","727.844606503","243","321984.927679","328884.39195","329650.959106","315784.777856","316551.39015","317318.121474","318084.733459","318851.296904","322750.762721","323517.561135","324283.941243","325050.685862","325817.852497","326584.463863","327351.019579","328118.281129","328893.697024"
"Mixed","Male","tile","30","M_tile.wav","None","729.131060652","243","321984.927679","328884.39195","329650.959106","330417.570163","316551.39015","317318.121474","318084.733459","318851.296904","322750.762721","323517.561135","324283.941243","325050.685862","325817.852497","326584.463863","327351.019579","328118.281129","329659.894412"
"Mixed","Male","tile","30","F_priest.wav","space","453.434130759","243","321984.927679","328884.39195","329650.959106","330417.570163","331184.330549","317318.121474","318084.733459","318851.296904","322750.762721","323517.561135","324283.941243","325050.685862","325817.852497","326584.463863","327351.019579","328118.281129","330426.83659"
"Mixed","Male","tile","30","F_cave.wav","None","729.04974909","243","321984.927679","328884.39195","329650.959106","330417.570163","331184.330549","331950.870188","318084.733459","318851.296904","322750.762721","323517.561135","324283.941243","325050.685862","325817.852497","326584.463863","327351.019579","328118.281129","331193.692819"
"Mixed","Male","tile","30","M_tile.wav","None","729.711062624","243","321984.927679","328884.39195","329650.959106","330417.570163","331184.330549","331950.870188","332717.128793","318851.296904","322750.762721","323517.561135","324283.941243","325050.685862","325817.852497","326584.463863","327351.019579","328118.281129","331960.509783"
"Mixed","Male","tile","30","F_dime.wav","space","401.761400281","243","321984.927679","328884.39195","329650.959106","330417.570163","331184.330549","331950.870188","332717.128793","333484.244415","322750.762721","323517.561135","324283.941243","325050.685862","325817.852497","326584.463863","327351.019579","328118.281129","332726.439122"
"Mixed","Female","tile","34","M_depth.wav","None","730.635479209","243","336617.914763","328884.39195","329650.959106","330417.570163","331184.330549","331950.870188","332717.128793","333484.244415","322750.762721","323517.561135","324283.941243","325050.685862","325817.852497","326584.463863","327351.019579","328118.281129","333493.369242"
"Mixed","Female","tile","34","M_knife.wav","None","723.335369723","243","336617.914763","328884.39195","329650.959106","330417.570163","331184.330549","331950.870188","332717.128793","333484.244415","337383.647779","323517.561135","324283.941243","325050.685862","325817.852497","326584.463863","327351.019579","328118.281129","336627.476757"
"Mixed","Female","tile","34","F_tile.wav","None","725.775026018","243","336617.914763","328884.39195","329650.959106","330417.570163","331184.330549","331950.870188","332717.128793","333484.244415","337383.647779","338150.764947","324283.941243","325050.685862","325817.852497","326584.463863","327351.019579","328118.281129","337392.621423"
"Mixed","Female","tile","34","M_depth.wav","space","535.812336602","243","336617.914763","328884.39195","329650.959106","330417.570163","331184.330549","331950.870188","332717.128793","333484.244415","337383.647779","338150.764947","338917.486996","325050.685862","325817.852497","326584.463863","327351.019579","328118.281129","338160.244701"
"Mixed","Female","tile","34","F_greet.wav","None","724.761259393","243","336617.914763","328884.39195","329650.959106","330417.570163","331184.330549","331950.870188","332717.128793","333484.244415","337383.647779","338150.764947","338917.486996","339683.543404","325817.852497","326584.463863","327351.019579","328118.281129","338927.018073"
"Mixed","Female","tile","34","F_dime.wav","None","727.257493651","243","336617.914763","328884.39195","329650.959106","330417.570163","331184.330549","331950.870188","332717.128793","333484.244415","337383.647779","338150.764947","338917.486996","339683.543404","340450.635838","326584.463863","327351.019579","328118.281129","339692.493242"
"Mixed","Female","tile","34","F_tile.wav","None","726.988825365","243","336617.914763","328884.39195","329650.959106","330417.570163","331184.330549","331950.870188","332717.128793","333484.244415","337383.647779","338150.764947","338917.486996","339683.543404","340450.635838","341217.005125","327351.019579","328118.281129","340460.277597"
"Mixed","Female","tile","34","F_jaw.wav","space","637.919573928","243","336617.914763","328884.39195","329650.959106","330417.570163","331184.330549","331950.870188","332717.128793","333484.244415","337383.647779","338150.764947","338917.486996","339683.543404","340450.635838","341217.005125","341984.006972","328118.281129","341225.993609"
"Mixed","Female","tile","34","F_tile.wav","None","727.897474542","243","336617.914763","328884.39195","329650.959106","330417.570163","331184.330549","331950.870188","332717.128793","333484.244415","337383.647779","338150.764947","338917.486996","339683.543404","340450.635838","341217.005125","341984.006972","342750.298039","341993.550416"
"Mixed","Female","tile","34","M_jaw.wav","space","672.494923463","243","336617.914763","343516.816037","329650.959106","330417.570163","331184.330549","331950.870188","332717.128793","333484.244415","337383.647779","338150.764947","338917.486996","339683.543404","340450.635838","341217.005125","341984.006972","342750.298039","342759.402153"
"Mixed","Female","tile","34","M_greet.wav","None","729.671798064","243","336617.914763","343516.816037","344283.29848","330417.570163","331184.330549","331950.870188","332717.128793","333484.244415","337383.647779","338150.764947","338917.486996","339683.543404","340450.635838","341217.005125","341984.006972","342750.298039","343525.968071"
"Mixed","Female","tile","34","F_tile.wav","None","731.454778346","243","336617.914763","343516.816037","344283.29848","345050.066595","331184.330549","331950.870188","332717.128793","333484.244415","337383.647779","338150.764947","338917.486996","339683.543404","340450.635838","341217.005125","341984.006972","342750.298039","344292.2511"
"Mixed","Female","tile","34","M_cad.wav","space","532.551835291","243","336617.914763","343516.816037","344283.29848","345050.066595","345817.072462","331950.870188","332717.128793","333484.244415","337383.647779","338150.764947","338917.486996","339683.543404","340450.635838","341217.005125","341984.006972","342750.298039","345059.276135"
"Mixed","Female","tile","34","F_cad.wav","None","731.573499506","243","336617.914763","343516.816037","344283.29848","345050.066595","345817.072462","346583.362292","332717.128793","333484.244415","337383.647779","338150.764947","338917.486996","339683.543404","340450.635838","341217.005125","341984.006972","342750.298039","345826.45421"
"Mixed","Female","tile","34","M_gnash.wav","space","431.543386308","243","336617.914763","343516.816037","344283.29848","345050.066595","345817.072462","346583.362292","347350.786775","333484.244415","337383.647779","338150.764947","338917.486996","339683.543404","340450.635838","341217.005125","341984.006972","342750.298039","346592.254934"
"Mixed","Female","tile","34","M_jaw.wav","None","730.787590728","243","336617.914763","343516.816037","344283.29848","345050.066595","345817.072462","346583.362292","347350.786775","348116.77331","337383.647779","338150.764947","338917.486996","339683.543404","340450.635838","341217.005125","341984.006972","342750.298039","347360.282606"
"Mixed","Male","done","41","F_cad.wav","None","732.816669974","243","351250.68883","343516.816037","344283.29848","345050.066595","345817.072462","346583.362292","347350.786775","348116.77331","337383.647779","338150.764947","338917.486996","339683.543404","340450.635838","341217.005125","341984.006972","342750.298039","348125.87495"
"Mixed","Male","done","41","F_priest.wav","None","723.131317878","243","351250.68883","343516.816037","344283.29848","345050.066595","345817.072462","346583.362292","347350.786775","348116.77331","352017.536711","338150.764947","338917.486996","339683.543404","340450.635838","341217.005125","341984.006972","342750.298039","351260.242785"
"Mixed","Male","done","41","F_ball.wav","None","722.830186831","243","351250.68883","343516.816037","344283.29848","345050.066595","345817.072462","346583.362292","347350.786775","348116.77331","352017.536711","352783.675666","338917.486996","339683.543404","340450.635838","341217.005125","341984.006972","342750.298039","352027.817832"
"Mixed","Male","done","41","M_done.wav","None","725.911678863","243","351250.68883","343516.816037","344283.29848","345050.066595","345817.072462","346583.362292","347350.786775","348116.77331","352017.536711","352783.675666","353550.293526","339683.543404","340450.635838","341217.005125","341984.006972","342750.298039","352792.892936"
"Mixed","Male","done","41","F_dime.wav","space","648.425461724","243","351250.68883","343516.816037","344283.29848","345050.066595","345817.072462","346583.362292","347350.786775","348116.77331","352017.536711","352783.675666","353550.293526","354316.897472","340450.635838","341217.005125","341984.006972","342750.298039","353559.138555"
"Mixed","Male","done","41","M_done.wav","None","725.925282342","243","351250.68883","343516.816037","344283.29848","345050.066595","345817.072462","346583.362292","347350.786775","348116.77331","352017.536711","352783.675666","353550.293526","354316.897472","355083.607464","341217.005125","341984.006972","342750.298039","354326.155861"
"Mixed","Male","done","41","F_reek.wav","space","554.394349339","243","351250.68883","343516.816037","344283.29848","345050.066595","345817.072462","346583.362292","347350.786775","348116.77331","352017.536711","352783.675666","353550.293526","354316.897472","355083.607464","355850.035183","341984.006972","342750.298039","355093.162037"
"Mixed","Male","done","41","F_gnash.wav","None","725.941668381","243","351250.68883","343516.816037","344283.29848","345050.066595","345817.072462","346583.362292","347350.786775","348116.77331","352017.536711","352783.675666","353550.293526","354316.897472","355083.607464","355850.035183","356617.032394","342750.298039","355859.398072"
"Mixed","Male","done","41","M_done.wav","None","726.662033238","243","351250.68883","343516.816037","344283.29848","345050.066595","345817.072462","346583.362292","347350.786775","348116.77331","352017.536711","352783.675666","353550.293526","354316.897472","355083.607464","355850.035183","356617.032394","357383.583163","356625.928127"
"Mixed","Male","done","41","M_greet.wav","space","510.508052073","243","351250.68883","358150.149391","344283.29848","345050.066595","345817.072462","346583.362292","347350.786775","348116.77331","352017.536711","352783.675666","353550.293526","354316.897472","355083.607464","355850.035183","356617.032394","357383.583163","357392.9578"
"Mixed","Male","done","41","M_cling.wav","None","726.973985205","243","351250.68883","358150.149391","358916.466119","345050.066595","345817.072462","346583.362292","347350.786775","348116.77331","352017.536711","352783.675666","353550.293526","354316.897472","355083.607464","355850.035183","356617.032394","357383.583163","358159.589571"
"Mixed","Male","done","41","F_jolt.wav","None","728.888671845","243","351250.68883","358150.149391","358916.466119","359683.020907","345817.072462","346583.362292","347350.786775","348116.77331","352017.536711","352783.675666","353550.293526","354316.897472","355083.607464","355850.035183","356617.032394","357383.583163","358925.239421"
"Mixed","Male","done","41","F_reek.wav","None","729.285954498","243","351250.68883","358150.149391","358916.466119","359683.020907","360450.009461","346583.362292","347350.786775","348116.77331","352017.536711","352783.675666","353550.293526","354316.897472","355083.607464","355850.035183","356617.032394","357383.583163","359692.538071"
"Mixed","Male","done","41","M_jolt.wav","None","730.964126415","243","351250.68883","358150.149391","358916.466119","359683.020907","360450.009461","361216.758408","347350.786775","348116.77331","352017.536711","352783.675666","353550.293526","354316.897472","355083.607464","355850.035183","356617.032394","357383.583163","360458.970738"
"Mixed","Male","done","41","M_done.wav","None","731.404383783","243","351250.68883","358150.149391","358916.466119","359683.020907","360450.009461","361216.758408","361982.858099","348116.77331","352017.536711","352783.675666","353550.293526","354316.897472","355083.607464","355850.035183","356617.032394","357383.583163","361226.032564"
"Mixed","Male","done","41","M_reek.wav","space","607.867064537","243","351250.68883","358150.149391","358916.466119","359683.020907","360450.009461","361216.758408","361982.858099","362749.980832","352017.536711","352783.675666","353550.293526","354316.897472","355083.607464","355850.035183","356617.032394","357383.583163","361991.46414"
"Mixed","Female","done","48","M_tile.wav","None","731.706751511","243","365883.623664","358150.149391","358916.466119","359683.020907","360450.009461","361216.758408","361982.858099","362749.980832","352017.536711","352783.675666","353550.293526","354316.897472","355083.607464","355850.035183","356617.032394","357383.583163","362759.522111"
"Mixed","Female","done","48","M_ball.wav","None","722.501230543","243","365883.623664","358150.149391","358916.466119","359683.020907","360450.009461","361216.758408","361982.858099","362749.980832","366650.271513","352783.675666","353550.293526","354316.897472","355083.607464","355850.035183","356617.032394","357383.583163","365893.416916"
"Mixed","Female","done","48","F_done.wav","None","723.103183554","243","365883.623664","358150.149391","358916.466119","359683.020907","360450.009461","361216.758408","361982.858099","362749.980832","366650.271513","367416.634307","353550.293526","354316.897472","355083.607464","355850.035183","356617.032394","357383.583163","366660.15226"
"Mixed","Female","done","48","M_bluff.wav","space","421.492595924","243","365883.623664","358150.149391","358916.466119","359683.020907","360450.009461","361216.758408","361982.858099","362749.980832","366650.271513","367416.634307","368183.234853","354316.897472","355083.607464","355850.035183","356617.032394","357383.583163","367425.673804"
"Mixed","Female","done","48","F_cling.wav","None","724.995300639","243","365883.623664","358150.149391","358916.466119","359683.020907","360450.009461","361216.758408","361982.858099","362749.980832","366650.271513","367416.634307","368183.234853","368949.794588","355083.607464","355850.035183","356617.032394","357383.583163","368192.737795"
"Mixed","Female","done","48","M_greet.wav","None","725.651049055","243","365883.623664","358150.149391","358916.466119","359683.020907","360450.009461","361216.758408","361982.858099","362749.980832","366650.271513","367416.634307","368183.234853","368949.794588","369716.63474","355850.035183","356617.032394","357383.583163","368959.340814"
"Mixed","Female","done","48","F_done.wav","None","726.939976565","243","365883.623664","358150.149391","358916.466119","359683.020907","360450.009461","361216.758408","361982.858099","362749.980832","366650.271513","367416.634307","368183.234853","368949.794588","369716.63474","370482.625294","356617.032394","357383.583163","369725.635591"
"Mixed","Female","done","48","F_cad.wav","space","499.765031156","243","365883.623664","358150.149391","358916.466119","359683.020907","360450.009461","361216.758408","361982.858099","362749.980832","366650.271513","367416.634307","368183.234853","368949.794588","369716.63474","370482.625294","371249.253047","357383.583163","370491.307082"
"Mixed","Female","done","48","M_cave.wav","None","733.47458255","243","365883.623664","358150.149391","358916.466119","359683.020907","360450.009461","361216.758408","361982.858099","362749.980832","366650.271513","367416.634307","368183.234853","368949.794588","369716.63474","370482.625294","371249.253047","372016.539948","371253.101588"
"Mixed","Female","done","48","F_done.wav","None","728.329693433","243","365883.623664","372782.548125","358916.466119","359683.020907","360450.009461","361216.758408","361982.858099","362749.980832","366650.271513","367416.634307","368183.234853","368949.794588","369716.63474","370482.625294","371249.253047","372016.539948","372025.978274"
"Mixed","Female","done","48","M_cad.wav","None","730.615692446","243","365883.623664","372782.548125","373549.25317","359683.020907","360450.009461","361216.758408","361982.858099","362749.980832","366650.271513","367416.634307","368183.234853","368949.794588","369716.63474","370482.625294","371249.253047","372016.539948","372791.567217"
"Mixed","Female","done","48","F_jaw.wav","space","384.584253654","243","365883.623664","372782.548125","373549.25317","374315.87072","360450.009461","361216.758408","361982.858099","362749.980832","366650.271513","367416.634307","368183.234853","368949.794588","369716.63474","370482.625294","371249.253047","372016.539948","373558.413552"
"Mixed","Female","done","48","M_cad.wav","None","730.935992091","243","365883.623664","372782.548125","373549.25317","374315.87072","375083.010148","361216.758408","361982.858099","362749.980832","366650.271513","367416.634307","368183.234853","368949.794588","369716.63474","370482.625294","371249.253047","372016.539948","374325.049653"
"Mixed","Female","done","48","F_done.wav","None","731.419533025","243","365883.623664","372782.548125","373549.25317","374315.87072","375083.010148","375849.584105","361982.858099","362749.980832","366650.271513","367416.634307","368183.234853","368949.794588","369716.63474","370482.625294","371249.253047","372016.539948","375092.42745"
"Mixed","Female","done","48","M_jaw.wav","space","619.779673405","243","365883.623664","372782.548125","373549.25317","374315.87072","375083.010148","375849.584105","376616.200109","362749.980832","366650.271513","367416.634307","368183.234853","368949.794588","369716.63474","370482.625294","371249.253047","372016.539948","375859.10467"
"Mixed","Female","done","48","F_lash.wav","None","731.845877715","243","365883.623664","372782.548125","373549.25317","374315.87072","375083.010148","375849.584105","376616.200109","377382.923395","366650.271513","367416.634307","368183.234853","368949.794588","369716.63474","370482.625294","371249.253047","372016.539948","376625.866911"
"Mixed","Female","cave","19","F_gnash.wav","None","732.854079455","243","380516.408551","372782.548125","373549.25317","374315.87072","375083.010148","375849.584105","376616.200109","377382.923395","366650.271513","367416.634307","368183.234853","368949.794588","369716.63474","370482.625294","371249.253047","372016.539948","377392.39573"
"Mixed","Female","cave","19","M_priest.wav","None","722.470931942","243","380516.408551","372782.548125","373549.25317","374315.87072","375083.010148","375849.584105","376616.200109","377382.923395","381283.281475","367416.634307","368183.234853","368949.794588","369716.63474","370482.625294","371249.253047","372016.539948","380526.063296"
"Mixed","Female","cave","19","F_cave.wav","None","722.994046635","243","380516.408551","372782.548125","373549.25317","374315.87072","375083.010148","375849.584105","376616.200109","377382.923395","381283.281475","382049.006762","368183.234853","368949.794588","369716.63474","370482.625294","371249.253047","372016.539948","381293.164077"
"Mixed","Female","cave","19","M_bluff.wav","space","396.852716571","243","380516.408551","372782.548125","373549.25317","374315.87072","375083.010148","375849.584105","376616.200109","377382.923395","381283.281475","382049.006762","382816.251926","368949.794588","369716.63474","370482.625294","371249.253047","372016.539948","382057.829531"
"Mixed","Female","cave","19","M_greet.wav","None","723.421937204","243","380516.408551","372782.548125","373549.25317","374315.87072","375083.010148","375849.584105","376616.200109","377382.923395","381283.281475","382049.006762","382816.251926","383582.756938","369716.63474","370482.625294","371249.253047","372016.539948","382826.125562"
"Mixed","Female","cave","19","F_cave.wav","None","724.910278921","243","380516.408551","372782.548125","373549.25317","374315.87072","375083.010148","375849.584105","376616.200109","377382.923395","381283.281475","382049.006762","382816.251926","383582.756938","384348.86405","370482.625294","371249.253047","372016.539948","383592.297599"
"Mixed","Female","cave","19","F_greet.wav","space","472.855538712","243","380516.408551","372782.548125","373549.25317","374315.87072","375083.010148","375849.584105","376616.200109","377382.923395","381283.281475","382049.006762","382816.251926","383582.756938","384348.86405","385116.137348","371249.253047","372016.539948","384357.785753"
"Mixed","Female","cave","19","M_greet.wav","None","725.303851767","243","380516.408551","372782.548125","373549.25317","374315.87072","375083.010148","375849.584105","376616.200109","377382.923395","381283.281475","382049.006762","382816.251926","383582.756938","384348.86405","385116.137348","385882.68348","372016.539948","385125.678627"
"Mixed","Female","cave","19","F_tile.wav","None","726.422426989","243","380516.408551","372782.548125","373549.25317","374315.87072","375083.010148","375849.584105","376616.200109","377382.923395","381283.281475","382049.006762","382816.251926","383582.756938","384348.86405","385116.137348","385882.68348","386649.271349","385892.110675"
"Mixed","Female","cave","19","M_knife.wav","None","726.985424524","243","380516.408551","387416.033591","373549.25317","374315.87072","375083.010148","375849.584105","376616.200109","377382.923395","381283.281475","382049.006762","382816.251926","383582.756938","384348.86405","385116.137348","385882.68348","386649.271349","386658.743375"
"Mixed","Female","cave","19","M_jolt.wav","None","728.422444197","243","380516.408551","387416.033591","388182.10051","374315.87072","375083.010148","375849.584105","376616.200109","377382.923395","381283.281475","382049.006762","382816.251926","383582.756938","384348.86405","385116.137348","385882.68348","386649.271349","387424.954057"
"Mixed","Female","cave","19","F_priest.wav","None","730.036308873","243","380516.408551","387416.033591","388182.10051","388949.188616","375083.010148","375849.584105","376616.200109","377382.923395","381283.281475","382049.006762","382816.251926","383582.756938","384348.86405","385116.137348","385882.68348","386649.271349","388191.03087"
"Mixed","Female","cave","19","F_cave.wav","None","730.29446532","243","380516.408551","387416.033591","388182.10051","388949.188616","389715.429288","375849.584105","376616.200109","377382.923395","381283.281475","382049.006762","382816.251926","383582.756938","384348.86405","385116.137348","385882.68348","386649.271349","388958.382697"
"Mixed","Female","cave","19","M_bluff.wav","space","490.105958539","243","380516.408551","387416.033591","388182.10051","388949.188616","389715.429288","390482.036944","376616.200109","377382.923395","381283.281475","382049.006762","382816.251926","383582.756938","384348.86405","385116.137348","385882.68348","386649.271349","389724.435395"
"Mixed","Female","cave","19","F_cave.wav","None","732.078991598","243","380516.408551","387416.033591","388182.10051","388949.188616","389715.429288","390482.036944","391248.906777","377382.923395","381283.281475","382049.006762","382816.251926","383582.756938","384348.86405","385116.137348","385882.68348","386649.271349","390490.949373"
"Mixed","Female","cave","19","M_done.wav","space","492.480070912","243","380516.408551","387416.033591","388182.10051","388949.188616","389715.429288","390482.036944","391248.906777","392015.436213","381283.281475","382049.006762","382816.251926","383582.756938","384348.86405","385116.137348","385882.68348","386649.271349","391257.941327"
"Mixed","Female","tile","36","F_ball.wav","None","732.292318484","243","395149.431499","387416.033591","388182.10051","388949.188616","389715.429288","390482.036944","391248.906777","392015.436213","381283.281475","382049.006762","382816.251926","383582.756938","384348.86405","385116.137348","385882.68348","386649.271349","392024.577427"
"Mixed","Female","tile","36","F_tile.wav","None","722.828640952","243","395149.431499","387416.033591","388182.10051","388949.188616","389715.429288","390482.036944","391248.906777","392015.436213","395915.109792","382049.006762","382816.251926","383582.756938","384348.86405","385116.137348","385882.68348","386649.271349","395159.375626"
"Mixed","Female","tile","36","M_gnash.wav","space","538.44584222","243","395149.431499","387416.033591","388182.10051","388949.188616","389715.429288","390482.036944","391248.906777","392015.436213","395915.109792","396682.701535","382816.251926","383582.756938","384348.86405","385116.137348","385882.68348","386649.271349","395923.842902"
"Mixed","Female","tile","36","M_cling.wav","None","723.230870441","243","395149.431499","387416.033591","388182.10051","388949.188616","389715.429288","390482.036944","391248.906777","392015.436213","395915.109792","396682.701535","397448.486801","383582.756938","384348.86405","385116.137348","385882.68348","386649.271349","396692.758818"
"Mixed","Female","tile","36","M_done.wav","None","726.404495072","243","395149.431499","387416.033591","388182.10051","388949.188616","389715.429288","390482.036944","391248.906777","392015.436213","395915.109792","396682.701535","397448.486801","398215.288616","384348.86405","385116.137348","385882.68348","386649.271349","397457.409123"
"Mixed","Female","tile","36","M_bluff.wav","None","727.507920936","243","395149.431499","387416.033591","388182.10051","388949.188616","389715.429288","390482.036944","391248.906777","392015.436213","395915.109792","396682.701535","397448.486801","398215.288616","398981.72592","385116.137348","385882.68348","386649.271349","398224.276482"
"Mixed","Female","tile","36","F_tile.wav","None","729.04263821","243","395149.431499","387416.033591","388182.10051","388949.188616","389715.429288","390482.036944","391248.906777","392015.436213","395915.109792","396682.701535","397448.486801","398215.288616","398981.72592","399748.434675","385882.68348","386649.271349","398990.698327"
"Mixed","Female","tile","36","F_bluff.wav","space","440.955123515","243","395149.431499","387416.033591","388182.10051","388949.188616","389715.429288","390482.036944","391248.906777","392015.436213","395915.109792","396682.701535","397448.486801","398215.288616","398981.72592","399748.434675","400515.172492","386649.271349","399757.20705"
"Mixed","Female","tile","36","F_tile.wav","None","729.869048111","243","395149.431499","387416.033591","388182.10051","388949.188616","389715.429288","390482.036944","391248.906777","392015.436213","395915.109792","396682.701535","397448.486801","398215.288616","398981.72592","399748.434675","400515.172492","401281.601758","400524.137788"
"Mixed","Female","tile","36","F_done.wav","space","523.882723413","243","395149.431499","402048.291962","388182.10051","388949.188616","389715.429288","390482.036944","391248.906777","392015.436213","395915.109792","396682.701535","397448.486801","398215.288616","398981.72592","399748.434675","400515.172492","401281.601758","401290.282618"
"Mixed","Female","tile","36","F_jolt.wav","None","731.29030026","243","395149.431499","402048.291962","402815.069662","388949.188616","389715.429288","390482.036944","391248.906777","392015.436213","395915.109792","396682.701535","397448.486801","398215.288616","398981.72592","399748.434675","400515.172492","401281.601758","402057.321257"
"Mixed","Female","tile","36","F_tile.wav","None","732.738450053","243","395149.431499","402048.291962","402815.069662","403581.621359","389715.429288","390482.036944","391248.906777","392015.436213","395915.109792","396682.701535","397448.486801","398215.288616","398981.72592","399748.434675","400515.172492","401281.601758","402823.942208"
"Mixed","Female","tile","36","M_gnash.wav","space","631.903754314","243","395149.431499","402048.291962","402815.069662","403581.621359","404348.207992","390482.036944","391248.906777","392015.436213","395915.109792","396682.701535","397448.486801","398215.288616","398981.72592","399748.434675","400515.172492","401281.601758","403590.180716"
"Mixed","Female","tile","36","M_knife.wav","None","734.118273365","243","395149.431499","402048.291962","402815.069662","403581.621359","404348.207992","405114.917365","391248.906777","392015.436213","395915.109792","396682.701535","397448.486801","398215.288616","398981.72592","399748.434675","400515.172492","401281.601758","404357.067861"
"Mixed","Female","tile","36","M_depth.wav","None","734.95921446","243","395149.431499","402048.291962","402815.069662","403581.621359","404348.207992","405114.917365","405881.737112","392015.436213","395915.109792","396682.701535","397448.486801","398215.288616","398981.72592","399748.434675","400515.172492","401281.601758","405124.219656"
"Mixed","Female","tile","36","M_romp.wav","None","736.319250893","243","395149.431499","402048.291962","402815.069662","403581.621359","404348.207992","405114.917365","405881.737112","406665.898174","395915.109792","396682.701535","397448.486801","398215.288616","398981.72592","399748.434675","400515.172492","401281.601758","405890.847409"
"Mixed","Female","done","46","F_ball.wav","None","719.650069601","243","409798.914321","402048.291962","402815.069662","403581.621359","404348.207992","405114.917365","405881.737112","406665.898174","395915.109792","396682.701535","397448.486801","398215.288616","398981.72592","399748.434675","400515.172492","401281.601758","406675.494486"
"Mixed","Female","done","46","F_depth.wav","None","723.068865715","243","409798.914321","402048.291962","402815.069662","403581.621359","404348.207992","405114.917365","405881.737112","406665.898174","410564.902711","396682.701535","397448.486801","398215.288616","398981.72592","399748.434675","400515.172492","401281.601758","409808.418808"
"Mixed","Female","done","46","M_gnash.wav","None","725.738853216","243","409798.914321","402048.291962","402815.069662","403581.621359","404348.207992","405114.917365","405881.737112","406665.898174","410564.902711","411331.917234","397448.486801","398215.288616","398981.72592","399748.434675","400515.172492","401281.601758","410573.655298"
"Mixed","Female","done","46","M_gnash.wav","None","725.947851664","243","409798.914321","402048.291962","402815.069662","403581.621359","404348.207992","405114.917365","405881.737112","406665.898174","410564.902711","411331.917234","412098.520562","398215.288616","398981.72592","399748.434675","400515.172492","401281.601758","411340.96477"
"Mixed","Female","done","46","M_tile.wav","None","726.943068323","243","409798.914321","402048.291962","402815.069662","403581.621359","404348.207992","405114.917365","405881.737112","406665.898174","410564.902711","411331.917234","412098.520562","412864.850275","398981.72592","399748.434675","400515.172492","401281.601758","412107.988259"
"Mixed","Female","done","46","M_bluff.wav","None","729.390453896","243","409798.914321","402048.291962","402815.069662","403581.621359","404348.207992","405114.917365","405881.737112","406665.898174","410564.902711","411331.917234","412098.520562","412864.850275","413631.866345","399748.434675","400515.172492","401281.601758","412873.57442"
"Mixed","Female","done","46","F_done.wav","None","730.071863392","243","409798.914321","402048.291962","402815.069662","403581.621359","404348.207992","405114.917365","405881.737112","406665.898174","410564.902711","411331.917234","412098.520562","412864.850275","413631.866345","414398.816561","400515.172492","401281.601758","413640.892548"
"Mixed","Female","done","46","M_park.wav","space","485.483565717","243","409798.914321","402048.291962","402815.069662","403581.621359","404348.207992","405114.917365","405881.737112","406665.898174","410564.902711","411331.917234","412098.520562","412864.850275","413631.866345","414398.816561","415165.226968","401281.601758","414408.270036"
"Mixed","Female","done","46","M_dime.wav","None","730.39865552","243","409798.914321","402048.291962","402815.069662","403581.621359","404348.207992","405114.917365","405881.737112","406665.898174","410564.902711","411331.917234","412098.520562","412864.850275","413631.866345","414398.816561","415165.226968","415931.731361","415174.575943"
"Mixed","Female","done","46","F_done.wav","None","731.81341507","243","409798.914321","416698.321395","402815.069662","403581.621359","404348.207992","405114.917365","405881.737112","406665.898174","410564.902711","411331.917234","412098.520562","412864.850275","413631.866345","414398.816561","415165.226968","415931.731361","415941.167832"
"Mixed","Female","done","46","M_jaw.wav","space","538.316300139","243","409798.914321","416698.321395","417465.125065","403581.621359","404348.207992","405114.917365","405881.737112","406665.898174","410564.902711","411331.917234","412098.520562","412864.850275","413631.866345","414398.816561","415165.226968","415931.731361","416707.362129"
"Mixed","Female","done","46","F_done.wav","None","732.484312728","243","409798.914321","416698.321395","417465.125065","418231.669033","404348.207992","405114.917365","405881.737112","406665.898174","410564.902711","411331.917234","412098.520562","412864.850275","413631.866345","414398.816561","415165.226968","415931.731361","417474.424574"
"Mixed","Female","done","46","F_knife.wav","None","733.627621434","243","409798.914321","416698.321395","417465.125065","418231.669033","418998.160132","405114.917365","405881.737112","406665.898174","410564.902711","411331.917234","412098.520562","412864.850275","413631.866345","414398.816561","415165.226968","415931.731361","418241.168883"
"Mixed","Female","done","46","F_done.wav","None","734.40425517","243","409798.914321","416698.321395","417465.125065","418231.669033","418998.160132","419782.078188","405881.737112","406665.898174","410564.902711","411331.917234","412098.520562","412864.850275","413631.866345","414398.816561","415165.226968","415931.731361","419007.993577"
"Mixed","Female","done","46","F_priest.wav","space","541.993870982","243","409798.914321","416698.321395","417465.125065","418231.669033","418998.160132","419782.078188","420531.138003","406665.898174","410564.902711","411331.917234","412098.520562","412864.850275","413631.866345","414398.816561","415165.226968","415931.731361","419791.61081"
"Mixed","Female","done","46","M_priest.wav","None","736.376447137","243","409798.914321","416698.321395","417465.125065","418231.669033","418998.160132","419782.078188","420531.138003","421314.770695","410564.902711","411331.917234","412098.520562","412864.850275","413631.866345","414398.816561","415165.226968","415931.731361","420540.127415"
"Mixed","Male","cave","16","F_reek.wav","None","720.720723504","243","424448.476598","416698.321395","417465.125065","418231.669033","418998.160132","419782.078188","420531.138003","421314.770695","410564.902711","411331.917234","412098.520562","412864.850275","413631.866345","414398.816561","415165.226968","415931.731361","421323.67323"
"Mixed","Male","cave","16","M_cave.wav","None","723.15512388","243","424448.476598","416698.321395","417465.125065","418231.669033","418998.160132","419782.078188","420531.138003","421314.770695","425214.451385","411331.917234","412098.520562","412864.850275","413631.866345","414398.816561","415165.226968","415931.731361","424458.040447"
"Mixed","Male","cave","16","M_depth.wav","None","725.617658696","243","424448.476598","416698.321395","417465.125065","418231.669033","418998.160132","419782.078188","420531.138003","421314.770695","425214.451385","425981.516303","412098.520562","412864.850275","413631.866345","414398.816561","415165.226968","415931.731361","425223.485626"
"Mixed","Male","cave","16","F_priest.wav","space","86.2895087339","243","424448.476598","416698.321395","417465.125065","418231.669033","418998.160132","419782.078188","420531.138003","421314.770695","425214.451385","425981.516303","426748.092115","412864.850275","413631.866345","414398.816561","415165.226968","415931.731361","425991.125599"
"Mixed","Male","cave","16","M_cave.wav","None","725.50944949","243","424448.476598","416698.321395","417465.125065","418231.669033","418998.160132","419782.078188","420531.138003","421314.770695","425214.451385","425981.516303","426748.092115","427514.702863","413631.866345","414398.816561","415165.226968","415931.731361","426757.381421"
"Mixed","Male","cave","16","F_park.wav","space","521.109782276","243","424448.476598","416698.321395","417465.125065","418231.669033","418998.160132","419782.078188","420531.138003","421314.770695","425214.451385","425981.516303","426748.092115","427514.702863","428280.851712","414398.816561","415165.226968","415931.731361","427524.242597"
"Mixed","Male","cave","16","M_cave.wav","None","727.578102495","243","424448.476598","416698.321395","417465.125065","418231.669033","418998.160132","419782.078188","420531.138003","421314.770695","425214.451385","425981.516303","426748.092115","427514.702863","428280.851712","429047.559849","415165.226968","415931.731361","428289.488671"
