"Condition","Talker","Target","Trial","current_stimulus","response_response","response_time_response","subject_nr","time_Audio1","time_Audio10","time_Audio11","time_Audio12","time_Audio13","time_Audio14","time_Audio15","time_Audio16","time_Audio2","time_Audio3","time_Audio4","time_Audio5","time_Audio6","time_Audio7","time_Audio8","time_Audio9","time_response","title"
"Mixed","Both","cave","15","M_knife.wav","NA","NA","139","193499.303587","NA","NA","NA","NA","NA","NA","NA","NA","NA","NA","NA","NA","NA","NA","NA","NA","Mapping"
"Mixed","Both","cave","15","F_done.wav","None","718.290964724","139","193499.303587","NA","NA","NA","NA","NA","NA","NA","194266.104755","NA","NA","NA","NA","NA","NA","NA","193514.415046","Mapping"
"Mixed","Both","cave","15","M_depth.wav","None","722.177890246","139","193499.303587","NA","NA","NA","NA","NA","NA","NA","194266.104755","195032.440925","NA","NA","NA","NA","NA","NA","194276.659309","Mapping"
"Mixed","Both","cave","15","F_park.wav","None","722.13769774","139","193499.303587","NA","NA","NA","NA","NA","NA","NA","194266.104755","195032.440925","195798.640442","NA","NA","NA","NA","NA","195042.856661","Mapping"
"Mixed","Both","cave","15","F_cave.wav","None","722.980503808","139","193499.303587","NA","NA","NA","NA","NA","NA","NA","194266.104755","195032.440925","195798.640442","196566.064593","NA","NA","NA","NA","195808.093722","Mapping"
"Mixed","Both","cave","15","F_done.wav","space","467.142154463","139","193499.303587","NA","NA","NA","NA","NA","NA","NA","194266.104755","195032.440925","195798.640442","196566.064593","197314.967415","NA","NA","NA","196576.334708","Mapping"
"Mixed","Both","cave","15","M_romp.wav","None","735.711019486","139","193499.303587","NA","NA","NA","NA","NA","NA","NA","194266.104755","195032.440925","195798.640442","196566.064593","197314.967415","198081.876174","NA","NA","197324.455013","Mapping"
"Mixed","Both","cave","15","M_cave.wav","None","734.939323273","139","193499.303587","NA","NA","NA","NA","NA","NA","NA","194266.104755","195032.440925","195798.640442","196566.064593","197314.967415","198081.876174","198848.785861","NA","198091.283696","Mapping"
"Mixed","Both","cave","15","M_ball.wav","space","520.389508689","139","193499.303587","NA","NA","NA","NA","NA","NA","NA","194266.104755","195032.440925","195798.640442","196566.064593","197314.967415","198081.876174","198848.785861","199615.08555","198859.043919","Mapping"
"Mixed","Both","cave","15","F_reek.wav","None","734.080130933","139","193499.303587","200382.183214","NA","NA","NA","NA","NA","NA","194266.104755","195032.440925","195798.640442","196566.064593","197314.967415","198081.876174","198848.785861","199615.08555","199624.413305","Mapping"
"Mixed","Both","cave","15","F_cave.wav","None","732.22694674","139","193499.303587","200382.183214","201149.279951","NA","NA","NA","NA","NA","194266.104755","195032.440925","195798.640442","196566.064593","197314.967415","198081.876174","198848.785861","199615.08555","200392.370162","Mapping"
"Mixed","Both","cave","15","M_knife.wav","space","532.397486735","139","193499.303587","200382.183214","201149.279951","201915.806882","NA","NA","NA","NA","194266.104755","195032.440925","195798.640442","196566.064593","197314.967415","198081.876174","198848.785861","199615.08555","201158.975004","Mapping"
"Mixed","Both","cave","15","F_jaw.wav","None","725.474604056","139","193499.303587","200382.183214","201149.279951","201915.806882","202682.150164","NA","NA","NA","194266.104755","195032.440925","195798.640442","196566.064593","197314.967415","198081.876174","198848.785861","199615.08555","201925.478438","Mapping"
"Mixed","Both","cave","15","F_jaw.wav","None","725.723179406","139","193499.303587","200382.183214","201149.279951","201915.806882","202682.150164","203449.481254","NA","NA","194266.104755","195032.440925","195798.640442","196566.064593","197314.967415","198081.876174","198848.785861","199615.08555","202691.336936","Mapping"
"Mixed","Both","cave","15","M_cave.wav","None","720.565861207","139","193499.303587","200382.183214","201149.279951","201915.806882","202682.150164","203449.481254","204198.511455","NA","194266.104755","195032.440925","195798.640442","196566.064593","197314.967415","198081.876174","198848.785861","199615.08555","203459.834846","Mapping"
"Mixed","Both","cave","15","M_romp.wav","space","555.640818668","139","193499.303587","200382.183214","201149.279951","201915.806882","202682.150164","203449.481254","204198.511455","204965.226672","194266.104755","195032.440925","195798.640442","196566.064593","197314.967415","198081.876174","198848.785861","199615.08555","204207.695135","Mapping"
"Mixed","Both","tile","27","F_ball.wav","None","731.631788309","139","208265.897609","200382.183214","201149.279951","201915.806882","202682.150164","203449.481254","204198.511455","204965.226672","194266.104755","195032.440925","195798.640442","196566.064593","197314.967415","198081.876174","198848.785861","199615.08555","204974.826191","Mapping"
"Mixed","Both","tile","27","M_jolt.wav","None","722.314544721","139","208265.897609","200382.183214","201149.279951","201915.806882","202682.150164","203449.481254","204198.511455","204965.226672","209032.257895","195032.440925","195798.640442","196566.064593","197314.967415","198081.876174","198848.785861","199615.08555","208276.020248","Mapping"
"Mixed","Both","tile","27","F_ball.wav","None","723.753436818","139","208265.897609","200382.183214","201149.279951","201915.806882","202682.150164","203449.481254","204198.511455","204965.226672","209032.257895","209799.703688","195798.640442","196566.064593","197314.967415","198081.876174","198848.785861","199615.08555","209041.231029","Mapping"
"Mixed","Both","tile","27","F_reek.wav","None","719.12078571","139","208265.897609","200382.183214","201149.279951","201915.806882","202682.150164","203449.481254","204198.511455","204965.226672","209032.257895","209799.703688","210549.128394","196566.064593","197314.967415","198081.876174","198848.785861","199615.08555","209809.520865","Mapping"
"Mixed","Both","tile","27","F_tile.wav","None","733.301632688","139","208265.897609","200382.183214","201149.279951","201915.806882","202682.150164","203449.481254","204198.511455","204965.226672","209032.257895","209799.703688","210549.128394","211315.219391","197314.967415","198081.876174","198848.785861","199615.08555","210558.593423","Mapping"
"Mixed","Both","tile","27","F_cad.wav","space","558.404827141","139","208265.897609","200382.183214","201149.279951","201915.806882","202682.150164","203449.481254","204198.511455","204965.226672","209032.257895","209799.703688","210549.128394","211315.219391","212081.953777","198081.876174","198848.785861","199615.08555","211324.792011","Mapping"
"Mixed","Both","tile","27","M_gnash.wav","None","732.921658899","139","208265.897609","200382.183214","201149.279951","201915.806882","202682.150164","203449.481254","204198.511455","204965.226672","209032.257895","209799.703688","210549.128394","211315.219391","212081.953777","212849.173874","198848.785861","199615.08555","212091.444157","Mapping"
"Mixed","Both","tile","27","F_tile.wav","None","731.959511875","139","208265.897609","200382.183214","201149.279951","201915.806882","202682.150164","203449.481254","204198.511455","204965.226672","209032.257895","209799.703688","210549.128394","211315.219391","212081.953777","212849.173874","213615.540034","199615.08555","212858.836773","Mapping"
"Mixed","Both","tile","27","F_jaw.wav","space","513.960561249","139","208265.897609","200382.183214","201149.279951","201915.806882","202682.150164","203449.481254","204198.511455","204965.226672","209032.257895","209799.703688","210549.128394","211315.219391","212081.953777","212849.173874","213615.540034","214381.88177","213625.189639","Mapping"
"Mixed","Both","tile","27","M_tile.wav","None","726.484054467","139","208265.897609","215148.89905","201149.279951","201915.806882","202682.150164","203449.481254","204198.511455","204965.226672","209032.257895","209799.703688","210549.128394","211315.219391","212081.953777","212849.173874","213615.540034","214381.88177","214391.17799","Mapping"
"Mixed","Both","tile","27","M_romp.wav","space","460.073527531","139","208265.897609","215148.89905","215915.203994","201915.806882","202682.150164","203449.481254","204198.511455","204965.226672","209032.257895","209799.703688","210549.128394","211315.219391","212081.953777","212849.173874","213615.540034","214381.88177","215159.052607","Mapping"
"Mixed","Both","tile","27","M_lash.wav","None","722.473150701","139","208265.897609","215148.89905","215915.203994","216681.880255","202682.150164","203449.481254","204198.511455","204965.226672","209032.257895","209799.703688","210549.128394","211315.219391","212081.953777","212849.173874","213615.540034","214381.88177","215924.805059","Mapping"
"Mixed","Both","tile","27","M_tile.wav","None","722.37792518","139","208265.897609","215148.89905","215915.203994","216681.880255","217431.498504","203449.481254","204198.511455","204965.226672","209032.257895","209799.703688","210549.128394","211315.219391","212081.953777","212849.173874","213615.540034","214381.88177","216691.181113","Mapping"
"Mixed","Both","tile","27","M_priest.wav","space","482.411909499","139","208265.897609","215148.89905","215915.203994","216681.880255","217431.498504","218198.359651","204198.511455","204965.226672","209032.257895","209799.703688","210549.128394","211315.219391","212081.953777","212849.173874","213615.540034","214381.88177","217440.697334","Mapping"
"Mixed","Both","tile","27","M_cling.wav","None","735.61115656","139","208265.897609","215148.89905","215915.203994","216681.880255","217431.498504","218198.359651","218965.260372","204965.226672","209032.257895","209799.703688","210549.128394","211315.219391","212081.953777","212849.173874","213615.540034","214381.88177","218207.785723","Mapping"
"Mixed","Both","tile","27","F_priest.wav","None","734.690438723","139","208265.897609","215148.89905","215915.203994","216681.880255","217431.498504","218198.359651","218965.260372","219731.998159","209032.257895","209799.703688","210549.128394","211315.219391","212081.953777","212849.173874","213615.540034","214381.88177","218974.972739","Mapping"
"Mixed","Both","ball","5","F_lash.wav","None","734.233171679","139","222865.742156","215148.89905","215915.203994","216681.880255","217431.498504","218198.359651","218965.260372","219731.998159","209032.257895","209799.703688","210549.128394","211315.219391","212081.953777","212849.173874","213615.540034","214381.88177","219741.872841","Mapping"
"Mixed","Both","ball","5","M_jaw.wav","None","722.054839367","139","222865.742156","215148.89905","215915.203994","216681.880255","217431.498504","218198.359651","218965.260372","219731.998159","223631.970735","209799.703688","210549.128394","211315.219391","212081.953777","212849.173874","213615.540034","214381.88177","222875.970842","Mapping"
"Mixed","Both","ball","5","F_knife.wav","None","723.100153846","139","222865.742156","215148.89905","215915.203994","216681.880255","217431.498504","218198.359651","218965.260372","219731.998159","223631.970735","224398.843012","210549.128394","211315.219391","212081.953777","212849.173874","213615.540034","214381.88177","223641.166473","Mapping"
"Mixed","Both","ball","5","F_ball.wav","None","721.950338804","139","222865.742156","215148.89905","215915.203994","216681.880255","217431.498504","218198.359651","218965.260372","219731.998159","223631.970735","224398.843012","225148.894721","211315.219391","212081.953777","212849.173874","213615.540034","214381.88177","224408.524771","Mapping"
"Mixed","Both","ball","5","M_lash.wav","space","468.372045434","139","222865.742156","215148.89905","215915.203994","216681.880255","217431.498504","218198.359651","218965.260372","219731.998159","223631.970735","224398.843012","225148.894721","225915.016017","212081.953777","212849.173874","213615.540034","214381.88177","225158.599668","Mapping"
"Mixed","Both","ball","5","M_ball.wav","None","732.618050883","139","222865.742156","215148.89905","215915.203994","216681.880255","217431.498504","218198.359651","218965.260372","219731.998159","223631.970735","224398.843012","225148.894721","225915.016017","226681.974553","212849.173874","213615.540034","214381.88177","225924.47548","Mapping"
"Mixed","Both","ball","5","M_depth.wav","space","359.271934256","139","222865.742156","215148.89905","215915.203994","216681.880255","217431.498504","218198.359651","218965.260372","219731.998159","223631.970735","224398.843012","225148.894721","225915.016017","226681.974553","227448.397602","213615.540034","214381.88177","226691.651674","Mapping"
"Mixed","Both","ball","5","F_reek.wav","None","725.890132831","139","222865.742156","215148.89905","215915.203994","216681.880255","217431.498504","218198.359651","218965.260372","219731.998159","223631.970735","224398.843012","225148.894721","225915.016017","226681.974553","227448.397602","228215.749406","214381.88177","227457.803887","Mapping"
"Mixed","Both","ball","5","F_ball.wav","None","721.565108979","139","222865.742156","215148.89905","215915.203994","216681.880255","217431.498504","218198.359651","218965.260372","219731.998159","223631.970735","224398.843012","225148.894721","225915.016017","226681.974553","227448.397602","228215.749406","228965.890776","228225.82196","Mapping"
"Mixed","Both","ball","5","F_lash.wav","space","347.354544094","139","222865.742156","229731.932305","215915.203994","216681.880255","217431.498504","218198.359651","218965.260372","219731.998159","223631.970735","224398.843012","225148.894721","225915.016017","226681.974553","227448.397602","228215.749406","228965.890776","228975.516883","Mapping"
"Mixed","Both","ball","5","M_reek.wav","None","732.045152923","139","222865.742156","229731.932305","230498.881257","216681.880255","217431.498504","218198.359651","218965.260372","219731.998159","223631.970735","224398.843012","225148.894721","225915.016017","226681.974553","227448.397602","228215.749406","228965.890776","229741.769577","Mapping"
"Mixed","Both","ball","5","F_knife.wav","None","731.481220922","139","222865.742156","229731.932305","230498.881257","231265.290083","217431.498504","218198.359651","218965.260372","219731.998159","223631.970735","224398.843012","225148.894721","225915.016017","226681.974553","227448.397602","228215.749406","228965.890776","230508.758413","Mapping"
"Mixed","Both","ball","5","F_greet.wav","None","728.792960057","139","222865.742156","229731.932305","230498.881257","231265.290083","232031.477851","218198.359651","218965.260372","219731.998159","223631.970735","224398.843012","225148.894721","225915.016017","226681.974553","227448.397602","228215.749406","228965.890776","231274.962567","Mapping"
"Mixed","Both","ball","5","M_ball.wav","None","729.709658539","139","222865.742156","229731.932305","230498.881257","231265.290083","232031.477851","232798.5851","218965.260372","219731.998159","223631.970735","224398.843012","225148.894721","225915.016017","226681.974553","227448.397602","228215.749406","228965.890776","232040.659367","Mapping"
"Mixed","Both","ball","5","M_jolt.wav","space","338.009784115","139","222865.742156","229731.932305","230498.881257","231265.290083","232031.477851","232798.5851","233564.909522","219731.998159","223631.970735","224398.843012","225148.894721","225915.016017","226681.974553","227448.397602","228215.749406","228965.890776","232808.82337","Mapping"
"Mixed","Both","ball","5","M_romp.wav","None","691.714127315","139","222865.742156","229731.932305","230498.881257","231265.290083","232031.477851","232798.5851","233564.909522","234331.536006","223631.970735","224398.843012","225148.894721","225915.016017","226681.974553","227448.397602","228215.749406","228965.890776","233605.779436","Mapping"
"Mixed","Both","tile","36","M_depth.wav","None","720.368917799","139","237448.917013","229731.932305","230498.881257","231265.290083","232031.477851","232798.5851","233564.909522","234331.536006","223631.970735","224398.843012","225148.894721","225915.016017","226681.974553","227448.397602","228215.749406","228965.890776","234340.536657","Mapping"
"Mixed","Both","tile","36","F_tile.wav","None","716.842797468","139","237448.917013","229731.932305","230498.881257","231265.290083","232031.477851","232798.5851","233564.909522","234331.536006","238198.233508","224398.843012","225148.894721","225915.016017","226681.974553","227448.397602","228215.749406","228965.890776","237462.077279","Mapping"
"Mixed","Both","tile","36","M_dime.wav","space","578.507577768","139","237448.917013","229731.932305","230498.881257","231265.290083","232031.477851","232798.5851","233564.909522","234331.536006","238198.233508","238965.069303","225148.894721","225915.016017","226681.974553","227448.397602","228215.749406","228965.890776","238208.194141","Mapping"
"Mixed","Both","tile","36","M_romp.wav","None","734.331488726","139","237448.917013","229731.932305","230498.881257","231265.290083","232031.477851","232798.5851","233564.909522","234331.536006","238198.233508","238965.069303","239731.750511","225915.016017","226681.974553","227448.397602","228215.749406","228965.890776","238974.629247","Mapping"
"Mixed","Both","tile","36","F_gnash.wav","None","723.225059919","139","237448.917013","229731.932305","230498.881257","231265.290083","232031.477851","232798.5851","233564.909522","234331.536006","238198.233508","238965.069303","239731.750511","240498.57703","226681.974553","227448.397602","228215.749406","228965.890776","239749.125117","Mapping"
"Mixed","Both","tile","36","F_gnash.wav","None","730.867512175","139","237448.917013","229731.932305","230498.881257","231265.290083","232031.477851","232798.5851","233564.909522","234331.536006","238198.233508","238965.069303","239731.750511","240498.57703","241265.268132","227448.397602","228215.749406","228965.890776","240508.218287","Mapping"
"Mixed","Both","tile","36","F_tile.wav","None","727.95819235","139","237448.917013","229731.932305","230498.881257","231265.290083","232031.477851","232798.5851","233564.909522","234331.536006","238198.233508","238965.069303","239731.750511","240498.57703","241265.268132","242031.70633","228215.749406","228965.890776","241274.71832","Mapping"
"Mixed","Both","tile","36","F_done.wav","space","449.669540278","139","237448.917013","229731.932305","230498.881257","231265.290083","232031.477851","232798.5851","233564.909522","234331.536006","238198.233508","238965.069303","239731.750511","240498.57703","241265.268132","242031.70633","242799.230653","228965.890776","242040.978125","Mapping"
"Mixed","Both","tile","36","M_jolt.wav","None","719.607733423","139","237448.917013","229731.932305","230498.881257","231265.290083","232031.477851","232798.5851","233564.909522","234331.536006","238198.233508","238965.069303","239731.750511","240498.57703","241265.268132","242031.70633","242799.230653","243548.598471","242809.550236","Mapping"
"Mixed","Both","tile","36","M_done.wav","None","735.026200884","139","237448.917013","244314.813446","230498.881257","231265.290083","232031.477851","232798.5851","233564.909522","234331.536006","238198.233508","238965.069303","239731.750511","240498.57703","241265.268132","242031.70633","242799.230653","243548.598471","243557.591392","Mapping"
"Mixed","Both","tile","36","M_tile.wav","None","734.969313024","139","237448.917013","244314.813446","245081.255045","231265.290083","232031.477851","232798.5851","233564.909522","234331.536006","238198.233508","238965.069303","239731.750511","240498.57703","241265.268132","242031.70633","242799.230653","243548.598471","244324.127598","Mapping"
"Mixed","Both","tile","36","F_knife.wav","space","488.457482308","139","237448.917013","244314.813446","245081.255045","245848.015711","232031.477851","232798.5851","233564.909522","234331.536006","238198.233508","238965.069303","239731.750511","240498.57703","241265.268132","242031.70633","242799.230653","243548.598471","245090.123679","Mapping"
"Mixed","Both","tile","36","F_bluff.wav","None","728.698662133","139","237448.917013","244314.813446","245081.255045","245848.015711","246614.99929","232798.5851","233564.909522","234331.536006","238198.233508","238965.069303","239731.750511","240498.57703","241265.268132","242031.70633","242799.230653","243548.598471","245857.030892","Mapping"
"Mixed","Both","tile","36","F_done.wav","None","727.470317041","139","237448.917013","244314.813446","245081.255045","245848.015711","246614.99929","247381.577853","233564.909522","234331.536006","238198.233508","238965.069303","239731.750511","240498.57703","241265.268132","242031.70633","242799.230653","243548.598471","246624.713203","Mapping"
"Mixed","Both","tile","36","M_tile.wav","None","725.19882163","139","237448.917013","244314.813446","245081.255045","245848.015711","246614.99929","247381.577853","248148.632852","234331.536006","238198.233508","238965.069303","239731.750511","240498.57703","241265.268132","242031.70633","242799.230653","243548.598471","247390.559953","Mapping"
"Mixed","Both","tile","36","M_ball.wav","space","379.96180472","139","237448.917013","244314.813446","245081.255045","245848.015711","246614.99929","247381.577853","248148.632852","248897.781157","238198.233508","238965.069303","239731.750511","240498.57703","241265.268132","242031.70633","242799.230653","243548.598471","248158.555456","Mapping"
"Mixed","Both","done","43","M_bluff.wav","None","735.422560945","139","252031.850405","244314.813446","245081.255045","245848.015711","246614.99929","247381.577853","248148.632852","248897.781157","238198.233508","238965.069303","239731.750511","240498.57703","241265.268132","242031.70633","242799.230653","243548.598471","248906.8928","Mapping"
"Mixed","Both","done","43","M_jolt.wav","None","723.824546672","139","252031.850405","244314.813446","245081.255045","245848.015711","246614.99929","247381.577853","248148.632852","248897.781157","252798.63735","238965.069303","239731.750511","240498.57703","241265.268132","242031.70633","242799.230653","243548.598471","252041.386852","Mapping"
"Mixed","Both","done","43","F_cave.wav","None","720.182177145","139","252031.850405","244314.813446","245081.255045","245848.015711","246614.99929","247381.577853","248148.632852","248897.781157","252798.63735","253547.658585","239731.750511","240498.57703","241265.268132","242031.70633","242799.230653","243548.598471","252808.533675","Mapping"
"Mixed","Both","done","43","M_tile.wav","None","736.060076044","139","252031.850405","244314.813446","245081.255045","245848.015711","246614.99929","247381.577853","248148.632852","248897.781157","252798.63735","253547.658585","254314.813446","240498.57703","241265.268132","242031.70633","242799.230653","243548.598471","253556.386854","Mapping"
"Mixed","Both","done","43","F_romp.wav","None","731.40701931","139","252031.850405","244314.813446","245081.255045","245848.015711","246614.99929","247381.577853","248148.632852","248897.781157","252798.63735","253547.658585","254314.813446","255081.451989","241265.268132","242031.70633","242799.230653","243548.598471","254324.472017","Mapping"
"Mixed","Both","done","43","M_done.wav","None","731.972497189","139","252031.850405","244314.813446","245081.255045","245848.015711","246614.99929","247381.577853","248148.632852","248897.781157","252798.63735","253547.658585","254314.813446","255081.451989","255848.15453","242031.70633","242799.230653","243548.598471","255090.465933","Mapping"
"Mixed","Both","done","43","F_greet.wav","space","464.370725909","139","252031.850405","244314.813446","245081.255045","245848.015711","246614.99929","247381.577853","248148.632852","248897.781157","252798.63735","253547.658585","254314.813446","255081.451989","255848.15453","256614.806985","242799.230653","243548.598471","255858.014681","Mapping"
"Mixed","Both","done","43","F_done.wav","None","724.501326797","139","252031.850405","244314.813446","245081.255045","245848.015711","246614.99929","247381.577853","248148.632852","248897.781157","252798.63735","253547.658585","254314.813446","255081.451989","255848.15453","256614.806985","257381.802004","243548.598471","256624.431856","Mapping"
"Mixed","Both","done","43","M_park.wav","space","410.012203152","139","252031.850405","244314.813446","245081.255045","245848.015711","246614.99929","247381.577853","248148.632852","248897.781157","252798.63735","253547.658585","254314.813446","255081.451989","255848.15453","256614.806985","257381.802004","258148.911107","257392.33337","Mapping"
"Mixed","Both","done","43","F_ball.wav","None","720.179394586","139","252031.850405","258897.29761","245081.255045","245848.015711","246614.99929","247381.577853","248148.632852","248897.781157","252798.63735","253547.658585","254314.813446","255081.451989","255848.15453","256614.806985","257381.802004","258148.911107","258158.410454","Mapping"
"Mixed","Both","done","43","F_done.wav","None","736.512087286","139","252031.850405","258897.29761","259664.319527","245848.015711","246614.99929","247381.577853","248148.632852","248897.781157","252798.63735","253547.658585","254314.813446","255081.451989","255848.15453","256614.806985","257381.802004","258148.911107","258906.217566","Mapping"
"Mixed","Both","done","43","M_lash.wav","space","440.930759767","139","252031.850405","258897.29761","259664.319527","260431.311454","246614.99929","247381.577853","248148.632852","248897.781157","252798.63735","253547.658585","254314.813446","255081.451989","255848.15453","256614.806985","257381.802004","258148.911107","259673.396234","Mapping"
"Mixed","Both","done","43","F_reek.wav","None","729.547651834","139","252031.850405","258897.29761","259664.319527","260431.311454","261198.049241","247381.577853","248148.632852","248897.781157","252798.63735","253547.658585","254314.813446","255081.451989","255848.15453","256614.806985","257381.802004","258148.911107","260440.351678","Mapping"
"Mixed","Both","done","43","M_jolt.wav","None","731.616329635","139","252031.850405","258897.29761","259664.319527","260431.311454","261198.049241","261964.777752","248148.632852","248897.781157","252798.63735","253547.658585","254314.813446","255081.451989","255848.15453","256614.806985","257381.802004","258148.911107","261202.000783","Mapping"
"Mixed","Both","done","43","M_done.wav","None","723.523721099","139","252031.850405","258897.29761","259664.319527","260431.311454","261198.049241","261964.777752","262731.629933","248897.781157","252798.63735","253547.658585","254314.813446","255081.451989","255848.15453","256614.806985","257381.802004","258148.911107","261973.890323","Mapping"
"Mixed","Both","done","43","F_jaw.wav","space","477.057339041","139","252031.850405","258897.29761","259664.319527","260431.311454","261198.049241","261964.777752","262731.629933","263481.300432","252798.63735","253547.658585","254314.813446","255081.451989","255848.15453","256614.806985","257381.802004","258148.911107","262741.238727","Mapping"
"Mixed","Both","ball","3","F_gnash.wav","None","733.881641645","139","266615.114303","258897.29761","259664.319527","260431.311454","261198.049241","261964.777752","262731.629933","263481.300432","252798.63735","253547.658585","254314.813446","255081.451989","255848.15453","256614.806985","257381.802004","258148.911107","263490.322415","Mapping"
"Mixed","Both","ball","3","M_cad.wav","None","719.418828608","139","266615.114303","258897.29761","259664.319527","260431.311454","261198.049241","261964.777752","262731.629933","263481.300432","267381.538897","253547.658585","254314.813446","255081.451989","255848.15453","256614.806985","257381.802004","258148.911107","266624.780294","Mapping"
"Mixed","Both","ball","3","M_knife.wav","None","719.112128718","139","266615.114303","258897.29761","259664.319527","260431.311454","261198.049241","261964.777752","262731.629933","263481.300432","267381.538897","268130.870542","254314.813446","255081.451989","255848.15453","256614.806985","257381.802004","258148.911107","267391.759854","Mapping"
"Mixed","Both","ball","3","M_romp.wav","None","734.224205604","139","266615.114303","258897.29761","259664.319527","260431.311454","261198.049241","261964.777752","262731.629933","263481.300432","267381.538897","268130.870542","268897.569373","255081.451989","255848.15453","256614.806985","257381.802004","258148.911107","268140.18995","Mapping"
"Mixed","Both","ball","3","F_greet.wav","None","731.378575438","139","266615.114303","258897.29761","259664.319527","260431.311454","261198.049241","261964.777752","262731.629933","263481.300432","267381.538897","268130.870542","268897.569373","269664.071261","255848.15453","256614.806985","257381.802004","258148.911107","268906.729557","Mapping"
"Mixed","Both","ball","3","M_ball.wav","None","728.607456083","139","266615.114303","258897.29761","259664.319527","260431.311454","261198.049241","261964.777752","262731.629933","263481.300432","267381.538897","268130.870542","268897.569373","269664.071261","270431.257039","256614.806985","257381.802004","258148.911107","269673.328834","Mapping"
"Mixed","Both","ball","3","F_jolt.wav","space","393.987756106","139","266615.114303","258897.29761","259664.319527","260431.311454","261198.049241","261964.777752","262731.629933","263481.300432","267381.538897","268130.870542","268897.569373","269664.071261","270431.257039","271198.363361","257381.802004","258148.911107","270440.147315","Mapping"
"Mixed","Both","ball","3","F_ball.wav","None","728.839335963","139","266615.114303","258897.29761","259664.319527","260431.311454","261198.049241","261964.777752","262731.629933","263481.300432","267381.538897","268130.870542","268897.569373","269664.071261","270431.257039","271198.363361","271964.571843","258148.911107","271202.792576","Mapping"
"Mixed","Both","ball","3","M_bluff.wav","space","436.403845786","139","266615.114303","258897.29761","259664.319527","260431.311454","261198.049241","261964.777752","262731.629933","263481.300432","267381.538897","268130.870542","268897.569373","269664.071261","270431.257039","271198.363361","271964.571843","272713.864532","271973.71564","Mapping"
"Mixed","Both","ball","3","F_jolt.wav","None","735.788312857","139","266615.114303","273480.827397","259664.319527","260431.311454","261198.049241","261964.777752","262731.629933","263481.300432","267381.538897","268130.870542","268897.569373","269664.071261","270431.257039","271198.363361","271964.571843","272713.864532","272722.826536","Mapping"
"Mixed","Both","ball","3","M_romp.wav","None","725.681750104","139","266615.114303","273480.827397","274247.702147","260431.311454","261198.049241","261964.777752","262731.629933","263481.300432","267381.538897","268130.870542","268897.569373","269664.071261","270431.257039","271198.363361","271964.571843","272713.864532","273496.743015","Mapping"
"Mixed","Both","ball","3","F_ball.wav","None","728.776882985","139","266615.114303","273480.827397","274247.702147","275014.47147","261198.049241","261964.777752","262731.629933","263481.300432","267381.538897","268130.870542","268897.569373","269664.071261","270431.257039","271198.363361","271964.571843","272713.864532","274257.256527","Mapping"
"Mixed","Both","ball","3","F_romp.wav","space","386.423524586","139","266615.114303","273480.827397","274247.702147","275014.47147","275780.970884","261964.777752","262731.629933","263481.300432","267381.538897","268130.870542","268897.569373","269664.071261","270431.257039","271198.363361","271964.571843","272713.864532","275023.649895","Mapping"
"Mixed","Both","ball","3","M_park.wav","None","723.342236481","139","266615.114303","273480.827397","274247.702147","275014.47147","275780.970884","276547.678063","262731.629933","263481.300432","267381.538897","268130.870542","268897.569373","269664.071261","270431.257039","271198.363361","271964.571843","272713.864532","275789.880019","Mapping"
"Mixed","Both","ball","3","M_ball.wav","None","720.264417236","139","266615.114303","273480.827397","274247.702147","275014.47147","275780.970884","276547.678063","277297.655261","263481.300432","267381.538897","268130.870542","268897.569373","269664.071261","270431.257039","271198.363361","271964.571843","272713.864532","276557.257485","Mapping"
"Mixed","Both","ball","3","F_gnash.wav","space","534.965479281","139","266615.114303","273480.827397","274247.702147","275014.47147","275780.970884","276547.678063","277297.655261","278064.438806","267381.538897","268130.870542","268897.569373","269664.071261","270431.257039","271198.363361","271964.571843","272713.864532","277307.049798","Mapping"
"Mixed","Both","done","40","M_park.wav","None","730.594203109","139","281198.201354","273480.827397","274247.702147","275014.47147","275780.970884","276547.678063","277297.655261","278064.438806","267381.538897","268130.870542","268897.569373","269664.071261","270431.257039","271198.363361","271964.571843","272713.864532","278073.714002","Mapping"
"Mixed","Both","done","40","F_greet.wav","None","719.027724466","139","281198.201354","273480.827397","274247.702147","275014.47147","275780.970884","276547.678063","277297.655261","278064.438806","281947.215478","268130.870542","268897.569373","269664.071261","270431.257039","271198.363361","271964.571843","272713.864532","281207.978338","Mapping"
"Mixed","Both","done","40","F_tile.wav","None","734.414347098","139","281198.201354","273480.827397","274247.702147","275014.47147","275780.970884","276547.678063","277297.655261","278064.438806","281947.215478","282714.340659","268897.569373","269664.071261","270431.257039","271198.363361","271964.571843","272713.864532","281956.192013","Mapping"
"Mixed","Both","done","40","M_lash.wav","None","730.211446644","139","281198.201354","273480.827397","274247.702147","275014.47147","275780.970884","276547.678063","277297.655261","278064.438806","281947.215478","282714.340659","283480.951066","269664.071261","270431.257039","271198.363361","271964.571843","272713.864532","282723.954399","Mapping"
"Mixed","Both","done","40","M_done.wav","None","727.962211706","139","281198.201354","273480.827397","274247.702147","275014.47147","275780.970884","276547.678063","277297.655261","278064.438806","281947.215478","282714.340659","283480.951066","284247.680196","270431.257039","271198.363361","271964.571843","272713.864532","283489.940277","Mapping"
"Mixed","Both","done","40","F_priest.wav","space","520.829771413","139","281198.201354","273480.827397","274247.702147","275014.47147","275780.970884","276547.678063","277297.655261","278064.438806","281947.215478","282714.340659","283480.951066","284247.680196","285013.987305","271198.363361","271964.571843","272713.864532","284257.079061","Mapping"
"Mixed","Both","done","40","F_done.wav","None","722.25147346","139","281198.201354","273480.827397","274247.702147","275014.47147","275780.970884","276547.678063","277297.655261","278064.438806","281947.215478","282714.340659","283480.951066","284247.680196","285013.987305","285763.540318","271964.571843","272713.864532","285022.818528","Mapping"
"Mixed","Both","done","40","F_jolt.wav","space","508.969887393","139","281198.201354","273480.827397","274247.702147","275014.47147","275780.970884","276547.678063","277297.655261","278064.438806","281947.215478","282714.340659","283480.951066","284247.680196","285013.987305","285763.540318","286530.892122","272713.864532","285772.867764","Mapping"
"Mixed","Both","done","40","M_greet.wav","None","731.938488199","139","281198.201354","273480.827397","274247.702147","275014.47147","275780.970884","276547.678063","277297.655261","278064.438806","281947.215478","282714.340659","283480.951066","284247.680196","285013.987305","285763.540318","286530.892122","287297.828398","286539.961718","Mapping"
"Mixed","Both","done","40","M_priest.wav","None","731.82409408","139","281198.201354","288064.357184","274247.702147","275014.47147","275780.970884","276547.678063","277297.655261","278064.438806","281947.215478","282714.340659","283480.951066","284247.680196","285013.987305","285763.540318","286530.892122","287297.828398","287306.899849","Mapping"
"Mixed","Both","done","40","M_reek.wav","None","728.751530754","139","281198.201354","288064.357184","288830.854434","275014.47147","275780.970884","276547.678063","277297.655261","278064.438806","281947.215478","282714.340659","283480.951066","284247.680196","285013.987305","285763.540318","286530.892122","287297.828398","288073.732243","Mapping"
"Mixed","Both","done","40","M_done.wav","None","725.697208662","139","281198.201354","288064.357184","288830.854434","289597.293869","275780.970884","276547.678063","277297.655261","278064.438806","281947.215478","282714.340659","283480.951066","284247.680196","285013.987305","285763.540318","286530.892122","287297.828398","288840.530009","Mapping"
"Mixed","Both","done","40","M_bluff.wav","space","467.634049011","139","281198.201354","288064.357184","288830.854434","289597.293869","290347.473267","276547.678063","277297.655261","278064.438806","281947.215478","282714.340659","283480.951066","284247.680196","285013.987305","285763.540318","286530.892122","287297.828398","289606.177652","Mapping"
"Mixed","Both","done","40","F_dime.wav","None","736.757570761","139","281198.201354","288064.357184","288830.854434","289597.293869","290347.473267","291131.233511","277297.655261","278064.438806","281947.215478","282714.340659","283480.951066","284247.680196","285013.987305","285763.540318","286530.892122","287297.828398","290356.358595","Mapping"
"Mixed","Both","done","40","F_done.wav","space","524.952905136","139","281198.201354","288064.357184","288830.854434","289597.293869","290347.473267","291131.233511","291880.661618","278064.438806","281947.215478","282714.340659","283480.951066","284247.680196","285013.987305","285763.540318","286530.892122","287297.828398","291140.84818","Mapping"
"Mixed","Both","done","40","F_greet.wav","None","732.654533233","139","281198.201354","288064.357184","288830.854434","289597.293869","290347.473267","291131.233511","291880.661618","292647.793601","281947.215478","282714.340659","283480.951066","284247.680196","285013.987305","285763.540318","286530.892122","287297.828398","291890.218162","Mapping"
"Mixed","Both","done","39","M_bluff.wav","space","0.350293237716","139","295781.09579","288064.357184","288830.854434","289597.293869","290347.473267","291131.233511","291880.661618","292647.793601","281947.215478","282714.340659","283480.951066","284247.680196","285013.987305","285763.540318","286530.892122","287297.828398","292657.414762","Mapping"
"Mixed","Both","done","39","F_cling.wav","None","719.70728715","139","295781.09579","288064.357184","288830.854434","289597.293869","290347.473267","291131.233511","291880.661618","292647.793601","296547.123097","282714.340659","283480.951066","284247.680196","285013.987305","285763.540318","286530.892122","287297.828398","295791.136499","Mapping"
"Mixed","Both","done","39","M_jolt.wav","None","722.603003378","139","295781.09579","288064.357184","288830.854434","289597.293869","290347.473267","291131.233511","291880.661618","292647.793601","296547.123097","297313.57799","283480.951066","284247.680196","285013.987305","285763.540318","286530.892122","287297.828398","296556.042125","Mapping"
"Mixed","Both","done","39","F_depth.wav","None","722.959789215","139","295781.09579","288064.357184","288830.854434","289597.293869","290347.473267","291131.233511","291880.661618","292647.793601","296547.123097","297313.57799","298080.581048","284247.680196","285013.987305","285763.540318","286530.892122","287297.828398","297322.415397","Mapping"
"Mixed","Both","done","39","M_tile.wav","None","722.764700884","139","295781.09579","288064.357184","288830.854434","289597.293869","290347.473267","291131.233511","291880.661618","292647.793601","296547.123097","297313.57799","298080.581048","298847.839482","285013.987305","285763.540318","286530.892122","287297.828398","298089.520482","Mapping"
"Mixed","Both","done","39","F_done.wav","None","718.511714367","139","295781.09579","288064.357184","288830.854434","289597.293869","290347.473267","291131.233511","291880.661618","292647.793601","296547.123097","297313.57799","298080.581048","298847.839482","299596.873393","285763.540318","286530.892122","287297.828398","298857.699943","Mapping"
"Mixed","Both","done","39","M_cad.wav","space","532.102535362","139","295781.09579","288064.357184","288830.854434","289597.293869","290347.473267","291131.233511","291880.661618","292647.793601","296547.123097","297313.57799","298080.581048","298847.839482","299596.873393","300363.597576","286530.892122","287297.828398","299605.530243","Mapping"
"Mixed","Both","done","39","F_done.wav","None","730.245764833","139","295781.09579","288064.357184","288830.854434","289597.293869","290347.473267","291131.233511","291880.661618","292647.793601","296547.123097","297313.57799","298080.581048","298847.839482","299596.873393","300363.597576","301130.636498","287297.828398","300372.649549","Mapping"
"Mixed","Both","done","39","F_depth.wav","space","533.551939414","139","295781.09579","288064.357184","288830.854434","289597.293869","290347.473267","291131.233511","291880.661618","292647.793601","296547.123097","297313.57799","298080.581048","298847.839482","299596.873393","300363.597576","301130.636498","301897.015025","301140.033817","Mapping"
"Mixed","Both","done","39","F_gnash.wav","None","723.592666676","139","295781.09579","302663.73117","288830.854434","289597.293869","290347.473267","291131.233511","291880.661618","292647.793601","296547.123097","297313.57799","298080.581048","298847.839482","299596.873393","300363.597576","301130.636498","301897.015025","301906.181083","Mapping"
"Mixed","Both","done","39","M_done.wav","None","721.090528066","139","295781.09579","302663.73117","303413.72661","289597.293869","290347.473267","291131.233511","291880.661618","292647.793601","296547.123097","297313.57799","298080.581048","298847.839482","299596.873393","300363.597576","301130.636498","301897.015025","302672.602586","Mapping"
"Mixed","Both","done","39","M_jaw.wav","space","586.440652725","139","295781.09579","302663.73117","303413.72661","304180.556221","290347.473267","291131.233511","291880.661618","292647.793601","296547.123097","297313.57799","298080.581048","298847.839482","299596.873393","300363.597576","301130.636498","301897.015025","303423.118673","Mapping"
"Mixed","Both","done","39","F_gnash.wav","None","731.0220988","139","295781.09579","302663.73117","303413.72661","304180.556221","304947.604727","291131.233511","291880.661618","292647.793601","296547.123097","297313.57799","298080.581048","298847.839482","299596.873393","300363.597576","301130.636498","301897.015025","304189.505239","Mapping"
"Mixed","Both","done","39","M_done.wav","None","727.227616124","139","295781.09579","302663.73117","303413.72661","304180.556221","304947.604727","305713.440656","291880.661618","292647.793601","296547.123097","297313.57799","298080.581048","298847.839482","299596.873393","300363.597576","301130.636498","301897.015025","304957.19528","Mapping"
"Mixed","Both","done","39","M_reek.wav","space","559.284424759","139","295781.09579","302663.73117","303413.72661","304180.556221","304947.604727","305713.440656","306480.931279","292647.793601","296547.123097","297313.57799","298080.581048","298847.839482","299596.873393","300363.597576","301130.636498","301897.015025","305722.194276","Mapping"
"Mixed","Both","done","39","F_lash.wav","None","720.50433571","139","295781.09579","302663.73117","303413.72661","304180.556221","304947.604727","305713.440656","306480.931279","307230.637951","296547.123097","297313.57799","298080.581048","298847.839482","299596.873393","300363.597576","301130.636498","301897.015025","306490.990538","Mapping"
"Mixed","Both","tile","33","M_priest.wav","None","735.554886982","139","310364.17202","302663.73117","303413.72661","304180.556221","304947.604727","305713.440656","306480.931279","307230.637951","296547.123097","297313.57799","298080.581048","298847.839482","299596.873393","300363.597576","301130.636498","301897.015025","307240.419573","Mapping"
"Mixed","Both","tile","33","M_tile.wav","None","719.351428794","139","310364.17202","302663.73117","303413.72661","304180.556221","304947.604727","305713.440656","306480.931279","307230.637951","311113.588379","297313.57799","298080.581048","298847.839482","299596.873393","300363.597576","301130.636498","301897.015025","310374.293114","Mapping"
"Mixed","Both","tile","33","F_jaw.wav","space","526.458578766","139","310364.17202","302663.73117","303413.72661","304180.556221","304947.604727","305713.440656","306480.931279","307230.637951","311113.588379","311880.049146","298080.581048","298847.839482","299596.873393","300363.597576","301130.636498","301897.015025","311122.977041","Mapping"
"Mixed","Both","tile","33","F_tile.wav","None","731.784210657","139","310364.17202","302663.73117","303413.72661","304180.556221","304947.604727","305713.440656","306480.931279","307230.637951","311113.588379","311880.049146","312647.147429","298847.839482","299596.873393","300363.597576","301130.636498","301897.015025","311888.991672","Mapping"
"Mixed","Both","tile","33","F_depth.wav","space","544.471936766","139","310364.17202","302663.73117","303413.72661","304180.556221","304947.604727","305713.440656","306480.931279","307230.637951","311113.588379","311880.049146","312647.147429","313413.784425","299596.873393","300363.597576","301130.636498","301897.015025","312656.896897","Mapping"
"Mixed","Both","tile","33","F_romp.wav","None","725.062166923","139","310364.17202","302663.73117","303413.72661","304180.556221","304947.604727","305713.440656","306480.931279","307230.637951","311113.588379","311880.049146","312647.147429","313413.784425","314180.224478","300363.597576","301130.636498","301897.015025","313423.064568","Mapping"
"Mixed","Both","tile","33","M_greet.wav","None","723.208982847","139","310364.17202","302663.73117","303413.72661","304180.556221","304947.604727","305713.440656","306480.931279","307230.637951","311113.588379","311880.049146","312647.147429","313413.784425","314180.224478","314947.415204","301130.636498","301897.015025","314189.072706","Mapping"
"Mixed","Both","tile","33","M_done.wav","None","718.877775478","139","310364.17202","302663.73117","303413.72661","304180.556221","304947.604727","305713.440656","306480.931279","307230.637951","311113.588379","311880.049146","312647.147429","313413.784425","314180.224478","314947.415204","315696.997279","301897.015025","314957.518057","Mapping"
"Mixed","Both","tile","33","M_tile.wav","None","733.960480895","139","310364.17202","302663.73117","303413.72661","304180.556221","304947.604727","305713.440656","306480.931279","307230.637951","311113.588379","311880.049146","312647.147429","313413.784425","314180.224478","314947.415204","315696.997279","316463.75207","315706.37543","Mapping"
"Mixed","Both","tile","33","M_reek.wav","space","544.277776033","139","310364.17202","317230.318266","303413.72661","304180.556221","304947.604727","305713.440656","306480.931279","307230.637951","311113.588379","311880.049146","312647.147429","313413.784425","314180.224478","314947.415204","315696.997279","316463.75207","316473.024175","Mapping"
"Mixed","Both","tile","33","M_gnash.wav","None","727.955409908","139","310364.17202","317230.318266","317996.516236","304180.556221","304947.604727","305713.440656","306480.931279","307230.637951","311113.588379","311880.049146","312647.147429","313413.784425","314180.224478","314947.415204","315696.997279","316463.75207","317239.744338","Mapping"
"Mixed","Both","tile","33","F_priest.wav","None","726.697384031","139","310364.17202","317230.318266","317996.516236","318764.384979","304947.604727","305713.440656","306480.931279","307230.637951","311113.588379","311880.049146","312647.147429","313413.784425","314180.224478","314947.415204","315696.997279","316463.75207","318005.558625","Mapping"
"Mixed","Both","tile","33","M_park.wav","None","721.237385296","139","310364.17202","317230.318266","317996.516236","318764.384979","319530.654368","305713.440656","306480.931279","307230.637951","311113.588379","311880.049146","312647.147429","313413.784425","314180.224478","314947.415204","315696.997279","316463.75207","318774.917273","Mapping"
"Mixed","Both","tile","33","F_tile.wav","None","720.001929207","139","310364.17202","317230.318266","317996.516236","318764.384979","319530.654368","320279.972409","306480.931279","307230.637951","311113.588379","311880.049146","312647.147429","313413.784425","314180.224478","314947.415204","315696.997279","316463.75207","319540.21153","Mapping"
"Mixed","Both","tile","33","F_jaw.wav","space","567.946839612","139","310364.17202","317230.318266","317996.516236","318764.384979","319530.654368","320279.972409","321047.256814","307230.637951","311113.588379","311880.049146","312647.147429","313413.784425","314180.224478","314947.415204","315696.997279","316463.75207","320289.277595","Mapping"
"Mixed","Both","tile","33","F_dime.wav","None","730.491248309","139","310364.17202","317230.318266","317996.516236","318764.384979","319530.654368","320279.972409","321047.256814","321813.07141","311113.588379","311880.049146","312647.147429","313413.784425","314180.224478","314947.415204","315696.997279","316463.75207","321056.797281","Mapping"
"Mixed","Both","ball","12","F_reek.wav","None","729.405123042","139","324947.271129","317230.318266","317996.516236","318764.384979","319530.654368","320279.972409","321047.256814","321813.07141","311113.588379","311880.049146","312647.147429","313413.784425","314180.224478","314947.415204","315696.997279","316463.75207","321821.964777","Mapping"
"Mixed","Both","ball","12","F_ball.wav","None","719.280628138","139","324947.271129","317230.318266","317996.516236","318764.384979","319530.654368","320279.972409","321047.256814","321813.07141","325696.347088","311880.049146","312647.147429","313413.784425","314180.224478","314947.415204","315696.997279","316463.75207","324956.969892","Mapping"
"Mixed","Both","ball","12","F_dime.wav","space","495.956478291","139","324947.271129","317230.318266","317996.516236","318764.384979","319530.654368","320279.972409","321047.256814","321813.07141","325696.347088","326463.612942","312647.147429","313413.784425","314180.224478","314947.415204","315696.997279","316463.75207","325705.231489","Mapping"
"Mixed","Both","ball","12","M_jolt.wav","None","730.269571301","139","324947.271129","317230.318266","317996.516236","318764.384979","319530.654368","320279.972409","321047.256814","321813.07141","325696.347088","326463.612942","327229.80442","313413.784425","314180.224478","314947.415204","315696.997279","316463.75207","326473.081681","Mapping"
"Mixed","Both","ball","12","M_jaw.wav","None","728.302302072","139","324947.271129","317230.318266","317996.516236","318764.384979","319530.654368","320279.972409","321047.256814","321813.07141","325696.347088","326463.612942","327229.80442","327996.81026","314180.224478","314947.415204","315696.997279","316463.75207","327239.065703","Mapping"
"Mixed","Both","ball","12","M_ball.wav","None","724.981782027","139","324947.271129","317230.318266","317996.516236","318764.384979","319530.654368","320279.972409","321047.256814","321813.07141","325696.347088","326463.612942","327229.80442","327996.81026","328764.071477","314947.415204","315696.997279","316463.75207","328006.700402","Mapping"
"Mixed","Both","ball","12","M_bluff.wav","space","459.036560613","139","324947.271129","317230.318266","317996.516236","318764.384979","319530.654368","320279.972409","321047.256814","321813.07141","325696.347088","326463.612942","327229.80442","327996.81026","328764.071477","329513.186082","315696.997279","316463.75207","328773.940904","Mapping"
"Mixed","Both","ball","12","F_knife.wav","None","736.436958192","139","324947.271129","317230.318266","317996.516236","318764.384979","319530.654368","320279.972409","321047.256814","321813.07141","325696.347088","326463.612942","327229.80442","327996.81026","328764.071477","329513.186082","330280.154512","316463.75207","329522.118096","Mapping"
"Mixed","Both","ball","12","F_ball.wav","None","733.010082506","139","324947.271129","317230.318266","317996.516236","318764.384979","319530.654368","320279.972409","321047.256814","321813.07141","325696.347088","326463.612942","327229.80442","327996.81026","328764.071477","329513.186082","330280.154512","331046.468732","330289.566672","Mapping"
"Mixed","Both","ball","12","F_jaw.wav","space","617.384870886","139","324947.271129","331812.908785","317996.516236","318764.384979","319530.654368","320279.972409","321047.256814","321813.07141","325696.347088","326463.612942","327229.80442","327996.81026","328764.071477","329513.186082","330280.154512","331046.468732","331055.704045","Mapping"
"Mixed","Both","ball","12","F_priest.wav","None","727.713636355","139","324947.271129","331812.908785","332579.645335","318764.384979","319530.654368","320279.972409","321047.256814","321813.07141","325696.347088","326463.612942","327229.80442","327996.81026","328764.071477","329513.186082","330280.154512","331046.468732","331821.886247","Mapping"
"Mixed","Both","ball","12","F_greet.wav","None","725.285699125","139","324947.271129","331812.908785","332579.645335","333347.518715","319530.654368","320279.972409","321047.256814","321813.07141","325696.347088","326463.612942","327229.80442","327996.81026","328764.071477","329513.186082","330280.154512","331046.468732","332588.884358","Mapping"
"Mixed","Both","ball","12","M_reek.wav","None","721.25315317","139","324947.271129","331812.908785","332579.645335","333347.518715","334113.820258","320279.972409","321047.256814","321813.07141","325696.347088","326463.612942","327229.80442","327996.81026","328764.071477","329513.186082","330280.154512","331046.468732","333357.253342","Mapping"
"Mixed","Both","ball","12","M_cling.wav","None","718.902818509","139","324947.271129","331812.908785","332579.645335","333347.518715","334113.820258","334862.883232","321047.256814","321813.07141","325696.347088","326463.612942","327229.80442","327996.81026","328764.071477","329513.186082","330280.154512","331046.468732","334123.739771","Mapping"
"Mixed","Both","ball","12","M_ball.wav","None","734.84193359","139","324947.271129","331812.908785","332579.645335","333347.518715","334113.820258","334862.883232","335629.708824","321813.07141","325696.347088","326463.612942","327229.80442","327996.81026","328764.071477","329513.186082","330280.154512","331046.468732","334871.932422","Mapping"
"Mixed","Both","ball","12","M_tile.wav","space","482.022969751","139","324947.271129","331812.908785","332579.645335","333347.518715","334113.820258","334862.883232","335629.708824","336396.907588","325696.347088","326463.612942","327229.80442","327996.81026","328764.071477","329513.186082","330280.154512","331046.468732","335639.000097","Mapping"
"Mixed","Both","cave","18","F_jolt.wav","None","727.29810758","139","339530.324171","331812.908785","332579.645335","333347.518715","334113.820258","334862.883232","335629.708824","336396.907588","325696.347088","326463.612942","327229.80442","327996.81026","328764.071477","329513.186082","330280.154512","331046.468732","336406.495358","Mapping"
"Mixed","Both","cave","18","M_tile.wav","None","720.16579099","139","339530.324171","331812.908785","332579.645335","333347.518715","334113.820258","334862.883232","335629.708824","336396.907588","340279.482679","326463.612942","327229.80442","327996.81026","328764.071477","329513.186082","330280.154512","331046.468732","339539.821972","Mapping"
"Mixed","Both","cave","18","F_dime.wav","None","735.316823702","139","339530.324171","331812.908785","332579.645335","333347.518715","334113.820258","334862.883232","335629.708824","336396.907588","340279.482679","341046.624555","327229.80442","327996.81026","328764.071477","329513.186082","330280.154512","331046.468732","340288.784773","Mapping"
"Mixed","Both","cave","18","M_cave.wav","None","732.043916243","139","339530.324171","331812.908785","332579.645335","333347.518715","334113.820258","334862.883232","335629.708824","336396.907588","340279.482679","341046.624555","341813.333589","327996.81026","328764.071477","329513.186082","330280.154512","331046.468732","341056.014145","Mapping"
"Mixed","Both","cave","18","F_priest.wav","space","601.730195107","139","339530.324171","331812.908785","332579.645335","333347.518715","334113.820258","334862.883232","335629.708824","336396.907588","340279.482679","341046.624555","341813.333589","342579.850935","328764.071477","329513.186082","330280.154512","331046.468732","341823.139326","Mapping"
"Mixed","Both","cave","18","M_bluff.wav","None","726.107481634","139","339530.324171","331812.908785","332579.645335","333347.518715","334113.820258","334862.883232","335629.708824","336396.907588","340279.482679","341046.624555","341813.333589","342579.850935","343346.987246","329513.186082","330280.154512","331046.468732","342588.833653","Mapping"
"Mixed","Both","cave","18","F_gnash.wav","None","722.106471192","139","339530.324171","331812.908785","332579.645335","333347.518715","334113.820258","334862.883232","335629.708824","336396.907588","340279.482679","341046.624555","341813.333589","342579.850935","343346.987246","344113.831698","330280.154512","331046.468732","343356.885117","Mapping"
"Mixed","Both","cave","18","F_cave.wav","None","719.15355802","139","339530.324171","331812.908785","332579.645335","333347.518715","334113.820258","334862.883232","335629.708824","336396.907588","340279.482679","341046.624555","341813.333589","342579.850935","343346.987246","344113.831698","344863.055441","331046.468732","344123.879208","Mapping"
"Mixed","Both","cave","18","F_reek.wav","space","512.312358827","139","339530.324171","331812.908785","332579.645335","333347.518715","334113.820258","334862.883232","335629.708824","336396.907588","340279.482679","341046.624555","341813.333589","342579.850935","343346.987246","344113.831698","344863.055441","345629.78519","344872.488934","Mapping"
"Mixed","Both","cave","18","M_jolt.wav","None","730.702722911","139","339530.324171","346396.445065","332579.645335","333347.518715","334113.820258","334862.883232","335629.708824","336396.907588","340279.482679","341046.624555","341813.333589","342579.850935","343346.987246","344113.831698","344863.055441","345629.78519","345639.416244","Mapping"
"Mixed","Both","cave","18","M_greet.wav","None","728.301992989","139","339530.324171","346396.445065","347163.198001","333347.518715","334113.820258","334862.883232","335629.708824","336396.907588","340279.482679","341046.624555","341813.333589","342579.850935","343346.987246","344113.831698","344863.055441","345629.78519","346405.850732","Mapping"
"Mixed","Both","cave","18","F_cave.wav","None","725.551278912","139","339530.324171","346396.445065","347163.198001","347929.685357","334113.820258","334862.883232","335629.708824","336396.907588","340279.482679","341046.624555","341813.333589","342579.850935","343346.987246","344113.831698","344863.055441","345629.78519","347172.708787","Mapping"
"Mixed","Both","cave","18","M_depth.wav","space","510.014892789","139","339530.324171","346396.445065","347163.198001","347929.685357","348697.127132","334862.883232","335629.708824","336396.907588","340279.482679","341046.624555","341813.333589","342579.850935","343346.987246","344113.831698","344863.055441","345629.78519","347938.726509","Mapping"
"Mixed","Both","cave","18","M_cave.wav","None","718.99247868","139","339530.324171","346396.445065","347163.198001","347929.685357","348697.127132","349445.882787","335629.708824","336396.907588","340279.482679","341046.624555","341813.333589","342579.850935","343346.987246","344113.831698","344863.055441","345629.78519","348706.762205","Mapping"
"Mixed","Both","cave","18","M_jaw.wav","space","713.875043904","139","339530.324171","346396.445065","347163.198001","347929.685357","348697.127132","349445.882787","350213.047233","336396.907588","340279.482679","341046.624555","341813.333589","342579.850935","343346.987246","344113.831698","344863.055441","345629.78519","349454.853756","Mapping"
"Mixed","Both","cave","18","F_dime.wav","None","730.259368545","139","339530.324171","346396.445065","347163.198001","347929.685357","348697.127132","349445.882787","350213.047233","350979.78502","340279.482679","341046.624555","341813.333589","342579.850935","343346.987246","344113.831698","344863.055441","345629.78519","350222.457847","Mapping"
"Mixed","Both","ball","10","M_cling.wav","None","727.469698642","139","354113.534892","346396.445065","347163.198001","347929.685357","348697.127132","349445.882787","350213.047233","350979.78502","340279.482679","341046.624555","341813.333589","342579.850935","343346.987246","344113.831698","344863.055441","345629.78519","350989.670523","Mapping"
"Mixed","Both","ball","10","M_ball.wav","None","719.04225566","139","354113.534892","346396.445065","347163.198001","347929.685357","348697.127132","349445.882787","350213.047233","350979.78502","354862.735138","341046.624555","341813.333589","342579.850935","343346.987246","344113.831698","344863.055441","345629.78519","354123.687521","Mapping"
"Mixed","Both","ball","10","M_jolt.wav","space","488.097913912","139","354113.534892","346396.445065","347163.198001","347929.685357","348697.127132","349445.882787","350213.047233","350979.78502","354862.735138","355629.260213","341813.333589","342579.850935","343346.987246","344113.831698","344863.055441","345629.78519","354872.534382","Mapping"
"Mixed","Both","ball","10","F_depth.wav","None","731.855320628","139","354113.534892","346396.445065","347163.198001","347929.685357","348697.127132","349445.882787","350213.047233","350979.78502","354862.735138","355629.260213","356396.306555","342579.850935","343346.987246","344113.831698","344863.055441","345629.78519","355638.21356","Mapping"
"Mixed","Both","ball","10","F_jaw.wav","None","728.527380154","139","354113.534892","346396.445065","347163.198001","347929.685357","348697.127132","349445.882787","350213.047233","350979.78502","354862.735138","355629.260213","356396.306555","357163.063201","343346.987246","344113.831698","344863.055441","345629.78519","356405.633074","Mapping"
"Mixed","Both","ball","10","F_romp.wav","None","725.855814526","139","354113.534892","346396.445065","347163.198001","347929.685357","348697.127132","349445.882787","350213.047233","350979.78502","354862.735138","355629.260213","356396.306555","357163.063201","357929.990821","344113.831698","344863.055441","345629.78519","357172.444753","Mapping"
"Mixed","Both","ball","10","M_greet.wav","None","722.557554836","139","354113.534892","346396.445065","347163.198001","347929.685357","348697.127132","349445.882787","350213.047233","350979.78502","354862.735138","355629.260213","356396.306555","357163.063201","357929.990821","358696.023383","344863.055441","345629.78519","357939.967531","Mapping"
"Mixed","Both","ball","10","F_cad.wav","None","721.765762311","139","354113.534892","346396.445065","347163.198001","347929.685357","348697.127132","349445.882787","350213.047233","350979.78502","354862.735138","355629.260213","356396.306555","357163.063201","357929.990821","358696.023383","359446.473617","345629.78519","358704.979513","Mapping"
"Mixed","Both","ball","10","F_ball.wav","None","735.519332113","139","354113.534892","346396.445065","347163.198001","347929.685357","348697.127132","349445.882787","350213.047233","350979.78502","354862.735138","355629.260213","356396.306555","357163.063201","357929.990821","358696.023383","359446.473617","360212.456712","359455.494673","Mapping"
"Mixed","Both","ball","10","M_dime.wav","space","467.07537293","139","354113.534892","360979.456368","347163.198001","347929.685357","348697.127132","349445.882787","350213.047233","350979.78502","354862.735138","355629.260213","356396.306555","357163.063201","357929.990821","358696.023383","359446.473617","360212.456712","360221.452415","Mapping"
"Mixed","Both","ball","10","M_ball.wav","None","730.810315115","139","354113.534892","360979.456368","361746.202503","347929.685357","348697.127132","349445.882787","350213.047233","350979.78502","354862.735138","355629.260213","356396.306555","357163.063201","357929.990821","358696.023383","359446.473617","360212.456712","360988.731874","Mapping"
"Mixed","Both","ball","10","F_cling.wav","space","548.852921114","139","354113.534892","360979.456368","361746.202503","362513.234623","348697.127132","349445.882787","350213.047233","350979.78502","354862.735138","355629.260213","356396.306555","357163.063201","357929.990821","358696.023383","359446.473617","360212.456712","361755.678661","Mapping"
"Mixed","Both","ball","10","F_ball.wav","None","723.660066607","139","354113.534892","360979.456368","361746.202503","362513.234623","363279.84503","349445.882787","350213.047233","350979.78502","354862.735138","355629.260213","356396.306555","357163.063201","357929.990821","358696.023383","359446.473617","360212.456712","362523.101576","Mapping"
"Mixed","Both","ball","10","F_jaw.wav","space","550.568214036","139","354113.534892","360979.456368","361746.202503","362513.234623","363279.84503","364029.401753","350213.047233","350979.78502","354862.735138","355629.260213","356396.306555","357163.063201","357929.990821","358696.023383","359446.473617","360212.456712","363289.893468","Mapping"
"Mixed","Both","ball","10","M_bluff.wav","None","735.519332229","139","354113.534892","360979.456368","361746.202503","362513.234623","363279.84503","364029.401753","364795.608999","350979.78502","354862.735138","355629.260213","356396.306555","357163.063201","357929.990821","358696.023383","359446.473617","360212.456712","364038.493609","Mapping"
"Mixed","Both","ball","10","M_bluff.wav","None","733.98181377","139","354113.534892","360979.456368","361746.202503","362513.234623","363279.84503","364029.401753","364795.608999","365562.822294","354862.735138","355629.260213","356396.306555","357163.063201","357929.990821","358696.023383","359446.473617","360212.456712","364804.187009","Mapping"
"Mixed","Both","done","47","F_bluff.wav","None","730.063043418","139","368696.857224","360979.456368","361746.202503","362513.234623","363279.84503","364029.401753","364795.608999","365562.822294","354862.735138","355629.260213","356396.306555","357163.063201","357929.990821","358696.023383","359446.473617","360212.456712","365572.466333","Mapping"
"Mixed","Both","done","47","M_jaw.wav","None","719.882279169","139","368696.857224","360979.456368","361746.202503","362513.234623","363279.84503","364029.401753","364795.608999","365562.822294","369445.988833","355629.260213","356396.306555","357163.063201","357929.990821","358696.023383","359446.473617","360212.456712","368706.739945","Mapping"
"Mixed","Both","done","47","F_cling.wav","None","735.247568926","139","368696.857224","360979.456368","361746.202503","362513.234623","363279.84503","364029.401753","364795.608999","365562.822294","369445.988833","370212.80144","356396.306555","357163.063201","357929.990821","358696.023383","359446.473617","360212.456712","369455.40594","Mapping"
"Mixed","Both","done","47","F_done.wav","None","732.663499191","139","368696.857224","360979.456368","361746.202503","362513.234623","363279.84503","364029.401753","364795.608999","365562.822294","369445.988833","370212.80144","370979.412466","357163.063201","357929.990821","358696.023383","359446.473617","360212.456712","370222.180827","Mapping"
"Mixed","Both","done","47","M_knife.wav","space","555.043496075","139","368696.857224","360979.456368","361746.202503","362513.234623","363279.84503","364029.401753","364795.608999","365562.822294","369445.988833","370212.80144","370979.412466","371746.705837","357929.990821","358696.023383","359446.473617","360212.456712","370989.36135","Mapping"
"Mixed","Both","done","47","F_gnash.wav","None","725.745748845","139","368696.857224","360979.456368","361746.202503","362513.234623","363279.84503","364029.401753","364795.608999","365562.822294","369445.988833","370212.80144","370979.412466","371746.705837","372513.0114","358696.023383","359446.473617","360212.456712","371756.275984","Mapping"
"Mixed","Both","done","47","F_done.wav","None","723.174046259","139","368696.857224","360979.456368","361746.202503","362513.234623","363279.84503","364029.401753","364795.608999","365562.822294","369445.988833","370212.80144","370979.412466","371746.705837","372513.0114","373279.547605","359446.473617","360212.456712","372522.885773","Mapping"
"Mixed","Both","done","47","F_tile.wav","space","510.993426084","139","368696.857224","360979.456368","361746.202503","362513.234623","363279.84503","364029.401753","364795.608999","365562.822294","369445.988833","370212.80144","370979.412466","371746.705837","372513.0114","373279.547605","374029.073102","360212.456712","373289.299237","Mapping"
"Mixed","Both","done","47","M_done.wav","None","734.677144326","139","368696.857224","360979.456368","361746.202503","362513.234623","363279.84503","364029.401753","364795.608999","365562.822294","369445.988833","370212.80144","370979.412466","371746.705837","372513.0114","373279.547605","374029.073102","374795.547782","374038.835246","Mapping"
"Mixed","Both","done","47","M_depth.wav","space","531.680823187","139","368696.857224","375562.732015","361746.202503","362513.234623","363279.84503","364029.401753","364795.608999","365562.822294","369445.988833","370212.80144","370979.412466","371746.705837","372513.0114","373279.547605","374029.073102","374795.547782","374804.581514","Mapping"
"Mixed","Both","done","47","M_done.wav","None","728.606837802","139","368696.857224","375562.732015","376329.273786","362513.234623","363279.84503","364029.401753","364795.608999","365562.822294","369445.988833","370212.80144","370979.412466","371746.705837","372513.0114","373279.547605","374029.073102","374795.547782","375572.188696","Mapping"
"Mixed","Both","done","47","M_gnash.wav","space","717.683439376","139","368696.857224","375562.732015","376329.273786","377096.310543","363279.84503","364029.401753","364795.608999","365562.822294","369445.988833","370212.80144","370979.412466","371746.705837","372513.0114","373279.547605","374029.073102","374795.547782","376338.545272","Mapping"
"Mixed","Both","done","47","F_cling.wav","None","722.243744181","139","368696.857224","375562.732015","376329.273786","377096.310543","377862.99608","364029.401753","364795.608999","365562.822294","369445.988833","370212.80144","370979.412466","371746.705837","372513.0114","373279.547605","374029.073102","374795.547782","377106.155855","Mapping"
"Mixed","Both","done","47","F_gnash.wav","None","719.933602028","139","368696.857224","375562.732015","376329.273786","377096.310543","377862.99608","378612.15768","364795.608999","365562.822294","369445.988833","370212.80144","370979.412466","371746.705837","372513.0114","373279.547605","374029.073102","374795.547782","377872.717413","Mapping"
"Mixed","Both","done","47","M_cling.wav","None","735.711637884","139","368696.857224","375562.732015","376329.273786","377096.310543","377862.99608","378612.15768","379379.171867","365562.822294","369445.988833","370212.80144","370979.412466","371746.705837","372513.0114","373279.547605","374029.073102","374795.547782","378621.26283","Mapping"
"Mixed","Both","done","47","M_greet.wav","None","732.799844583","139","368696.857224","375562.732015","376329.273786","377096.310543","377862.99608","378612.15768","379379.171867","380145.586259","369445.988833","370212.80144","370979.412466","371746.705837","372513.0114","373279.547605","374029.073102","374795.547782","379388.42573","Mapping"
"Mixed","Both","ball","7","F_reek.wav","None","731.080841739","139","383279.556571","375562.732015","376329.273786","377096.310543","377862.99608","378612.15768","379379.171867","380145.586259","369445.988833","370212.80144","370979.412466","371746.705837","372513.0114","373279.547605","374029.073102","374795.547782","380154.506833","Mapping"
"Mixed","Both","ball","7","M_ball.wav","None","720.241847681","139","383279.556571","375562.732015","376329.273786","377096.310543","377862.99608","378612.15768","379379.171867","380145.586259","384028.853898","370212.80144","370979.412466","371746.705837","372513.0114","373279.547605","374029.073102","374795.547782","383289.086217","Mapping"
"Mixed","Both","ball","7","M_gnash.wav","space","513.98715016","139","383279.556571","375562.732015","376329.273786","377096.310543","377862.99608","378612.15768","379379.171867","380145.586259","384028.853898","384795.535724","370979.412466","371746.705837","372513.0114","373279.547605","374029.073102","374795.547782","384038.130022","Mapping"
"Mixed","Both","ball","7","M_done.wav","None","731.63147911","139","383279.556571","375562.732015","376329.273786","377096.310543","377862.99608","378612.15768","379379.171867","380145.586259","384028.853898","384795.535724","385562.469218","371746.705837","372513.0114","373279.547605","374029.073102","374795.547782","384804.97942","Mapping"
"Mixed","Both","ball","7","F_ball.wav","None","729.268468451","139","383279.556571","375562.732015","376329.273786","377096.310543","377862.99608","378612.15768","379379.171867","380145.586259","384028.853898","384795.535724","385562.469218","386329.097248","372513.0114","373279.547605","374029.073102","374795.547782","385571.766056","Mapping"
"Mixed","Both","ball","7","F_dime.wav","space","501.969897072","139","383279.556571","375562.732015","376329.273786","377096.310543","377862.99608","378612.15768","379379.171867","380145.586259","384028.853898","384795.535724","385562.469218","386329.097248","387096.255511","373279.547605","374029.073102","374795.547782","386338.100063","Mapping"
"Mixed","Both","ball","7","M_ball.wav","None","722.423373722","139","383279.556571","375562.732015","376329.273786","377096.310543","377862.99608","378612.15768","379379.171867","380145.586259","384028.853898","384795.535724","385562.469218","386329.097248","387096.255511","387862.765437","374029.073102","374795.547782","387106.083508","Mapping"
"Mixed","Both","ball","7","M_tile.wav","space","518.97411386","139","383279.556571","375562.732015","376329.273786","377096.310543","377862.99608","378612.15768","379379.171867","380145.586259","384028.853898","384795.535724","385562.469218","386329.097248","387096.255511","387862.765437","388611.793164","374795.547782","387873.065851","Mapping"
"Mixed","Both","ball","7","F_park.wav","None","735.328263137","139","383279.556571","375562.732015","376329.273786","377096.310543","377862.99608","378612.15768","379379.171867","380145.586259","384028.853898","384795.535724","385562.469218","386329.097248","387096.255511","387862.765437","388611.793164","389379.038304","388620.724251","Mapping"
"Mixed","Both","ball","7","F_cling.wav","None","732.368857251","139","383279.556571","390145.6719","376329.273786","377096.310543","377862.99608","378612.15768","379379.171867","380145.586259","384028.853898","384795.535724","385562.469218","386329.097248","387096.255511","387862.765437","388611.793164","389379.038304","389388.051321","Mapping"
"Mixed","Both","ball","7","M_romp.wav","None","729.448098107","139","383279.556571","390145.6719","390912.304259","377096.310543","377862.99608","378612.15768","379379.171867","380145.586259","384028.853898","384795.535724","385562.469218","386329.097248","387096.255511","387862.765437","388611.793164","389379.038304","390155.338818","Mapping"
"Mixed","Both","ball","7","F_ball.wav","None","727.512364625","139","383279.556571","390145.6719","390912.304259","391678.775229","377862.99608","378612.15768","379379.171867","380145.586259","384028.853898","384795.535724","385562.469218","386329.097248","387096.255511","387862.765437","388611.793164","389379.038304","390921.769287","Mapping"
"Mixed","Both","ball","7","F_reek.wav","space","503.619026858","139","383279.556571","390145.6719","390912.304259","391678.775229","392445.229195","378612.15768","379379.171867","380145.586259","384028.853898","384795.535724","385562.469218","386329.097248","387096.255511","387862.765437","388611.793164","389379.038304","391688.346304","Mapping"
"Mixed","Both","ball","7","M_gnash.wav","None","724.226471852","139","383279.556571","390145.6719","390912.304259","391678.775229","392445.229195","393213.273547","379379.171867","380145.586259","384028.853898","384795.535724","385562.469218","386329.097248","387096.255511","387862.765437","388611.793164","389379.038304","392454.110195","Mapping"
"Mixed","Both","ball","7","F_reek.wav","None","720.237210044","139","383279.556571","390145.6719","390912.304259","391678.775229","392445.229195","393213.273547","393962.278396","380145.586259","384028.853898","384795.535724","385562.469218","386329.097248","387096.255511","387862.765437","388611.793164","389379.038304","393222.902747","Mapping"
"Mixed","Both","ball","7","M_bluff.wav","None","735.607137321","139","383279.556571","390145.6719","390912.304259","391678.775229","392445.229195","393213.273547","393962.278396","394728.910137","384028.853898","384795.535724","385562.469218","386329.097248","387096.255511","387862.765437","388611.793164","389379.038304","393971.813298","Mapping"
"Mixed","Both","done","44","F_greet.wav","None","733.531657606","139","397862.421018","390145.6719","390912.304259","391678.775229","392445.229195","393213.273547","393962.278396","394728.910137","384028.853898","384795.535724","385562.469218","386329.097248","387096.255511","387862.765437","388611.793164","389379.038304","394738.228617","Mapping"
"Mixed","Both","done","44","F_ball.wav","None","719.570632675","139","397862.421018","390145.6719","390912.304259","391678.775229","392445.229195","393213.273547","393962.278396","394728.910137","398611.569323","384795.535724","385562.469218","386329.097248","387096.255511","387862.765437","388611.793164","389379.038304","397872.400201","Mapping"
"Mixed","Both","done","44","M_done.wav","None","735.874262988","139","397862.421018","390145.6719","390912.304259","391678.775229","392445.229195","393213.273547","393962.278396","394728.910137","398611.569323","399378.846617","385562.469218","386329.097248","387096.255511","387862.765437","388611.793164","389379.038304","398620.723014","Mapping"
"Mixed","Both","done","44","M_bluff.wav","space","515.47829248","139","397862.421018","390145.6719","390912.304259","391678.775229","392445.229195","393213.273547","393962.278396","394728.910137","398611.569323","399378.846617","400145.45115","386329.097248","387096.255511","387862.765437","388611.793164","389379.038304","399388.40347","Mapping"
"Mixed","Both","done","44","F_greet.wav","None","728.986502392","139","397862.421018","390145.6719","390912.304259","391678.775229","392445.229195","393213.273547","393962.278396","394728.910137","398611.569323","399378.846617","400145.45115","400911.663033","387096.255511","387862.765437","388611.793164","389379.038304","400155.073239","Mapping"
"Mixed","Both","done","44","F_tile.wav","None","727.44743817","139","397862.421018","390145.6719","390912.304259","391678.775229","392445.229195","393213.273547","393962.278396","394728.910137","398611.569323","399378.846617","400145.45115","400911.663033","401678.375159","387862.765437","388611.793164","389379.038304","400920.944722","Mapping"
"Mixed","Both","done","44","M_knife.wav","None","725.469966419","139","397862.421018","390145.6719","390912.304259","391678.775229","392445.229195","393213.273547","393962.278396","394728.910137","398611.569323","399378.846617","400145.45115","400911.663033","401678.375159","402445.797455","388611.793164","389379.038304","401687.348293","Mapping"
"Mixed","Both","done","44","M_depth.wav","None","721.584895975","139","397862.421018","390145.6719","390912.304259","391678.775229","392445.229195","393213.273547","393962.278396","394728.910137","398611.569323","399378.846617","400145.45115","400911.663033","401678.375159","402445.797455","403212.489484","389379.038304","402455.702437","Mapping"
"Mixed","Both","done","44","M_done.wav","None","719.951533945","139","397862.421018","390145.6719","390912.304259","391678.775229","392445.229195","393213.273547","393962.278396","394728.910137","398611.569323","399378.846617","400145.45115","400911.663033","401678.375159","402445.797455","403212.489484","403961.696532","403222.241735","Mapping"
"Mixed","Both","done","44","M_priest.wav","space","580.346539849","139","397862.421018","404728.756168","390912.304259","391678.775229","392445.229195","393213.273547","393962.278396","394728.910137","398611.569323","399378.846617","400145.45115","400911.663033","401678.375159","402445.797455","403212.489484","403961.696532","403971.399624","Mapping"
"Mixed","Both","done","44","F_done.wav","None","731.974043068","139","397862.421018","404728.756168","405495.687498","391678.775229","392445.229195","393213.273547","393962.278396","394728.910137","398611.569323","399378.846617","400145.45115","400911.663033","401678.375159","402445.797455","403212.489484","403961.696532","404737.765475","Mapping"
"Mixed","Both","done","44","F_knife.wav","None","729.19117508","139","397862.421018","404728.756168","405495.687498","406262.115493","392445.229195","393213.273547","393962.278396","394728.910137","398611.569323","399378.846617","400145.45115","400911.663033","401678.375159","402445.797455","403212.489484","403961.696532","405504.912298","Mapping"
"Mixed","Both","done","44","F_ball.wav","space","0.0349365873262","139","397862.421018","404728.756168","405495.687498","406262.115493","407028.540396","393213.273547","393962.278396","394728.910137","398611.569323","399378.846617","400145.45115","400911.663033","401678.375159","402445.797455","403212.489484","403961.696532","406271.3641","Mapping"
"Mixed","Both","done","44","M_reek.wav","None","724.096928257","139","397862.421018","404728.756168","405495.687498","406262.115493","407028.540396","407795.143074","393962.278396","394728.910137","398611.569323","399378.846617","400145.45115","400911.663033","401678.375159","402445.797455","403212.489484","403961.696532","407037.561143","Mapping"
"Mixed","Both","done","44","F_done.wav","None","721.77349159","139","397862.421018","404728.756168","405495.687498","406262.115493","407028.540396","407795.143074","408545.545386","394728.910137","398611.569323","399378.846617","400145.45115","400911.663033","401678.375159","402445.797455","403212.489484","403961.696532","407804.35118","Mapping"
"Mixed","Both","done","44","M_gnash.wav","space","469.000903657","139","397862.421018","404728.756168","405495.687498","406262.115493","407028.540396","407795.143074","408545.545386","409312.063969","398611.569323","399378.846617","400145.45115","400911.663033","401678.375159","402445.797455","403212.489484","403961.696532","408554.72041","Mapping"
"Mixed","Both","cave","17","M_reek.wav","None","732.114716782","139","412445.729128","404728.756168","405495.687498","406262.115493","407028.540396","407795.143074","408545.545386","409312.063969","398611.569323","399378.846617","400145.45115","400911.663033","401678.375159","402445.797455","403212.489484","403961.696532","409321.726868","Mapping"
"Mixed","Both","cave","17","M_cling.wav","None","719.077192247","139","412445.729128","404728.756168","405495.687498","406262.115493","407028.540396","407795.143074","408545.545386","409312.063969","413195.15909","399378.846617","400145.45115","400911.663033","401678.375159","402445.797455","403212.489484","403961.696532","412455.64524","Mapping"
"Mixed","Both","cave","17","M_reek.wav","None","735.251588048","139","412445.729128","404728.756168","405495.687498","406262.115493","407028.540396","407795.143074","408545.545386","409312.063969","413195.15909","413961.975716","400145.45115","400911.663033","401678.375159","402445.797455","403212.489484","403961.696532","413204.556409","Mapping"
"Mixed","Both","cave","17","M_cave.wav","None","738.304364262","139","412445.729128","404728.756168","405495.687498","406262.115493","407028.540396","407795.143074","408545.545386","409312.063969","413195.15909","413961.975716","414728.59107","400911.663033","401678.375159","402445.797455","403212.489484","403961.696532","413965.930041","Mapping"
"Mixed","Both","cave","17","M_lash.wav","space","573.955002357","139","412445.729128","404728.756168","405495.687498","406262.115493","407028.540396","407795.143074","408545.545386","409312.063969","413195.15909","413961.975716","414728.59107","415495.227448","401678.375159","402445.797455","403212.489484","403961.696532","414737.592957","Mapping"
"Mixed","Both","cave","17","M_priest.wav","None","726.884124684","139","412445.729128","404728.756168","405495.687498","406262.115493","407028.540396","407795.143074","408545.545386","409312.063969","413195.15909","413961.975716","414728.59107","415495.227448","416262.019958","402445.797455","403212.489484","403961.696532","415505.05761","Mapping"
"Mixed","Both","cave","17","F_park.wav","None","725.068659638","139","412445.729128","404728.756168","405495.687498","406262.115493","407028.540396","407795.143074","408545.545386","409312.063969","413195.15909","413961.975716","414728.59107","415495.227448","416262.019958","417028.871212","403212.489484","403961.696532","416271.410476","Mapping"
"Mixed","Both","cave","17","M_cave.wav","None","722.362775821","139","412445.729128","404728.756168","405495.687498","406262.115493","407028.540396","407795.143074","408545.545386","409312.063969","413195.15909","413961.975716","414728.59107","415495.227448","416262.019958","417028.871212","417795.566023","403961.696532","417038.543077","Mapping"
"Mixed","Both","cave","17","F_gnash.wav","space","538.022274734","139","412445.729128","404728.756168","405495.687498","406262.115493","407028.540396","407795.143074","408545.545386","409312.063969","413195.15909","413961.975716","414728.59107","415495.227448","416262.019958","417028.871212","417795.566023","418544.721749","417805.500995","Mapping"
"Mixed","Both","cave","17","F_done.wav","None","734.452066245","139","412445.729128","419311.479632","405495.687498","406262.115493","407028.540396","407795.143074","408545.545386","409312.063969","413195.15909","413961.975716","414728.59107","415495.227448","416262.019958","417028.871212","417795.566023","418544.721749","418553.797528","Mapping"
"Mixed","Both","cave","17","F_depth.wav","None","732.353398576","139","412445.729128","419311.479632","420078.462284","406262.115493","407028.540396","407795.143074","408545.545386","409312.063969","413195.15909","413961.975716","414728.59107","415495.227448","416262.019958","417028.871212","417795.566023","418544.721749","419320.373617","Mapping"
"Mixed","Both","cave","17","F_priest.wav","None","729.178808164","139","412445.729128","419311.479632","420078.462284","420845.459158","407028.540396","407795.143074","408545.545386","409312.063969","413195.15909","413961.975716","414728.59107","415495.227448","416262.019958","417028.871212","417795.566023","418544.721749","420088.070459","Mapping"
"Mixed","Both","cave","17","F_cave.wav","None","727.162998868","139","412445.729128","419311.479632","420078.462284","420845.459158","421611.393713","407795.143074","408545.545386","409312.063969","413195.15909","413961.975716","414728.59107","415495.227448","416262.019958","417028.871212","417795.566023","418544.721749","420854.832362","Mapping"
"Mixed","Both","cave","17","M_done.wav","space","547.267790069","139","412445.729128","419311.479632","420078.462284","420845.459158","421611.393713","422379.276677","408545.545386","409312.063969","413195.15909","413961.975716","414728.59107","415495.227448","416262.019958","417028.871212","417795.566023","418544.721749","421620.16372","Mapping"
"Mixed","Both","cave","17","F_cave.wav","None","720.586575801","139","412445.729128","419311.479632","420078.462284","420845.459158","421611.393713","422379.276677","423145.625215","409312.063969","413195.15909","413961.975716","414728.59107","415495.227448","416262.019958","417028.871212","417795.566023","418544.721749","422389.082105","Mapping"
"Mixed","Both","cave","17","F_park.wav","space","675.471094903","139","412445.729128","419311.479632","420078.462284","420845.459158","421611.393713","422379.276677","423145.625215","423895.071872","413195.15909","413961.975716","414728.59107","415495.227448","416262.019958","417028.871212","417795.566023","418544.721749","423155.939851","Mapping"
"Mixed","Both","ball","11","M_bluff.wav","None","732.272085967","139","427028.848333","419311.479632","420078.462284","420845.459158","421611.393713","422379.276677","423145.625215","423895.071872","413195.15909","413961.975716","414728.59107","415495.227448","416262.019958","417028.871212","417795.566023","418544.721749","423904.979946","Mapping"
"Mixed","Both","ball","11","F_ball.wav","None","720.671907533","139","427028.848333","419311.479632","420078.462284","420845.459158","421611.393713","422379.276677","423145.625215","423895.071872","427778.370738","413961.975716","414728.59107","415495.227448","416262.019958","417028.871212","417795.566023","418544.721749","427038.221537","Mapping"
"Mixed","Both","ball","11","M_jolt.wav","space","587.038902915","139","427028.848333","419311.479632","420078.462284","420845.459158","421611.393713","422379.276677","423145.625215","423895.071872","427778.370738","428545.365756","414728.59107","415495.227448","416262.019958","417028.871212","417795.566023","418544.721749","427788.282212","Mapping"
"Mixed","Both","ball","11","M_jolt.wav","None","732.120591099","139","427028.848333","419311.479632","420078.462284","420845.459158","421611.393713","422379.276677","423145.625215","423895.071872","427778.370738","428545.365756","429311.604229","415495.227448","416262.019958","417028.871212","417795.566023","418544.721749","428554.346929","Mapping"
"Mixed","Both","ball","11","M_ball.wav","None","735.724623082","139","427028.848333","419311.479632","420078.462284","420845.459158","421611.393713","422379.276677","423145.625215","423895.071872","427778.370738","428545.365756","429311.604229","430078.018929","416262.019958","417028.871212","417795.566023","418544.721749","429315.480333","Mapping"
"Mixed","Both","ball","11","F_gnash.wav","space","496.117557632","139","427028.848333","419311.479632","420078.462284","420845.459158","421611.393713","422379.276677","423145.625215","423895.071872","427778.370738","428545.365756","429311.604229","430078.018929","430844.706939","417028.871212","417795.566023","418544.721749","430087.20261","Mapping"
"Mixed","Both","ball","11","F_priest.wav","None","724.941898603","139","427028.848333","419311.479632","420078.462284","420845.459158","421611.393713","422379.276677","423145.625215","423895.071872","427778.370738","428545.365756","429311.604229","430078.018929","430844.706939","431611.409171","417795.566023","418544.721749","430853.933286","Mapping"
"Mixed","Both","ball","11","M_ball.wav","None","722.629283089","139","427028.848333","419311.479632","420078.462284","420845.459158","421611.393713","422379.276677","423145.625215","423895.071872","427778.370738","428545.365756","429311.604229","430078.018929","430844.706939","431611.409171","432378.559395","418544.721749","431620.817002","Mapping"
"Mixed","Both","ball","11","F_depth.wav","space","450.789056369","139","427028.848333","419311.479632","420078.462284","420845.459158","421611.393713","422379.276677","423145.625215","423895.071872","427778.370738","428545.365756","429311.604229","430078.018929","430844.706939","431611.409171","432378.559395","433128.24999","432388.47829","Mapping"
"Mixed","Both","ball","11","F_cling.wav","None","733.962026774","139","427028.848333","433894.877402","420078.462284","420845.459158","421611.393713","422379.276677","423145.625215","423895.071872","427778.370738","428545.365756","429311.604229","430078.018929","430844.706939","431611.409171","432378.559395","433128.24999","433137.257133","Mapping"
"Mixed","Both","ball","11","F_jolt.wav","None","731.554804137","139","427028.848333","433894.877402","434661.11","420845.459158","421611.393713","422379.276677","423145.625215","423895.071872","427778.370738","428545.365756","429311.604229","430078.018929","430844.706939","431611.409171","432378.559395","433128.24999","433904.408903","Mapping"
"Mixed","Both","ball","11","M_cave.wav","None","730.844015023","139","427028.848333","433894.877402","434661.11","435428.185713","421611.393713","422379.276677","423145.625215","423895.071872","427778.370738","428545.365756","429311.604229","430078.018929","430844.706939","431611.409171","432378.559395","433128.24999","434669.929474","Mapping"
"Mixed","Both","ball","11","M_tile.wav","None","728.131020209","139","427028.848333","433894.877402","434661.11","435428.185713","436194.952871","422379.276677","423145.625215","423895.071872","427778.370738","428545.365756","429311.604229","430078.018929","430844.706939","431611.409171","432378.559395","433128.24999","435437.27726","Mapping"
"Mixed","Both","ball","11","F_ball.wav","None","725.481405854","139","427028.848333","433894.877402","434661.11","435428.185713","436194.952871","436961.551839","423145.625215","423895.071872","427778.370738","428545.365756","429311.604229","430078.018929","430844.706939","431611.409171","432378.559395","433128.24999","436204.534458","Mapping"
"Mixed","Both","ball","11","M_depth.wav","space","428.108419641","139","427028.848333","433894.877402","434661.11","435428.185713","436194.952871","436961.551839","437728.625388","423895.071872","427778.370738","428545.365756","429311.604229","430078.018929","430844.706939","431611.409171","432378.559395","433128.24999","436971.047476","Mapping"
"Mixed","Both","ball","11","F_romp.wav","None","719.561357517","139","427028.848333","433894.877402","434661.11","435428.185713","436194.952871","436961.551839","437728.625388","438477.943738","427778.370738","428545.365756","429311.604229","430078.018929","430844.706939","431611.409171","432378.559395","433128.24999","437738.061045","Mapping"
"Mixed","Both","done","41","F_jolt.wav","None","735.101948376","139","441611.407625","433894.877402","434661.11","435428.185713","436194.952871","436961.551839","437728.625388","438477.943738","427778.370738","428545.365756","429311.604229","430078.018929","430844.706939","431611.409171","432378.559395","433128.24999","438487.107632","Mapping"
"Mixed","Both","done","41","M_cave.wav","None","720.219896408","139","441611.407625","433894.877402","434661.11","435428.185713","436194.952871","436961.551839","437728.625388","438477.943738","442360.858302","428545.365756","429311.604229","430078.018929","430844.706939","431611.409171","432378.559395","433128.24999","441620.99385","Mapping"
"Mixed","Both","done","41","M_jaw.wav","None","735.788931139","139","441611.407625","433894.877402","434661.11","435428.185713","436194.952871","436961.551839","437728.625388","438477.943738","442360.858302","443128.079636","429311.604229","430078.018929","430844.706939","431611.409171","432378.559395","433128.24999","442370.116184","Mapping"
"Mixed","Both","done","41","M_jolt.wav","None","733.530111844","139","441611.407625","433894.877402","434661.11","435428.185713","436194.952871","436961.551839","437728.625388","438477.943738","442360.858302","443128.079636","443894.391691","430078.018929","430844.706939","431611.409171","432378.559395","433128.24999","443137.105947","Mapping"
"Mixed","Both","done","41","F_depth.wav","None","734.542344813","139","441611.407625","433894.877402","434661.11","435428.185713","436194.952871","436961.551839","437728.625388","438477.943738","442360.858302","443128.079636","443894.391691","444661.467404","430844.706939","431611.409171","432378.559395","433128.24999","443904.014088","Mapping"
"Mixed","Both","done","41","F_done.wav","None","732.630417799","139","441611.407625","433894.877402","434661.11","435428.185713","436194.952871","436961.551839","437728.625388","438477.943738","442360.858302","443128.079636","443894.391691","444661.467404","445427.580352","431611.409171","432378.559395","433128.24999","444670.809072","Mapping"
"Mixed","Both","done","41","M_gnash.wav","space","466.507421806","139","441611.407625","433894.877402","434661.11","435428.185713","436194.952871","436961.551839","437728.625388","438477.943738","442360.858302","443128.079636","443894.391691","444661.467404","445427.580352","446194.626384","432378.559395","433128.24999","445436.550703","Mapping"
"Mixed","Both","done","41","M_done.wav","None","727.194843814","139","441611.407625","433894.877402","434661.11","435428.185713","436194.952871","436961.551839","437728.625388","438477.943738","442360.858302","443128.079636","443894.391691","444661.467404","445427.580352","446194.626384","446960.900411","433128.24999","446204.153556","Mapping"
"Mixed","Both","done","41","M_cling.wav","space","501.098646899","139","441611.407625","433894.877402","434661.11","435428.185713","436194.952871","436961.551839","437728.625388","438477.943738","442360.858302","443128.079636","443894.391691","444661.467404","445427.580352","446194.626384","446960.900411","447728.271694","446969.865197","Mapping"
"Mixed","Both","done","41","F_romp.wav","None","720.078913379","139","441611.407625","448495.370904","434661.11","435428.185713","436194.952871","436961.551839","437728.625388","438477.943738","442360.858302","443128.079636","443894.391691","444661.467404","445427.580352","446194.626384","446960.900411","447728.271694","447738.861804","Mapping"
"Mixed","Both","done","41","M_depth.wav","None","718.457918265","139","441611.407625","448495.370904","449244.932574","435428.185713","436194.952871","436961.551839","437728.625388","438477.943738","442360.858302","443128.079636","443894.391691","444661.467404","445427.580352","446194.626384","446960.900411","447728.271694","448505.349469","Mapping"
"Mixed","Both","done","41","F_done.wav","None","733.576796949","139","441611.407625","448495.370904","449244.932574","450011.261634","436194.952871","436961.551839","437728.625388","438477.943738","442360.858302","443128.079636","443894.391691","444661.467404","445427.580352","446194.626384","446960.900411","447728.271694","449254.907738","Mapping"
"Mixed","Both","done","41","F_romp.wav","space","498.13985941","139","441611.407625","448495.370904","449244.932574","450011.261634","450777.467333","436961.551839","437728.625388","438477.943738","442360.858302","443128.079636","443894.391691","444661.467404","445427.580352","446194.626384","446960.900411","447728.271694","450020.798699","Mapping"
"Mixed","Both","done","41","M_done.wav","None","729.368949658","139","441611.407625","448495.370904","449244.932574","450011.261634","450777.467333","451544.527279","437728.625388","438477.943738","442360.858302","443128.079636","443894.391691","444661.467404","445427.580352","446194.626384","446960.900411","447728.271694","450786.765408","Mapping"
"Mixed","Both","done","41","F_cling.wav","None","726.49116558","139","441611.407625","448495.370904","449244.932574","450011.261634","450777.467333","451544.527279","452311.129339","438477.943738","442360.858302","443128.079636","443894.391691","444661.467404","445427.580352","446194.626384","446960.900411","447728.271694","451554.151841","Mapping"
"Mixed","Both","done","41","F_lash.wav","space","6.12286606338","139","441611.407625","448495.370904","449244.932574","450011.261634","450777.467333","451544.527279","452311.129339","453078.278944","442360.858302","443128.079636","443894.391691","444661.467404","445427.580352","446194.626384","446960.900411","447728.271694","452320.803059","Mapping"
