"Condition","Talker","Target","Trial","current_stimulus","response_response","response_time_response","subject_nr","time_Audio1","time_Audio10","time_Audio11","time_Audio12","time_Audio13","time_Audio14","time_Audio15","time_Audio16","time_Audio2","time_Audio3","time_Audio4","time_Audio5","time_Audio6","time_Audio7","time_Audio8","time_Audio9","time_response","title"
"Mixed","Both","cave","19","M_cling.wav","NA","NA","144","179634.738763","NA","NA","NA","NA","NA","NA","NA","NA","NA","NA","NA","NA","NA","NA","NA","NA","Mapping"
"Mixed","Both","cave","19","F_cave.wav","None","712.467069272","144","179634.738763","NA","NA","NA","NA","NA","NA","NA","180401.534056","NA","NA","NA","NA","NA","NA","NA","179654.28933","Mapping"
"Mixed","Both","cave","19","M_ball.wav","space","623.672526213","144","179634.738763","NA","NA","NA","NA","NA","NA","NA","180401.534056","181168.031615","NA","NA","NA","NA","NA","NA","180411.204684","Mapping"
"Mixed","Both","cave","19","M_gnash.wav","None","720.767442137","144","179634.738763","NA","NA","NA","NA","NA","NA","NA","180401.534056","181168.031615","181934.444461","NA","NA","NA","NA","NA","181177.939688","Mapping"
"Mixed","Both","cave","19","F_reek.wav","None","721.054973081","144","179634.738763","NA","NA","NA","NA","NA","NA","NA","180401.534056","181168.031615","181934.444461","182684.916027","NA","NA","NA","NA","181943.816119","Mapping"
"Mixed","Both","cave","19","F_priest.wav","None","736.205078312","144","179634.738763","NA","NA","NA","NA","NA","NA","NA","180401.534056","181168.031615","181934.444461","182684.916027","183450.759994","NA","NA","NA","182694.467005","Mapping"
"Mixed","Both","cave","19","M_cave.wav","None","736.219300306","144","179634.738763","NA","NA","NA","NA","NA","NA","NA","180401.534056","181168.031615","181934.444461","182684.916027","183450.759994","184217.499327","NA","NA","183460.721245","Mapping"
"Mixed","Both","cave","19","M_gnash.wav","space","463.456500671","144","179634.738763","NA","NA","NA","NA","NA","NA","NA","180401.534056","181168.031615","181934.444461","182684.916027","183450.759994","184217.499327","184984.1861","NA","184227.314958","Mapping"
"Mixed","Both","cave","19","M_priest.wav","None","735.412667389","144","179634.738763","NA","NA","NA","NA","NA","NA","NA","180401.534056","181168.031615","181934.444461","182684.916027","183450.759994","184217.499327","184984.1861","185751.166897","184993.776962","Mapping"
"Mixed","Both","cave","19","F_gnash.wav","None","734.457940562","144","179634.738763","186517.526256","NA","NA","NA","NA","NA","NA","180401.534056","181168.031615","181934.444461","182684.916027","183450.759994","184217.499327","184984.1861","185751.166897","185760.799497","Mapping"
"Mixed","Both","cave","19","F_cave.wav","None","734.47092576","144","179634.738763","186517.526256","187284.524676","NA","NA","NA","NA","NA","180401.534056","181168.031615","181934.444461","182684.916027","183450.759994","184217.499327","184984.1861","185751.166897","186526.798051","Mapping"
"Mixed","Both","cave","19","F_romp.wav","space","396.6413897","144","179634.738763","186517.526256","187284.524676","188051.348103","NA","NA","NA","NA","180401.534056","181168.031615","181934.444461","182684.916027","183450.759994","184217.499327","184984.1861","185751.166897","187294.093586","Mapping"
"Mixed","Both","cave","19","F_ball.wav","None","732.587133534","144","179634.738763","186517.526256","187284.524676","188051.348103","188817.978916","NA","NA","NA","180401.534056","181168.031615","181934.444461","182684.916027","183450.759994","184217.499327","184984.1861","185751.166897","188060.745732","Mapping"
"Mixed","Both","cave","19","M_gnash.wav","None","731.897059013","144","179634.738763","186517.526256","187284.524676","188051.348103","188817.978916","189584.628589","NA","NA","180401.534056","181168.031615","181934.444461","182684.916027","183450.759994","184217.499327","184984.1861","185751.166897","188827.750953","Mapping"
"Mixed","Both","cave","19","M_cave.wav","None","731.858721469","144","179634.738763","186517.526256","187284.524676","188051.348103","188817.978916","189584.628589","190351.314744","NA","180401.534056","181168.031615","181934.444461","182684.916027","183450.759994","184217.499327","184984.1861","185751.166897","189593.728174","Mapping"
"Mixed","Both","cave","19","F_priest.wav","space","433.844200801","144","179634.738763","186517.526256","187284.524676","188051.348103","188817.978916","189584.628589","190351.314744","191118.050984","180401.534056","181168.031615","181934.444461","182684.916027","183450.759994","184217.499327","184984.1861","185751.166897","190360.848718","Mapping"
"Mixed","Both","cave","15","F_reek.wav","None","729.827453499","144","194268.230939","186517.526256","187284.524676","188051.348103","188817.978916","189584.628589","190351.314744","191118.050984","180401.534056","181168.031615","181934.444461","182684.916027","183450.759994","184217.499327","184984.1861","185751.166897","191127.666271","Mapping"
"Mixed","Both","cave","15","F_ball.wav","None","722.261676099","144","194268.230939","186517.526256","187284.524676","188051.348103","188817.978916","189584.628589","190351.314744","191118.050984","195034.978928","181168.031615","181934.444461","182684.916027","183450.759994","184217.499327","184984.1861","185751.166897","194278.247841","Mapping"
"Mixed","Both","cave","15","M_depth.wav","None","721.831616131","144","194268.230939","186517.526256","187284.524676","188051.348103","188817.978916","189584.628589","190351.314744","191118.050984","195034.978928","195802.096998","181934.444461","182684.916027","183450.759994","184217.499327","184984.1861","185751.166897","195044.735507","Mapping"
"Mixed","Both","cave","15","F_cave.wav","None","720.559677691","144","194268.230939","186517.526256","187284.524676","188051.348103","188817.978916","189584.628589","190351.314744","191118.050984","195034.978928","195802.096998","196568.098025","182684.916027","183450.759994","184217.499327","184984.1861","185751.166897","195812.09164","Mapping"
"Mixed","Both","cave","15","M_reek.wav","space","345.085521927","144","194268.230939","186517.526256","187284.524676","188051.348103","188817.978916","189584.628589","190351.314744","191118.050984","195034.978928","195802.096998","196568.098025","197334.774596","183450.759994","184217.499327","184984.1861","185751.166897","196577.516987","Mapping"
"Mixed","Both","cave","15","F_priest.wav","None","720.380357234","144","194268.230939","186517.526256","187284.524676","188051.348103","188817.978916","189584.628589","190351.314744","191118.050984","195034.978928","195802.096998","196568.098025","197334.774596","198101.527841","184217.499327","184984.1861","185751.166897","197344.399776","Mapping"
"Mixed","Both","cave","15","M_cave.wav","None","719.640814932","144","194268.230939","186517.526256","187284.524676","188051.348103","188817.978916","189584.628589","190351.314744","191118.050984","195034.978928","195802.096998","196568.098025","197334.774596","198101.527841","198868.249551","184984.1861","185751.166897","198111.294004","Mapping"
"Mixed","Both","cave","15","M_knife.wav","space","572.748608538","144","194268.230939","186517.526256","187284.524676","188051.348103","188817.978916","189584.628589","190351.314744","191118.050984","195034.978928","195802.096998","196568.098025","197334.774596","198101.527841","198868.249551","199617.978793","185751.166897","198877.776414","Mapping"
"Mixed","Both","cave","15","F_cave.wav","None","735.536645865","144","194268.230939","186517.526256","187284.524676","188051.348103","188817.978916","189584.628589","190351.314744","191118.050984","195034.978928","195802.096998","196568.098025","197334.774596","198101.527841","198868.249551","199617.978793","200384.265496","199627.557287","Mapping"
"Mixed","Both","cave","15","M_reek.wav","space","496.9118234","144","194268.230939","201150.968655","187284.524676","188051.348103","188817.978916","189584.628589","190351.314744","191118.050984","195034.978928","195802.096998","196568.098025","197334.774596","198101.527841","198868.249551","199617.978793","200384.265496","200393.658796","Mapping"
"Mixed","Both","cave","15","M_done.wav","None","734.773606411","144","194268.230939","201150.968655","201917.546599","188051.348103","188817.978916","189584.628589","190351.314744","191118.050984","195034.978928","195802.096998","196568.098025","197334.774596","198101.527841","198868.249551","199617.978793","200384.265496","201160.439249","Mapping"
"Mixed","Both","cave","15","F_ball.wav","None","734.389613266","144","194268.230939","201150.968655","201917.546599","202684.352095","188817.978916","189584.628589","190351.314744","191118.050984","195034.978928","195802.096998","196568.098025","197334.774596","198101.527841","198868.249551","199617.978793","200384.265496","201927.016884","Mapping"
"Mixed","Both","cave","15","F_priest.wav","None","733.616371173","144","194268.230939","201150.968655","201917.546599","202684.352095","203451.02712","189584.628589","190351.314744","191118.050984","195034.978928","195802.096998","196568.098025","197334.774596","198101.527841","198868.249551","199617.978793","200384.265496","202693.85948","Mapping"
"Mixed","Both","cave","15","M_cave.wav","None","732.942373492","144","194268.230939","201150.968655","201917.546599","202684.352095","203451.02712","204217.652058","190351.314744","191118.050984","195034.978928","195802.096998","196568.098025","197334.774596","198101.527841","198868.249551","199617.978793","200384.265496","203460.601905","Mapping"
"Mixed","Both","cave","15","F_reek.wav","space","319.356128224","144","194268.230939","201150.968655","201917.546599","202684.352095","203451.02712","204217.652058","204984.158893","191118.050984","195034.978928","195802.096998","196568.098025","197334.774596","198101.527841","198868.249551","199617.978793","200384.265496","204227.081223","Mapping"
"Mixed","Both","cave","15","M_depth.wav","None","732.496854966","144","194268.230939","201150.968655","201917.546599","202684.352095","203451.02712","204217.652058","204984.158893","205751.140617","195034.978928","195802.096998","196568.098025","197334.774596","198101.527841","198868.249551","199617.978793","200384.265496","204993.474281","Mapping"
"Mixed","Both","tile","30","M_depth.wav","None","731.190907303","144","208884.596466","201150.968655","201917.546599","202684.352095","203451.02712","204217.652058","204984.158893","205751.140617","195034.978928","195802.096998","196568.098025","197334.774596","198101.527841","198868.249551","199617.978793","200384.265496","205760.937079","Mapping"
"Mixed","Both","tile","30","F_cave.wav","None","723.016367992","144","208884.596466","201150.968655","201917.546599","202684.352095","203451.02712","204217.652058","204984.158893","205751.140617","209651.467197","195802.096998","196568.098025","197334.774596","198101.527841","198868.249551","199617.978793","200384.265496","208894.383652","Mapping"
"Mixed","Both","tile","30","F_cad.wav","None","722.313308157","144","208884.596466","201150.968655","201917.546599","202684.352095","203451.02712","204217.652058","204984.158893","205751.140617","209651.467197","210418.251978","196568.098025","197334.774596","198101.527841","198868.249551","199617.978793","200384.265496","209661.283446","Mapping"
"Mixed","Both","tile","30","M_jaw.wav","None","714.379305369","144","208884.596466","201150.968655","201917.546599","202684.352095","203451.02712","204217.652058","204984.158893","205751.140617","209651.467197","210418.251978","211184.650602","197334.774596","198101.527841","198868.249551","199617.978793","200384.265496","210435.427477","Mapping"
"Mixed","Both","tile","30","F_tile.wav","None","721.444840543","144","208884.596466","201150.968655","201917.546599","202684.352095","203451.02712","204217.652058","204984.158893","205751.140617","209651.467197","210418.251978","211184.650602","211951.287598","198101.527841","198868.249551","199617.978793","200384.265496","211194.931538","Mapping"
"Mixed","Both","tile","30","F_gnash.wav","space","401.333092945","144","208884.596466","201150.968655","201917.546599","202684.352095","203451.02712","204217.652058","204984.158893","205751.140617","209651.467197","210418.251978","211184.650602","211951.287598","212718.145035","198868.249551","199617.978793","200384.265496","211960.969048","Mapping"
"Mixed","Both","tile","30","M_cling.wav","None","720.646555419","144","208884.596466","201150.968655","201917.546599","202684.352095","203451.02712","204217.652058","204984.158893","205751.140617","209651.467197","210418.251978","211184.650602","211951.287598","212718.145035","213484.650942","199617.978793","200384.265496","212727.956028","Mapping"
"Mixed","Both","tile","30","M_tile.wav","None","725.665673148","144","208884.596466","201150.968655","201917.546599","202684.352095","203451.02712","204217.652058","204984.158893","205751.140617","209651.467197","210418.251978","211184.650602","211951.287598","212718.145035","213484.650942","214251.377598","200384.265496","213489.75972","Mapping"
"Mixed","Both","tile","30","F_romp.wav","space","516.699526575","144","208884.596466","201150.968655","201917.546599","202684.352095","203451.02712","204217.652058","204984.158893","205751.140617","209651.467197","210418.251978","211184.650602","211951.287598","212718.145035","213484.650942","214251.377598","215017.800956","214261.553416","Mapping"
"Mixed","Both","tile","30","F_tile.wav","None","719.90237548","144","208884.596466","215784.546781","201917.546599","202684.352095","203451.02712","204217.652058","204984.158893","205751.140617","209651.467197","210418.251978","211184.650602","211951.287598","212718.145035","213484.650942","214251.377598","215017.800956","215027.811984","Mapping"
"Mixed","Both","tile","30","M_cling.wav","space","455.475812894","144","208884.596466","215784.546781","216551.087316","202684.352095","203451.02712","204217.652058","204984.158893","205751.140617","209651.467197","210418.251978","211184.650602","211951.287598","212718.145035","213484.650942","214251.377598","215017.800956","215794.76712","Mapping"
"Mixed","Both","tile","30","F_knife.wav","None","718.489763094","144","208884.596466","215784.546781","216551.087316","217301.076572","203451.02712","204217.652058","204984.158893","205751.140617","209651.467197","210418.251978","211184.650602","211951.287598","212718.145035","213484.650942","214251.377598","215017.800956","216561.64187","Mapping"
"Mixed","Both","tile","30","M_park.wav","None","736.058839364","144","208884.596466","215784.546781","216551.087316","217301.076572","218067.65297","204217.652058","204984.158893","205751.140617","209651.467197","210418.251978","211184.650602","211951.287598","212718.145035","213484.650942","214251.377598","215017.800956","217310.409893","Mapping"
"Mixed","Both","tile","30","F_cave.wav","None","734.976114822","144","208884.596466","215784.546781","216551.087316","217301.076572","218067.65297","218833.890206","204984.158893","205751.140617","209651.467197","210418.251978","211184.650602","211951.287598","212718.145035","213484.650942","214251.377598","215017.800956","218077.804982","Mapping"
"Mixed","Both","tile","30","M_tile.wav","None","735.235511092","144","208884.596466","215784.546781","216551.087316","217301.076572","218067.65297","218833.890206","219600.653036","205751.140617","209651.467197","210418.251978","211184.650602","211951.287598","212718.145035","213484.650942","214251.377598","215017.800956","218843.974817","Mapping"
"Mixed","Both","tile","30","M_done.wav","space","351.829516934","144","208884.596466","215784.546781","216551.087316","217301.076572","218067.65297","218833.890206","219600.653036","220367.210884","209651.467197","210418.251978","211184.650602","211951.287598","212718.145035","213484.650942","214251.377598","215017.800956","219610.327065","Mapping"
"Mixed","Both","done","47","M_priest.wav","None","735.092054703","144","223501.063092","215784.546781","216551.087316","217301.076572","218067.65297","218833.890206","219600.653036","220367.210884","209651.467197","210418.251978","211184.650602","211951.287598","212718.145035","213484.650942","214251.377598","215017.800956","220376.640357","Mapping"
"Mixed","Both","done","47","M_done.wav","None","721.660025069","144","223501.063092","215784.546781","216551.087316","217301.076572","218067.65297","218833.890206","219600.653036","220367.210884","224267.592187","210418.251978","211184.650602","211951.287598","212718.145035","213484.650942","214251.377598","215017.800956","223511.669897","Mapping"
"Mixed","Both","done","47","F_greet.wav","space","451.834680163","144","223501.063092","215784.546781","216551.087316","217301.076572","218067.65297","218833.890206","219600.653036","220367.210884","224267.592187","225034.440658","211184.650602","211951.287598","212718.145035","213484.650942","214251.377598","215017.800956","224278.249078","Mapping"
"Mixed","Both","done","47","F_cling.wav","None","720.780736534","144","223501.063092","215784.546781","216551.087316","217301.076572","218067.65297","218833.890206","219600.653036","220367.210884","224267.592187","225034.440658","225801.032515","211951.287598","212718.145035","213484.650942","214251.377598","215017.800956","225044.725613","Mapping"
"Mixed","Both","done","47","M_done.wav","None","720.707153319","144","223501.063092","215784.546781","216551.087316","217301.076572","218067.65297","218833.890206","219600.653036","220367.210884","224267.592187","225034.440658","225801.032515","226567.162158","212718.145035","213484.650942","214251.377598","215017.800956","225811.035195","Mapping"
"Mixed","Both","done","47","F_gnash.wav","space","329.008515575","144","223501.063092","215784.546781","216551.087316","217301.076572","218067.65297","218833.890206","219600.653036","220367.210884","224267.592187","225034.440658","225801.032515","226567.162158","227334.162124","213484.650942","214251.377598","215017.800956","226577.012107","Mapping"
"Mixed","Both","done","47","F_done.wav","None","720.788156614","144","223501.063092","215784.546781","216551.087316","217301.076572","218067.65297","218833.890206","219600.653036","220367.210884","224267.592187","225034.440658","225801.032515","226567.162158","227334.162124","228101.194552","214251.377598","215017.800956","227343.790395","Mapping"
"Mixed","Both","done","47","F_jolt.wav","space","449.002344394","144","223501.063092","215784.546781","216551.087316","217301.076572","218067.65297","218833.890206","219600.653036","220367.210884","224267.592187","225034.440658","225801.032515","226567.162158","227334.162124","228101.194552","228867.315848","215017.800956","228113.045161","Mapping"
"Mixed","Both","done","47","M_park.wav","None","719.857545337","144","223501.063092","215784.546781","216551.087316","217301.076572","218067.65297","218833.890206","219600.653036","220367.210884","224267.592187","225034.440658","225801.032515","226567.162158","227334.162124","228101.194552","228867.315848","229634.327562","228876.919386","Mapping"
"Mixed","Both","done","47","F_done.wav","None","717.875745147","144","223501.063092","230400.97136","216551.087316","217301.076572","218067.65297","218833.890206","219600.653036","220367.210884","224267.592187","225034.440658","225801.032515","226567.162158","227334.162124","228101.194552","228867.315848","229634.327562","229645.451614","Mapping"
"Mixed","Both","done","47","M_greet.wav","space","343.066002592","144","223501.063092","230400.97136","231150.546324","217301.076572","218067.65297","218833.890206","219600.653036","220367.210884","224267.592187","225034.440658","225801.032515","226567.162158","227334.162124","228101.194552","228867.315848","229634.327562","230410.924264","Mapping"
"Mixed","Both","done","47","M_cad.wav","None","734.826474916","144","223501.063092","230400.97136","231150.546324","231916.914031","218067.65297","218833.890206","219600.653036","220367.210884","224267.592187","225034.440658","225801.032515","226567.162158","227334.162124","228101.194552","228867.315848","229634.327562","231160.830043","Mapping"
"Mixed","Both","done","47","M_bluff.wav","None","726.390684256","144","223501.063092","230400.97136","231150.546324","231916.914031","232683.597712","218833.890206","219600.653036","220367.210884","224267.592187","225034.440658","225801.032515","226567.162158","227334.162124","228101.194552","228867.315848","229634.327562","231935.586856","Mapping"
"Mixed","Both","done","47","F_tile.wav","None","735.162546276","144","223501.063092","230400.97136","231150.546324","231916.914031","232683.597712","233450.329007","219600.653036","220367.210884","224267.592187","225034.440658","225801.032515","226567.162158","227334.162124","228101.194552","228867.315848","229634.327562","232693.281635","Mapping"
"Mixed","Both","done","47","M_park.wav","None","734.449283686","144","223501.063092","230400.97136","231150.546324","231916.914031","232683.597712","233450.329007","234216.898603","220367.210884","224267.592187","225034.440658","225801.032515","226567.162158","227334.162124","228101.194552","228867.315848","229634.327562","233460.382392","Mapping"
"Mixed","Both","done","47","F_cave.wav","None","734.800813603","144","223501.063092","230400.97136","231150.546324","231916.914031","232683.597712","233450.329007","234216.898603","234983.672563","224267.592187","225034.440658","225801.032515","226567.162158","227334.162124","228101.194552","228867.315848","229634.327562","234226.656728","Mapping"
"Mixed","Both","done","46","F_cling.wav","None","733.97810373","144","238117.71244","230400.97136","231150.546324","231916.914031","232683.597712","233450.329007","234216.898603","234983.672563","224267.592187","225034.440658","225801.032515","226567.162158","227334.162124","228101.194552","228867.315848","229634.327562","234993.918254","Mapping"
"Mixed","Both","done","46","M_cad.wav","None","722.004134906","144","238117.71244","230400.97136","231150.546324","231916.914031","232683.597712","233450.329007","234216.898603","234983.672563","238884.085093","225034.440658","225801.032515","226567.162158","227334.162124","228101.194552","228867.315848","229634.327562","238127.753458","Mapping"
"Mixed","Both","done","46","F_jaw.wav","None","721.192555269","144","238117.71244","230400.97136","231150.546324","231916.914031","232683.597712","233450.329007","234216.898603","234983.672563","238884.085093","239650.324184","225801.032515","226567.162158","227334.162124","228101.194552","228867.315848","229634.327562","238894.860397","Mapping"
"Mixed","Both","done","46","F_bluff.wav","None","722.487990977","144","238117.71244","230400.97136","231150.546324","231916.914031","232683.597712","233450.329007","234216.898603","234983.672563","238884.085093","239650.324184","240417.121022","226567.162158","227334.162124","228101.194552","228867.315848","229634.327562","239659.991102","Mapping"
"Mixed","Both","done","46","F_done.wav","None","722.030105419","144","238117.71244","230400.97136","231150.546324","231916.914031","232683.597712","233450.329007","234216.898603","234983.672563","238884.085093","239650.324184","240417.121022","241184.040912","227334.162124","228101.194552","228867.315848","229634.327562","240426.906045","Mapping"
"Mixed","Both","done","46","M_priest.wav","space","358.603810892","144","238117.71244","230400.97136","231150.546324","231916.914031","232683.597712","233450.329007","234216.898603","234983.672563","238884.085093","239650.324184","240417.121022","241184.040912","241950.765405","228101.194552","228867.315848","229634.327562","241195.174239","Mapping"
"Mixed","Both","done","46","F_ball.wav","None","720.652738819","144","238117.71244","230400.97136","231150.546324","231916.914031","232683.597712","233450.329007","234216.898603","234983.672563","238884.085093","239650.324184","240417.121022","241184.040912","241950.765405","242717.143932","228867.315848","229634.327562","241960.782307","Mapping"
"Mixed","Both","done","46","M_done.wav","None","721.229965216","144","238117.71244","230400.97136","231150.546324","231916.914031","232683.597712","233450.329007","234216.898603","234983.672563","238884.085093","239650.324184","240417.121022","241184.040912","241950.765405","242717.143932","243483.719403","229634.327562","242726.790445","Mapping"
"Mixed","Both","done","46","M_tile.wav","space","460.265214904","144","238117.71244","230400.97136","231150.546324","231916.914031","232683.597712","233450.329007","234216.898603","234983.672563","238884.085093","239650.324184","240417.121022","241184.040912","241950.765405","242717.143932","243483.719403","244250.617032","243493.474436","Mapping"
"Mixed","Both","done","46","M_cad.wav","None","720.073039061","144","238117.71244","245017.254647","231150.546324","231916.914031","232683.597712","233450.329007","234216.898603","234983.672563","238884.085093","239650.324184","240417.121022","241184.040912","241950.765405","242717.143932","243483.719403","244250.617032","244260.65836","Mapping"
"Mixed","Both","done","46","F_done.wav","None","719.810551032","144","238117.71244","245017.254647","245783.73582","231916.914031","232683.597712","233450.329007","234216.898603","234983.672563","238884.085093","239650.324184","240417.121022","241184.040912","241950.765405","242717.143932","243483.719403","244250.617032","245027.221464","Mapping"
"Mixed","Both","done","46","M_depth.wav","space","432.063981541","144","238117.71244","245017.254647","245783.73582","246550.478554","232683.597712","233450.329007","234216.898603","234983.672563","238884.085093","239650.324184","240417.121022","241184.040912","241950.765405","242717.143932","243483.719403","244250.617032","245793.60401","Mapping"
"Mixed","Both","done","46","M_cad.wav","None","718.52779144","144","238117.71244","245017.254647","245783.73582","246550.478554","247317.246021","233450.329007","234216.898603","234983.672563","238884.085093","239650.324184","240417.121022","241184.040912","241950.765405","242717.143932","243483.719403","244250.617032","246560.898927","Mapping"
"Mixed","Both","done","46","M_done.wav","None","718.38557173","144","238117.71244","245017.254647","245783.73582","246550.478554","247317.246021","248067.081927","234216.898603","234983.672563","238884.085093","239650.324184","240417.121022","241184.040912","241950.765405","242717.143932","243483.719403","244250.617032","247327.416274","Mapping"
"Mixed","Both","done","46","F_jaw.wav","space","428.845488583","144","238117.71244","245017.254647","245783.73582","246550.478554","247317.246021","248067.081927","248833.517961","234983.672563","238884.085093","239650.324184","240417.121022","241184.040912","241950.765405","242717.143932","243483.719403","244250.617032","248076.822738","Mapping"
"Mixed","Both","done","46","F_dime.wav","None","735.024036723","144","238117.71244","245017.254647","245783.73582","246550.478554","247317.246021","248067.081927","248833.517961","249600.234724","238884.085093","239650.324184","240417.121022","241184.040912","241950.765405","242717.143932","243483.719403","244250.617032","248843.007414","Mapping"
"Mixed","Both","ball","10","M_romp.wav","space","447.334355093","144","252733.711906","245017.254647","245783.73582","246550.478554","247317.246021","248067.081927","248833.517961","249600.234724","238884.085093","239650.324184","240417.121022","241184.040912","241950.765405","242717.143932","243483.719403","244250.617032","249610.307896","Mapping"
"Mixed","Both","ball","10","M_tile.wav","None","722.439759993","144","252733.711906","245017.254647","245783.73582","246550.478554","247317.246021","248067.081927","248833.517961","249600.234724","253500.6825","239650.324184","240417.121022","241184.040912","241950.765405","242717.143932","243483.719403","244250.617032","252744.063024","Mapping"
"Mixed","Both","ball","10","M_priest.wav","None","722.094413359","144","252733.711906","245017.254647","245783.73582","246550.478554","247317.246021","248067.081927","248833.517961","249600.234724","253500.6825","254267.194281","240417.121022","241184.040912","241950.765405","242717.143932","243483.719403","244250.617032","253510.733411","Mapping"
"Mixed","Both","ball","10","F_ball.wav","None","722.176035168","144","252733.711906","245017.254647","245783.73582","246550.478554","247317.246021","248067.081927","248833.517961","249600.234724","253500.6825","254267.194281","255033.524887","241184.040912","241950.765405","242717.143932","243483.719403","244250.617032","254277.284458","Mapping"
"Mixed","Both","ball","10","F_knife.wav","space","365.697171655","144","252733.711906","245017.254647","245783.73582","246550.478554","247317.246021","248067.081927","248833.517961","249600.234724","253500.6825","254267.194281","255033.524887","255800.003586","241950.765405","242717.143932","243483.719403","244250.617032","255043.818808","Mapping"
"Mixed","Both","ball","10","F_bluff.wav","None","722.408533329","144","252733.711906","245017.254647","245783.73582","246550.478554","247317.246021","248067.081927","248833.517961","249600.234724","253500.6825","254267.194281","255033.524887","255800.003586","256566.931206","242717.143932","243483.719403","244250.617032","255809.488402","Mapping"
"Mixed","Both","ball","10","M_jaw.wav","None","721.441439702","144","252733.711906","245017.254647","245783.73582","246550.478554","247317.246021","248067.081927","248833.517961","249600.234724","253500.6825","254267.194281","255033.524887","255800.003586","256566.931206","257333.810285","243483.719403","244250.617032","256577.160201","Mapping"
"Mixed","Both","ball","10","F_greet.wav","None","721.174314036","144","252733.711906","245017.254647","245783.73582","246550.478554","247317.246021","248067.081927","248833.517961","249600.234724","253500.6825","254267.194281","255033.524887","255800.003586","256566.931206","257333.810285","258100.50386","244250.617032","257343.969716","Mapping"
"Mixed","Both","ball","10","M_ball.wav","None","720.965003711","144","252733.711906","245017.254647","245783.73582","246550.478554","247317.246021","248067.081927","248833.517961","249600.234724","253500.6825","254267.194281","255033.524887","255800.003586","256566.931206","257333.810285","258100.50386","258867.110248","258110.612586","Mapping"
"Mixed","Both","ball","10","M_tile.wav","space","396.826275159","144","252733.711906","259633.49836","245783.73582","246550.478554","247317.246021","248067.081927","248833.517961","249600.234724","253500.6825","254267.194281","255033.524887","255800.003586","256566.931206","257333.810285","258100.50386","258867.110248","258876.640512","Mapping"
"Mixed","Both","ball","10","F_ball.wav","None","720.964694512","144","252733.711906","259633.49836","260401.13244","246550.478554","247317.246021","248067.081927","248833.517961","249600.234724","253500.6825","254267.194281","255033.524887","255800.003586","256566.931206","257333.810285","258100.50386","258867.110248","259643.193104","Mapping"
"Mixed","Both","ball","10","F_jaw.wav","space","614.849959733","144","252733.711906","259633.49836","260401.13244","261167.077816","247317.246021","248067.081927","248833.517961","249600.234724","253500.6825","254267.194281","255033.524887","255800.003586","256566.931206","257333.810285","258100.50386","258867.110248","260410.562841","Mapping"
"Mixed","Both","ball","10","M_ball.wav","None","719.58825551","144","252733.711906","259633.49836","260401.13244","261167.077816","261933.727797","248067.081927","248833.517961","249600.234724","253500.6825","254267.194281","255033.524887","255800.003586","256566.931206","257333.810285","258100.50386","258867.110248","261177.082351","Mapping"
"Mixed","Both","ball","10","F_priest.wav","space","505.85125736","144","252733.711906","259633.49836","260401.13244","261167.077816","261933.727797","262700.507322","248833.517961","249600.234724","253500.6825","254267.194281","255033.524887","255800.003586","256566.931206","257333.810285","258100.50386","258867.110248","261943.598461","Mapping"
"Mixed","Both","ball","10","M_knife.wav","None","718.970527407","144","252733.711906","259633.49836","260401.13244","261167.077816","261933.727797","262700.507322","263450.333953","249600.234724","253500.6825","254267.194281","255033.524887","255800.003586","256566.931206","257333.810285","258100.50386","258867.110248","262710.176405","Mapping"
"Mixed","Both","ball","10","F_tile.wav","None","735.727096559","144","252733.711906","259633.49836","260401.13244","261167.077816","261933.727797","262700.507322","263450.333953","264233.215837","253500.6825","254267.194281","255033.524887","255800.003586","256566.931206","257333.810285","258100.50386","258867.110248","263459.961916","Mapping"
"Mixed","Both","ball","11","F_depth.wav","None","719.41944689","144","267350.509038","259633.49836","260401.13244","261167.077816","261933.727797","262700.507322","263450.333953","264233.215837","253500.6825","254267.194281","255033.524887","255800.003586","256566.931206","257333.810285","258100.50386","258867.110248","264242.891412","Mapping"
"Mixed","Both","ball","11","F_lash.wav","None","720.61223723","144","267350.509038","259633.49836","260401.13244","261167.077816","261933.727797","262700.507322","263450.333953","264233.215837","268116.632498","254267.194281","255033.524887","255800.003586","256566.931206","257333.810285","258100.50386","258867.110248","267361.832197","Mapping"
"Mixed","Both","ball","11","M_priest.wav","None","722.274043015","144","267350.509038","259633.49836","260401.13244","261167.077816","261933.727797","262700.507322","263450.333953","264233.215837","268116.632498","268883.571247","255033.524887","255800.003586","256566.931206","257333.810285","258100.50386","258867.110248","268126.63456","Mapping"
"Mixed","Both","ball","11","F_priest.wav","None","721.62539768","144","267350.509038","259633.49836","260401.13244","261167.077816","261933.727797","262700.507322","263450.333953","264233.215837","268116.632498","268883.571247","269650.00388","255800.003586","256566.931206","257333.810285","258100.50386","258867.110248","268893.784784","Mapping"
"Mixed","Both","ball","11","M_ball.wav","None","722.258275258","144","267350.509038","259633.49836","260401.13244","261167.077816","261933.727797","262700.507322","263450.333953","264233.215837","268116.632498","268883.571247","269650.00388","270417.223359","256566.931206","257333.810285","258100.50386","258867.110248","269659.72274","Mapping"
"Mixed","Both","ball","11","M_romp.wav","space","422.21155914","144","267350.509038","259633.49836","260401.13244","261167.077816","261933.727797","262700.507322","263450.333953","264233.215837","268116.632498","268883.571247","269650.00388","270417.223359","271183.7574","257333.810285","258100.50386","258867.110248","270427.075472","Mapping"
"Mixed","Both","ball","11","F_cave.wav","None","720.957583515","144","267350.509038","259633.49836","260401.13244","261167.077816","261933.727797","262700.507322","263450.333953","264233.215837","268116.632498","268883.571247","269650.00388","270417.223359","271183.7574","271950.351422","258100.50386","258867.110248","271193.914977","Mapping"
"Mixed","Both","ball","11","F_ball.wav","None","721.311895992","144","267350.509038","259633.49836","260401.13244","261167.077816","261933.727797","262700.507322","263450.333953","264233.215837","268116.632498","268883.571247","269650.00388","270417.223359","271183.7574","271950.351422","272716.792093","258867.110248","271960.303707","Mapping"
"Mixed","Both","ball","11","M_priest.wav","space","442.314928165","144","267350.509038","259633.49836","260401.13244","261167.077816","261933.727797","262700.507322","263450.333953","264233.215837","268116.632498","268883.571247","269650.00388","270417.223359","271183.7574","271950.351422","272716.792093","273483.540392","272726.92339","Mapping"
"Mixed","Both","ball","11","M_cad.wav","None","720.709008281","144","267350.509038","274250.313733","260401.13244","261167.077816","261933.727797","262700.507322","263450.333953","264233.215837","268116.632498","268883.571247","269650.00388","270417.223359","271183.7574","271950.351422","272716.792093","273483.540392","273493.676017","Mapping"
"Mixed","Both","ball","11","M_gnash.wav","None","721.10722342","144","267350.509038","274250.313733","275016.84221","261167.077816","261933.727797","262700.507322","263450.333953","264233.215837","268116.632498","268883.571247","269650.00388","270417.223359","271183.7574","271950.351422","272716.792093","273483.540392","274260.102775","Mapping"
"Mixed","Both","ball","11","M_ball.wav","None","721.174004837","144","267350.509038","274250.313733","275016.84221","275783.418608","261933.727797","262700.507322","263450.333953","264233.215837","268116.632498","268883.571247","269650.00388","270417.223359","271183.7574","271950.351422","272716.792093","273483.540392","275026.497998","Mapping"
"Mixed","Both","ball","11","F_cling.wav","space","375.491469516","144","267350.509038","274250.313733","275016.84221","275783.418608","276550.138772","262700.507322","263450.333953","264233.215837","268116.632498","268883.571247","269650.00388","270417.223359","271183.7574","271950.351422","272716.792093","273483.540392","275793.683468","Mapping"
"Mixed","Both","ball","11","F_ball.wav","None","719.665548764","144","267350.509038","274250.313733","275016.84221","275783.418608","276550.138772","277316.772677","263450.333953","264233.215837","268116.632498","268883.571247","269650.00388","270417.223359","271183.7574","271950.351422","272716.792093","273483.540392","276560.638603","Mapping"
"Mixed","Both","ball","11","F_romp.wav","space","529.916681","144","267350.509038","274250.313733","275016.84221","275783.418608","276550.138772","277316.772677","278083.27642","264233.215837","268116.632498","268883.571247","269650.00388","270417.223359","271183.7574","271950.351422","272716.792093","273483.540392","277327.244992","Mapping"
"Mixed","Both","ball","11","M_gnash.wav","None","719.713779865","144","267350.509038","274250.313733","275016.84221","275783.418608","276550.138772","277316.772677","278083.27642","278849.854982","268116.632498","268883.571247","269650.00388","270417.223359","271183.7574","271950.351422","272716.792093","273483.540392","278093.032071","Mapping"
"Mixed","Both","tile","26","F_greet.wav","None","720.138892997","144","281966.913521","274250.313733","275016.84221","275783.418608","276550.138772","277316.772677","278083.27642","278849.854982","268116.632498","268883.571247","269650.00388","270417.223359","271183.7574","271950.351422","272716.792093","273483.540392","278859.243026","Mapping"
"Mixed","Both","tile","26","M_tile.wav","None","722.227667109","144","281966.913521","274250.313733","275016.84221","275783.418608","276550.138772","277316.772677","278083.27642","278849.854982","282733.373052","268883.571247","269650.00388","270417.223359","271183.7574","271950.351422","272716.792093","273483.540392","281976.83056","Mapping"
"Mixed","Both","tile","26","F_lash.wav","space","457.495641429","144","281966.913521","274250.313733","275016.84221","275783.418608","276550.138772","277316.772677","278083.27642","278849.854982","282733.373052","283500.063535","269650.00388","270417.223359","271183.7574","271950.351422","272716.792093","273483.540392","282743.532174","Mapping"
"Mixed","Both","tile","26","M_jolt.wav","None","722.095341072","144","281966.913521","274250.313733","275016.84221","275783.418608","276550.138772","277316.772677","278083.27642","278849.854982","282733.373052","283500.063535","284266.519047","270417.223359","271183.7574","271950.351422","272716.792093","273483.540392","283509.896789","Mapping"
"Mixed","Both","tile","26","F_tile.wav","None","721.585823572","144","281966.913521","274250.313733","275016.84221","275783.418608","276550.138772","277316.772677","278083.27642","278849.854982","282733.373052","283500.063535","284266.519047","285033.128836","271183.7574","271950.351422","272716.792093","273483.540392","284276.941894","Mapping"
"Mixed","Both","tile","26","F_bluff.wav","space","502.075015916","144","281966.913521","274250.313733","275016.84221","275783.418608","276550.138772","277316.772677","278083.27642","278849.854982","282733.373052","283500.063535","284266.519047","285033.128836","285799.465625","271950.351422","272716.792093","273483.540392","285042.914477","Mapping"
"Mixed","Both","tile","26","F_dime.wav","None","722.045254894","144","281966.913521","274250.313733","275016.84221","275783.418608","276550.138772","277316.772677","278083.27642","278849.854982","282733.373052","283500.063535","284266.519047","285033.128836","285799.465625","286566.270502","272716.792093","273483.540392","285809.11152","Mapping"
"Mixed","Both","tile","26","M_done.wav","None","722.420591163","144","281966.913521","274250.313733","275016.84221","275783.418608","276550.138772","277316.772677","278083.27642","278849.854982","282733.373052","283500.063535","284266.519047","285033.128836","285799.465625","286566.270502","287333.314371","273483.540392","286575.998946","Mapping"
"Mixed","Both","tile","26","F_knife.wav","None","721.523370477","144","281966.913521","274250.313733","275016.84221","275783.418608","276550.138772","277316.772677","278083.27642","278849.854982","282733.373052","283500.063535","284266.519047","285033.128836","285799.465625","286566.270502","287333.314371","288099.63632","287343.591597","Mapping"
"Mixed","Both","tile","26","M_jolt.wav","None","722.38998313","144","281966.913521","288866.378126","275016.84221","275783.418608","276550.138772","277316.772677","278083.27642","278849.854982","282733.373052","283500.063535","284266.519047","285033.128836","285799.465625","286566.270502","287333.314371","288099.63632","288109.494307","Mapping"
"Mixed","Both","tile","26","F_tile.wav","None","722.510560532","144","281966.913521","288866.378126","289633.684173","275783.418608","276550.138772","277316.772677","278083.27642","278849.854982","282733.373052","283500.063535","284266.519047","285033.128836","285799.465625","286566.270502","287333.314371","288099.63632","288876.093584","Mapping"
"Mixed","Both","tile","26","M_done.wav","space","428.772832849","144","281966.913521","288866.378126","289633.684173","290399.547618","276550.138772","277316.772677","278083.27642","278849.854982","282733.373052","283500.063535","284266.519047","285033.128836","285799.465625","286566.270502","287333.314371","288099.63632","289644.127425","Mapping"
"Mixed","Both","tile","26","M_tile.wav","None","721.964251599","144","281966.913521","288866.378126","289633.684173","290399.547618","291166.239338","277316.772677","278083.27642","278849.854982","282733.373052","283500.063535","284266.519047","285033.128836","285799.465625","286566.270502","287333.314371","288099.63632","290409.402823","Mapping"
"Mixed","Both","tile","26","F_romp.wav","space","512.910299934","144","281966.913521","288866.378126","289633.684173","290399.547618","291166.239338","291933.251052","278083.27642","278849.854982","282733.373052","283500.063535","284266.519047","285033.128836","285799.465625","286566.270502","287333.314371","288099.63632","291176.001481","Mapping"
"Mixed","Both","tile","26","M_cave.wav","None","720.389632392","144","281966.913521","288866.378126","289633.684173","290399.547618","291166.239338","291933.251052","292699.870735","278849.854982","282733.373052","283500.063535","284266.519047","285033.128836","285799.465625","286566.270502","287333.314371","288099.63632","291943.687812","Mapping"
"Mixed","Both","tile","26","M_dime.wav","None","721.185135073","144","281966.913521","288866.378126","289633.684173","290399.547618","291166.239338","291933.251052","292699.870735","293466.297802","282733.373052","283500.063535","284266.519047","285033.128836","285799.465625","286566.270502","287333.314371","288099.63632","292709.868159","Mapping"
"Mixed","Both","tile","31","F_cling.wav","None","721.074450994","144","296599.642658","288866.378126","289633.684173","290399.547618","291166.239338","291933.251052","292699.870735","293466.297802","282733.373052","283500.063535","284266.519047","285033.128836","285799.465625","286566.270502","287333.314371","288099.63632","293476.790832","Mapping"
"Mixed","Both","tile","31","M_cave.wav","None","722.584762145","144","296599.642658","288866.378126","289633.684173","290399.547618","291166.239338","291933.251052","292699.870735","293466.297802","297366.64386","283500.063535","284266.519047","285033.128836","285799.465625","286566.270502","287333.314371","288099.63632","296609.316996","Mapping"
"Mixed","Both","tile","31","M_done.wav","None","721.727424883","144","296599.642658","288866.378126","289633.684173","290399.547618","291166.239338","291933.251052","292699.870735","293466.297802","297366.64386","298133.095662","284266.519047","285033.128836","285799.465625","286566.270502","287333.314371","288099.63632","297376.836991","Mapping"
"Mixed","Both","tile","31","F_cling.wav","None","721.835944685","144","296599.642658","288866.378126","289633.684173","290399.547618","291166.239338","291933.251052","292699.870735","293466.297802","297366.64386","298133.095662","298899.687828","285033.128836","285799.465625","286566.270502","287333.314371","288099.63632","298143.522219","Mapping"
"Mixed","Both","tile","31","M_ball.wav","None","722.764391801","144","296599.642658","288866.378126","289633.684173","290399.547618","291166.239338","291933.251052","292699.870735","293466.297802","297366.64386","298133.095662","298899.687828","299666.533825","285799.465625","286566.270502","287333.314371","288099.63632","298909.526956","Mapping"
"Mixed","Both","tile","31","F_priest.wav","None","721.806264017","144","296599.642658","288866.378126","289633.684173","290399.547618","291166.239338","291933.251052","292699.870735","293466.297802","297366.64386","298133.095662","298899.687828","299666.533825","300433.141759","286566.270502","287333.314371","288099.63632","299677.334173","Mapping"
"Mixed","Both","tile","31","M_tile.wav","None","722.77954116","144","296599.642658","288866.378126","289633.684173","290399.547618","291166.239338","291933.251052","292699.870735","293466.297802","297366.64386","298133.095662","298899.687828","299666.533825","300433.141759","301199.414859","287333.314371","288099.63632","300443.149077","Mapping"
"Mixed","Both","tile","31","F_romp.wav","space","455.866917036","144","296599.642658","288866.378126","289633.684173","290399.547618","291166.239338","291933.251052","292699.870735","293466.297802","297366.64386","298133.095662","298899.687828","299666.533825","300433.141759","301199.414859","301966.337531","288099.63632","301208.876486","Mapping"
"Mixed","Both","tile","31","M_done.wav","None","722.319182358","144","296599.642658","288866.378126","289633.684173","290399.547618","291166.239338","291933.251052","292699.870735","293466.297802","297366.64386","298133.095662","298899.687828","299666.533825","300433.141759","301199.414859","301966.337531","302732.712967","301976.41565","Mapping"
"Mixed","Both","tile","31","F_jolt.wav","None","722.552917316","144","296599.642658","303499.649861","289633.684173","290399.547618","291166.239338","291933.251052","292699.870735","293466.297802","297366.64386","298133.095662","298899.687828","299666.533825","300433.141759","301199.414859","301966.337531","302732.712967","302742.854157","Mapping"
"Mixed","Both","tile","31","M_tile.wav","None","722.700702026","144","296599.642658","303499.649861","304266.397542","290399.547618","291166.239338","291933.251052","292699.870735","293466.297802","297366.64386","298133.095662","298899.687828","299666.533825","300433.141759","301199.414859","301966.337531","302732.712967","303509.72427","Mapping"
"Mixed","Both","tile","31","M_bluff.wav","space","476.339438697","144","296599.642658","303499.649861","304266.397542","305033.173048","291166.239338","291933.251052","292699.870735","293466.297802","297366.64386","298133.095662","298899.687828","299666.533825","300433.141759","301199.414859","301966.337531","302732.712967","304276.315818","Mapping"
"Mixed","Both","tile","31","F_tile.wav","None","721.495235804","144","296599.642658","303499.649861","304266.397542","305033.173048","305798.597467","291933.251052","292699.870735","293466.297802","297366.64386","298133.095662","298899.687828","299666.533825","300433.141759","301199.414859","301966.337531","302732.712967","305043.842615","Mapping"
"Mixed","Both","tile","31","M_romp.wav","space","544.952701079","144","296599.642658","303499.649861","304266.397542","305033.173048","305798.597467","306566.041405","292699.870735","293466.297802","297366.64386","298133.095662","298899.687828","299666.533825","300433.141759","301199.414859","301966.337531","302732.712967","305807.658715","Mapping"
"Mixed","Both","tile","31","F_tile.wav","None","725.552824792","144","296599.642658","303499.649861","304266.397542","305033.173048","305798.597467","306566.041405","307332.603581","293466.297802","297366.64386","298133.095662","298899.687828","299666.533825","300433.141759","301199.414859","301966.337531","302732.712967","306575.704613","Mapping"
"Mixed","Both","tile","31","F_cad.wav","space","481.020321022","144","296599.642658","303499.649861","304266.397542","305033.173048","305798.597467","306566.041405","307332.603581","308099.230375","297366.64386","298133.095662","298899.687828","299666.533825","300433.141759","301199.414859","301966.337531","302732.712967","307343.571192","Mapping"
"Mixed","Both","done","44","M_depth.wav","None","724.86275027","144","311232.950257","303499.649861","304266.397542","305033.173048","305798.597467","306566.041405","307332.603581","308099.230375","297366.64386","298133.095662","298899.687828","299666.533825","300433.141759","301199.414859","301966.337531","302732.712967","308109.266756","Mapping"
"Mixed","Both","done","44","M_cling.wav","None","722.356901504","144","311232.950257","303499.649861","304266.397542","305033.173048","305798.597467","306566.041405","307332.603581","308099.230375","311999.467604","298133.095662","298899.687828","299666.533825","300433.141759","301199.414859","301966.337531","302732.712967","311243.103505","Mapping"
"Mixed","Both","done","44","M_cad.wav","None","722.755734925","144","311232.950257","303499.649861","304266.397542","305033.173048","305798.597467","306566.041405","307332.603581","308099.230375","311999.467604","312765.829436","298899.687828","299666.533825","300433.141759","301199.414859","301966.337531","302732.712967","312009.540467","Mapping"
"Mixed","Both","done","44","F_done.wav","None","729.198286077","144","311232.950257","303499.649861","304266.397542","305033.173048","305798.597467","306566.041405","307332.603581","308099.230375","311999.467604","312765.829436","313532.864338","299666.533825","300433.141759","301199.414859","301966.337531","302732.712967","312769.924435","Mapping"
"Mixed","Both","done","44","F_depth.wav","space","377.46430363","144","311232.950257","303499.649861","304266.397542","305033.173048","305798.597467","306566.041405","307332.603581","308099.230375","311999.467604","312765.829436","313532.864338","314299.75362","300433.141759","301199.414859","301966.337531","302732.712967","313543.033354","Mapping"
"Mixed","Both","done","44","M_done.wav","None","721.946937847","144","311232.950257","303499.649861","304266.397542","305033.173048","305798.597467","306566.041405","307332.603581","308099.230375","311999.467604","312765.829436","313532.864338","314299.75362","315066.039705","301199.414859","301966.337531","302732.712967","314310.154825","Mapping"
"Mixed","Both","done","44","M_jaw.wav","space","476.427862304","144","311232.950257","303499.649861","304266.397542","305033.173048","305798.597467","306566.041405","307332.603581","308099.230375","311999.467604","312765.829436","313532.864338","314299.75362","315066.039705","315832.641455","301966.337531","302732.712967","315075.996009","Mapping"
"Mixed","Both","done","44","F_cad.wav","None","721.716294647","144","311232.950257","303499.649861","304266.397542","305033.173048","305798.597467","306566.041405","307332.603581","308099.230375","311999.467604","312765.829436","313532.864338","314299.75362","315066.039705","315832.641455","316599.384189","302732.712967","315843.194464","Mapping"
"Mixed","Both","done","44","F_done.wav","None","722.328148317","144","311232.950257","303499.649861","304266.397542","305033.173048","305798.597467","306566.041405","307332.603581","308099.230375","311999.467604","312765.829436","313532.864338","314299.75362","315066.039705","315832.641455","316599.384189","317366.365913","316609.470346","Mapping"
"Mixed","Both","done","44","M_jolt.wav","space","440.244395169","144","311232.950257","318132.791435","304266.397542","305033.173048","305798.597467","306566.041405","307332.603581","308099.230375","311999.467604","312765.829436","313532.864338","314299.75362","315066.039705","315832.641455","316599.384189","317366.365913","317376.160829","Mapping"
"Mixed","Both","done","44","M_done.wav","None","721.147106844","144","311232.950257","318132.791435","318899.357322","305033.173048","305798.597467","306566.041405","307332.603581","308099.230375","311999.467604","312765.829436","313532.864338","314299.75362","315066.039705","315832.641455","316599.384189","317366.365913","318143.316","Mapping"
"Mixed","Both","done","44","F_ball.wav","space","491.063812398","144","311232.950257","318132.791435","318899.357322","319665.725956","305798.597467","306566.041405","307332.603581","308099.230375","311999.467604","312765.829436","313532.864338","314299.75362","315066.039705","315832.641455","316599.384189","317366.365913","318909.347944","Mapping"
"Mixed","Both","done","44","M_bluff.wav","None","721.878610551","144","311232.950257","318132.791435","318899.357322","319665.725956","320432.837533","306566.041405","307332.603581","308099.230375","311999.467604","312765.829436","313532.864338","314299.75362","315066.039705","315832.641455","316599.384189","317366.365913","319675.247872","Mapping"
"Mixed","Both","done","44","F_bluff.wav","None","721.037350246","144","311232.950257","318132.791435","318899.357322","319665.725956","320432.837533","321199.496171","307332.603581","308099.230375","311999.467604","312765.829436","313532.864338","314299.75362","315066.039705","315832.641455","316599.384189","317366.365913","320442.865256","Mapping"
"Mixed","Both","done","44","F_depth.wav","None","721.914783819","144","311232.950257","318132.791435","318899.357322","319665.725956","320432.837533","321199.496171","321966.220973","308099.230375","311999.467604","312765.829436","313532.864338","314299.75362","315066.039705","315832.641455","316599.384189","317366.365913","321209.925202","Mapping"
"Mixed","Both","done","44","F_knife.wav","None","722.24683594","144","311232.950257","318132.791435","318899.357322","319665.725956","320432.837533","321199.496171","321966.220973","322732.623925","311999.467604","312765.829436","313532.864338","314299.75362","315066.039705","315832.641455","316599.384189","317366.365913","321976.403592","Mapping"
"Mixed","Both","ball","12","F_dime.wav","None","722.74182213","144","325865.988877","318132.791435","318899.357322","319665.725956","320432.837533","321199.496171","321966.220973","322732.623925","311999.467604","312765.829436","313532.864338","314299.75362","315066.039705","315832.641455","316599.384189","317366.365913","322742.753367","Mapping"
"Mixed","Both","ball","12","F_priest.wav","None","722.753570764","144","325865.988877","318132.791435","318899.357322","319665.725956","320432.837533","321199.496171","321966.220973","322732.623925","326632.314535","312765.829436","313532.864338","314299.75362","315066.039705","315832.641455","316599.384189","317366.365913","325875.85954","Mapping"
"Mixed","Both","ball","12","F_ball.wav","None","723.255358869","144","325865.988877","318132.791435","318899.357322","319665.725956","320432.837533","321199.496171","321966.220973","322732.623925","326632.314535","327398.629064","313532.864338","314299.75362","315066.039705","315832.641455","316599.384189","317366.365913","326642.608457","Mapping"
"Mixed","Both","ball","12","M_cave.wav","space","688.126172405","144","325865.988877","318132.791435","318899.357322","319665.725956","320432.837533","321199.496171","321966.220973","322732.623925","326632.314535","327398.629064","328165.949024","314299.75362","315066.039705","315832.641455","316599.384189","317366.365913","327408.103368","Mapping"
"Mixed","Both","ball","12","F_ball.wav","None","722.520145006","144","325865.988877","318132.791435","318899.357322","319665.725956","320432.837533","321199.496171","321966.220973","322732.623925","326632.314535","327398.629064","328165.949024","328932.525732","315066.039705","315832.641455","316599.384189","317366.365913","328176.145247","Mapping"
"Mixed","Both","ball","12","M_tile.wav","space","457.307664212","144","325865.988877","318132.791435","318899.357322","319665.725956","320432.837533","321199.496171","321966.220973","322732.623925","326632.314535","327398.629064","328165.949024","328932.525732","329698.903332","315832.641455","316599.384189","317366.365913","328942.907459","Mapping"
"Mixed","Both","ball","12","M_ball.wav","None","723.125815275","144","325865.988877","318132.791435","318899.357322","319665.725956","320432.837533","321199.496171","321966.220973","322732.623925","326632.314535","327398.629064","328165.949024","328932.525732","329698.903332","330466.043353","316599.384189","317366.365913","329708.255203","Mapping"
"Mixed","Both","ball","12","M_gnash.wav","space","452.223620028","144","325865.988877","318132.791435","318899.357322","319665.725956","320432.837533","321199.496171","321966.220973","322732.623925","326632.314535","327398.629064","328165.949024","328932.525732","329698.903332","330466.043353","331232.095703","317366.365913","330475.956373","Mapping"
"Mixed","Both","ball","12","F_jaw.wav","None","722.572395229","144","325865.988877","318132.791435","318899.357322","319665.725956","320432.837533","321199.496171","321966.220973","322732.623925","326632.314535","327398.629064","328165.949024","328932.525732","329698.903332","330466.043353","331232.095703","331999.098451","331241.902986","Mapping"
"Mixed","Both","ball","12","F_romp.wav","None","722.649997682","144","325865.988877","332765.763582","318899.357322","319665.725956","320432.837533","321199.496171","321966.220973","322732.623925","326632.314535","327398.629064","328165.949024","328932.525732","329698.903332","330466.043353","331232.095703","331999.098451","332008.830605","Mapping"
"Mixed","Both","ball","12","M_depth.wav","None","722.424919601","144","325865.988877","332765.763582","333532.465196","319665.725956","320432.837533","321199.496171","321966.220973","322732.623925","326632.314535","327398.629064","328165.949024","328932.525732","329698.903332","330466.043353","331232.095703","331999.098451","332776.080383","Mapping"
"Mixed","Both","ball","12","M_ball.wav","None","722.420281963","144","325865.988877","332765.763582","333532.465196","334299.118269","320432.837533","321199.496171","321966.220973","322732.623925","326632.314535","327398.629064","328165.949024","328932.525732","329698.903332","330466.043353","331232.095703","331999.098451","333542.987905","Mapping"
"Mixed","Both","ball","12","M_jaw.wav","space","458.884138265","144","325865.988877","332765.763582","333532.465196","334299.118269","335065.819882","321199.496171","321966.220973","322732.623925","326632.314535","327398.629064","328165.949024","328932.525732","329698.903332","330466.043353","331232.095703","331999.098451","334309.25173","Mapping"
"Mixed","Both","ball","12","F_gnash.wav","None","722.498502815","144","325865.988877","332765.763582","333532.465196","334299.118269","335065.819882","335832.327335","321966.220973","322732.623925","326632.314535","327398.629064","328165.949024","328932.525732","329698.903332","330466.043353","331232.095703","331999.098451","335075.837094","Mapping"
"Mixed","Both","ball","12","F_lash.wav","None","723.011421156","144","325865.988877","332765.763582","333532.465196","334299.118269","335065.819882","335832.327335","336599.068832","322732.623925","326632.314535","327398.629064","328165.949024","328932.525732","329698.903332","330466.043353","331232.095703","331999.098451","335842.233554","Mapping"
"Mixed","Both","ball","12","M_romp.wav","None","722.769956803","144","325865.988877","332765.763582","333532.465196","334299.118269","335065.819882","335832.327335","336599.068832","337364.728841","326632.314535","327398.629064","328165.949024","328932.525732","329698.903332","330466.043353","331232.095703","331999.098451","336609.405111","Mapping"
"Mixed","Both","done","48","F_park.wav","None","729.052047245","144","340498.996269","332765.763582","333532.465196","334299.118269","335065.819882","335832.327335","336599.068832","337364.728841","326632.314535","327398.629064","328165.949024","328932.525732","329698.903332","330466.043353","331232.095703","331999.098451","337374.167899","Mapping"
"Mixed","Both","done","48","M_done.wav","None","720.805470482","144","340498.996269","332765.763582","333532.465196","334299.118269","335065.819882","335832.327335","336599.068832","337364.728841","341265.488882","327398.629064","328165.949024","328932.525732","329698.903332","330466.043353","331232.095703","331999.098451","340510.142891","Mapping"
"Mixed","Both","done","48","M_lash.wav","space","516.258954769","144","340498.996269","332765.763582","333532.465196","334299.118269","335065.819882","335832.327335","336599.068832","337364.728841","341265.488882","342032.179983","328165.949024","328932.525732","329698.903332","330466.043353","331232.095703","331999.098451","341275.720969","Mapping"
"Mixed","Both","done","48","M_lash.wav","None","720.999631216","144","340498.996269","332765.763582","333532.465196","334299.118269","335065.819882","335832.327335","336599.068832","337364.728841","341265.488882","342032.179983","342798.940958","328932.525732","329698.903332","330466.043353","331232.095703","331999.098451","342042.83842","Mapping"
"Mixed","Both","done","48","M_cad.wav","None","722.020830261","144","340498.996269","332765.763582","333532.465196","334299.118269","335065.819882","335832.327335","336599.068832","337364.728841","341265.488882","342032.179983","342798.940958","343565.594959","329698.903332","330466.043353","331232.095703","331999.098451","342808.792144","Mapping"
"Mixed","Both","done","48","F_ball.wav","None","727.862348664","144","340498.996269","332765.763582","333532.465196","334299.118269","335065.819882","335832.327335","336599.068832","337364.728841","341265.488882","342032.179983","342798.940958","343565.594959","344332.258853","330466.043353","331232.095703","331999.098451","343569.983673","Mapping"
"Mixed","Both","done","48","M_greet.wav","None","722.56713931","144","340498.996269","332765.763582","333532.465196","334299.118269","335065.819882","335832.327335","336599.068832","337364.728841","341265.488882","342032.179983","342798.940958","343565.594959","344332.258853","345098.910999","331232.095703","331999.098451","344342.469298","Mapping"
"Mixed","Both","done","48","M_done.wav","None","722.485517501","144","340498.996269","332765.763582","333532.465196","334299.118269","335065.819882","335832.327335","336599.068832","337364.728841","341265.488882","342032.179983","342798.940958","343565.594959","344332.258853","345098.910999","345865.010034","331999.098451","345109.629725","Mapping"
"Mixed","Both","done","48","F_cad.wav","space","477.282726206","144","340498.996269","332765.763582","333532.465196","334299.118269","335065.819882","335832.327335","336599.068832","337364.728841","341265.488882","342032.179983","342798.940958","343565.594959","344332.258853","345098.910999","345865.010034","346631.749058","345874.633978","Mapping"
"Mixed","Both","done","48","F_done.wav","None","723.133235471","144","340498.996269","347398.866818","333532.465196","334299.118269","335065.819882","335832.327335","336599.068832","337364.728841","341265.488882","342032.179983","342798.940958","343565.594959","344332.258853","345098.910999","345865.010034","346631.749058","346641.855311","Mapping"
"Mixed","Both","done","48","F_lash.wav","space","463.246262982","144","340498.996269","347398.866818","348165.849161","334299.118269","335065.819882","335832.327335","336599.068832","337364.728841","341265.488882","342032.179983","342798.940958","343565.594959","344332.258853","345098.910999","345865.010034","346631.749058","347408.628653","Mapping"
"Mixed","Both","done","48","F_depth.wav","None","721.620141761","144","340498.996269","347398.866818","348165.849161","348932.278702","335065.819882","335832.327335","336599.068832","337364.728841","341265.488882","342032.179983","342798.940958","343565.594959","344332.258853","345098.910999","345865.010034","346631.749058","348176.474207","Mapping"
"Mixed","Both","done","48","M_dime.wav","None","723.48940291","144","340498.996269","347398.866818","348165.849161","348932.278702","349698.816454","335832.327335","336599.068832","337364.728841","341265.488882","342032.179983","342798.940958","343565.594959","344332.258853","345098.910999","345865.010034","346631.749058","348941.761354","Mapping"
"Mixed","Both","done","48","F_done.wav","None","723.510117619","144","340498.996269","347398.866818","348165.849161","348932.278702","349698.816454","350465.250014","336599.068832","337364.728841","341265.488882","342032.179983","342798.940958","343565.594959","344332.258853","345098.910999","345865.010034","346631.749058","349708.702885","Mapping"
"Mixed","Both","done","48","M_cad.wav","space","500.329424045","144","340498.996269","347398.866818","348165.849161","348932.278702","349698.816454","350465.250014","351232.26111","337364.728841","341265.488882","342032.179983","342798.940958","343565.594959","344332.258853","345098.910999","345865.010034","346631.749058","350475.494468","Mapping"
"Mixed","Both","done","48","F_romp.wav","None","722.913413192","144","340498.996269","347398.866818","348165.849161","348932.278702","349698.816454","350465.250014","351232.26111","351998.397864","341265.488882","342032.179983","342798.940958","343565.594959","344332.258853","345098.910999","345865.010034","346631.749058","351242.568327","Mapping"
"Mixed","Both","done","45","M_greet.wav","None","724.381058477","144","355132.255329","347398.866818","348165.849161","348932.278702","349698.816454","350465.250014","351232.26111","351998.397864","341265.488882","342032.179983","342798.940958","343565.594959","344332.258853","345098.910999","345865.010034","346631.749058","352008.138057","Mapping"
"Mixed","Both","done","45","F_done.wav","None","722.760063363","144","355132.255329","347398.866818","348165.849161","348932.278702","349698.816454","350465.250014","351232.26111","351998.397864","355898.72599","342032.179983","342798.940958","343565.594959","344332.258853","345098.910999","345865.010034","346631.749058","355141.864123","Mapping"
"Mixed","Both","done","45","F_reek.wav","space","378.888046253","144","355132.255329","347398.866818","348165.849161","348932.278702","349698.816454","350465.250014","351232.26111","351998.397864","355898.72599","356665.502733","342798.940958","343565.594959","344332.258853","345098.910999","345865.010034","346631.749058","355908.820495","Mapping"
"Mixed","Both","done","45","M_done.wav","None","722.660509637","144","355132.255329","347398.866818","348165.849161","348932.278702","349698.816454","350465.250014","351232.26111","351998.397864","355898.72599","356665.502733","357432.099536","343565.594959","344332.258853","345098.910999","345865.010034","346631.749058","356675.426265","Mapping"
"Mixed","Both","done","45","F_knife.wav","space","517.390837893","144","355132.255329","347398.866818","348165.849161","348932.278702","349698.816454","350465.250014","351232.26111","351998.397864","355898.72599","356665.502733","357432.099536","358198.525677","344332.258853","345098.910999","345865.010034","346631.749058","357442.33657","Mapping"
"Mixed","Both","done","45","F_done.wav","None","722.347626346","144","355132.255329","347398.866818","348165.849161","348932.278702","349698.816454","350465.250014","351232.26111","351998.397864","355898.72599","356665.502733","357432.099536","358198.525677","358965.27614","345098.910999","345865.010034","346631.749058","358208.606887","Mapping"
"Mixed","Both","done","45","F_tile.wav","space","397.900033742","144","355132.255329","347398.866818","348165.849161","348932.278702","349698.816454","350465.250014","351232.26111","351998.397864","355898.72599","356665.502733","357432.099536","358198.525677","358965.27614","359732.014545","345865.010034","346631.749058","358969.773064","Mapping"
"Mixed","Both","done","45","M_bluff.wav","None","722.211280838","144","355132.255329","347398.866818","348165.849161","348932.278702","349698.816454","350465.250014","351232.26111","351998.397864","355898.72599","356665.502733","357432.099536","358198.525677","358965.27614","359732.014545","360498.627116","346631.749058","359741.739897","Mapping"
"Mixed","Both","done","45","M_depth.wav","None","722.299704445","144","355132.255329","347398.866818","348165.849161","348932.278702","349698.816454","350465.250014","351232.26111","351998.397864","355898.72599","356665.502733","357432.099536","358198.525677","358965.27614","359732.014545","360498.627116","361265.174452","360508.696888","Mapping"
"Mixed","Both","done","45","M_reek.wav","None","723.566387082","144","355132.255329","362031.581115","348165.849161","348932.278702","349698.816454","350465.250014","351232.26111","351998.397864","355898.72599","356665.502733","357432.099536","358198.525677","358965.27614","359732.014545","360498.627116","361265.174452","361275.065831","Mapping"
"Mixed","Both","done","45","M_gnash.wav","None","724.291088991","144","355132.255329","362031.581115","362798.907567","348932.278702","349698.816454","350465.250014","351232.26111","351998.397864","355898.72599","356665.502733","357432.099536","358198.525677","358965.27614","359732.014545","360498.627116","361265.174452","362041.438484","Mapping"
"Mixed","Both","done","45","M_done.wav","None","724.409811548","144","355132.255329","362031.581115","362798.907567","363564.973212","349698.816454","350465.250014","351232.26111","351998.397864","355898.72599","356665.502733","357432.099536","358198.525677","358965.27614","359732.014545","360498.627116","361265.174452","362808.471222","Mapping"
"Mixed","Both","done","45","F_knife.wav","space","448.416770319","144","355132.255329","362031.581115","362798.907567","363564.973212","364331.525495","350465.250014","351232.26111","351998.397864","355898.72599","356665.502733","357432.099536","358198.525677","358965.27614","359732.014545","360498.627116","361265.174452","363575.173763","Mapping"
"Mixed","Both","done","45","M_ball.wav","None","724.529152387","144","355132.255329","362031.581115","362798.907567","363564.973212","364331.525495","365098.131574","351232.26111","351998.397864","355898.72599","356665.502733","357432.099536","358198.525677","358965.27614","359732.014545","360498.627116","361265.174452","364341.595884","Mapping"
"Mixed","Both","done","45","F_greet.wav","None","725.383088808","144","355132.255329","362031.581115","362798.907567","363564.973212","364331.525495","365098.131574","365864.810927","351998.397864","355898.72599","356665.502733","357432.099536","358198.525677","358965.27614","359732.014545","360498.627116","361265.174452","365107.757681","Mapping"
"Mixed","Both","done","45","F_cad.wav","None","725.61033105","144","355132.255329","362031.581115","362798.907567","363564.973212","364331.525495","365098.131574","365864.810927","366631.227173","355898.72599","356665.502733","357432.099536","358198.525677","358965.27614","359732.014545","360498.627116","361265.174452","365874.711889","Mapping"
"Mixed","Both","tile","25","M_romp.wav","None","726.917515392","144","369765.053102","362031.581115","362798.907567","363564.973212","364331.525495","365098.131574","365864.810927","366631.227173","355898.72599","356665.502733","357432.099536","358198.525677","358965.27614","359732.014545","360498.627116","361265.174452","366640.60316","Mapping"
"Mixed","Both","tile","25","M_tile.wav","None","722.061641165","144","369765.053102","362031.581115","362798.907567","363564.973212","364331.525495","365098.131574","365864.810927","366631.227173","370531.792435","356665.502733","357432.099536","358198.525677","358965.27614","359732.014545","360498.627116","361265.174452","369775.554788","Mapping"
"Mixed","Both","tile","25","M_greet.wav","space","617.17710644","144","369765.053102","362031.581115","362798.907567","363564.973212","364331.525495","365098.131574","365864.810927","366631.227173","370531.792435","371298.459421","357432.099536","358198.525677","358965.27614","359732.014545","360498.627116","361265.174452","370542.296903","Mapping"
"Mixed","Both","tile","25","F_tile.wav","None","722.377616097","144","369765.053102","362031.581115","362798.907567","363564.973212","364331.525495","365098.131574","365864.810927","366631.227173","370531.792435","371298.459421","372064.72881","358198.525677","358965.27614","359732.014545","360498.627116","361265.174452","371309.163615","Mapping"
"Mixed","Both","tile","25","F_romp.wav","space","468.976169825","144","369765.053102","362031.581115","362798.907567","363564.973212","364331.525495","365098.131574","365864.810927","366631.227173","370531.792435","371298.459421","372064.72881","372831.833276","358965.27614","359732.014545","360498.627116","361265.174452","372074.442414","Mapping"
"Mixed","Both","tile","25","F_park.wav","None","722.841994255","144","369765.053102","362031.581115","362798.907567","363564.973212","364331.525495","365098.131574","365864.810927","366631.227173","370531.792435","371298.459421","372064.72881","372831.833276","373598.034957","359732.014545","360498.627116","361265.174452","372842.119778","Mapping"
"Mixed","Both","tile","25","M_lash.wav","None","724.640145665","144","369765.053102","362031.581115","362798.907567","363564.973212","364331.525495","365098.131574","365864.810927","366631.227173","370531.792435","371298.459421","372064.72881","372831.833276","373598.034957","374364.523241","360498.627116","361265.174452","373607.551308","Mapping"
"Mixed","Both","tile","25","M_cling.wav","None","725.280134124","144","369765.053102","362031.581115","362798.907567","363564.973212","364331.525495","365098.131574","365864.810927","366631.227173","370531.792435","371298.459421","372064.72881","372831.833276","373598.034957","374364.523241","375131.369548","361265.174452","374374.50397","Mapping"
"Mixed","Both","tile","25","F_done.wav","None","725.670619868","144","369765.053102","362031.581115","362798.907567","363564.973212","364331.525495","365098.131574","365864.810927","366631.227173","370531.792435","371298.459421","372064.72881","372831.833276","373598.034957","374364.523241","375131.369548","375897.989539","375141.295862","Mapping"
"Mixed","Both","tile","25","M_tile.wav","None","726.173953852","144","369765.053102","376664.616951","362798.907567","363564.973212","364331.525495","365098.131574","365864.810927","366631.227173","370531.792435","371298.459421","372064.72881","372831.833276","373598.034957","374364.523241","375131.369548","375897.989539","375908.120836","Mapping"
"Mixed","Both","tile","25","F_bluff.wav","space","404.861686751","144","369765.053102","376664.616951","377431.725746","363564.973212","364331.525495","365098.131574","365864.810927","366631.227173","370531.792435","371298.459421","372064.72881","372831.833276","373598.034957","374364.523241","375131.369548","375897.989539","376674.498127","Mapping"
"Mixed","Both","tile","25","M_jolt.wav","None","726.017202949","144","369765.053102","376664.616951","377431.725746","378197.991116","364331.525495","365098.131574","365864.810927","366631.227173","370531.792435","371298.459421","372064.72881","372831.833276","373598.034957","374364.523241","375131.369548","375897.989539","377441.487581","Mapping"
"Mixed","Both","tile","25","F_tile.wav","None","726.930809789","144","369765.053102","376664.616951","377431.725746","378197.991116","378964.531032","365098.131574","365864.810927","366631.227173","370531.792435","371298.459421","372064.72881","372831.833276","373598.034957","374364.523241","375131.369548","375897.989539","378207.77181","Mapping"
"Mixed","Both","tile","25","F_cave.wav","space","521.058868733","144","369765.053102","376664.616951","377431.725746","378197.991116","378964.531032","379731.269128","365864.810927","366631.227173","370531.792435","371298.459421","372064.72881","372831.833276","373598.034957","374364.523241","375131.369548","375897.989539","378974.229177","Mapping"
"Mixed","Both","tile","25","M_jaw.wav","None","727.136719157","144","369765.053102","376664.616951","377431.725746","378197.991116","378964.531032","379731.269128","380497.920965","366631.227173","370531.792435","371298.459421","372064.72881","372831.833276","373598.034957","374364.523241","375131.369548","375897.989539","379741.101454","Mapping"
"Mixed","Both","tile","25","F_knife.wav","None","727.713945555","144","369765.053102","376664.616951","377431.725746","378197.991116","378964.531032","379731.269128","380497.920965","381264.482214","370531.792435","371298.459421","372064.72881","372831.833276","373598.034957","374364.523241","375131.369548","375897.989539","380507.961364","Mapping"
"Mixed","Both","done","37","F_gnash.wav","None","729.422745877","144","384398.194676","376664.616951","377431.725746","378197.991116","378964.531032","379731.269128","380497.920965","381264.482214","370531.792435","371298.459421","372064.72881","372831.833276","373598.034957","374364.523241","375131.369548","375897.989539","381274.231681","Mapping"
"Mixed","Both","done","37","F_done.wav","None","722.266313736","144","384398.194676","376664.616951","377431.725746","378197.991116","378964.531032","379731.269128","380497.920965","381264.482214","385164.999244","371298.459421","372064.72881","372831.833276","373598.034957","374364.523241","375131.369548","375897.989539","384408.088527","Mapping"
"Mixed","Both","done","37","M_bluff.wav","space","464.382474427","144","384398.194676","376664.616951","377431.725746","378197.991116","378964.531032","379731.269128","380497.920965","381264.482214","385164.999244","385931.952525","372064.72881","372831.833276","373598.034957","374364.523241","375131.369548","375897.989539","385174.830643","Mapping"
"Mixed","Both","done","37","F_cad.wav","None","721.319007105","144","384398.194676","376664.616951","377431.725746","378197.991116","378964.531032","379731.269128","380497.920965","381264.482214","385164.999244","385931.952525","386698.170591","372831.833276","373598.034957","374364.523241","375131.369548","375897.989539","385942.193578","Mapping"
"Mixed","Both","done","37","F_greet.wav","None","722.962880973","144","384398.194676","376664.616951","377431.725746","378197.991116","378964.531032","379731.269128","380497.920965","381264.482214","385164.999244","385931.952525","386698.170591","387464.101745","373598.034957","374364.523241","375131.369548","375897.989539","386707.850186","Mapping"
"Mixed","Both","done","37","F_done.wav","None","724.925512448","144","384398.194676","376664.616951","377431.725746","378197.991116","378964.531032","379731.269128","380497.920965","381264.482214","385164.999244","385931.952525","386698.170591","387464.101745","388231.110677","374364.523241","375131.369548","375897.989539","387473.163921","Mapping"
"Mixed","Both","done","37","M_cad.wav","space","397.984747309","144","384398.194676","376664.616951","377431.725746","378197.991116","378964.531032","379731.269128","380497.920965","381264.482214","385164.999244","385931.952525","386698.170591","387464.101745","388231.110677","388997.73036","375131.369548","375897.989539","388241.150767","Mapping"
"Mixed","Both","done","37","M_done.wav","None","723.657283932","144","384398.194676","376664.616951","377431.725746","378197.991116","378964.531032","379731.269128","380497.920965","381264.482214","385164.999244","385931.952525","386698.170591","387464.101745","388231.110677","388997.73036","389764.184325","375897.989539","389007.57227","Mapping"
"Mixed","Both","done","37","F_cave.wav","space","505.799625418","144","384398.194676","376664.616951","377431.725746","378197.991116","378964.531032","379731.269128","380497.920965","381264.482214","385164.999244","385931.952525","386698.170591","387464.101745","388231.110677","388997.73036","389764.184325","390531.387109","389773.319157","Mapping"
"Mixed","Both","done","37","M_greet.wav","None","723.124578595","144","384398.194676","391297.704729","377431.725746","378197.991116","378964.531032","379731.269128","380497.920965","381264.482214","385164.999244","385931.952525","386698.170591","387464.101745","388231.110677","388997.73036","389764.184325","390531.387109","390541.38948","Mapping"
"Mixed","Both","done","37","M_done.wav","None","724.665497779","144","384398.194676","391297.704729","392064.367078","378197.991116","378964.531032","379731.269128","380497.920965","381264.482214","385164.999244","385931.952525","386698.170591","387464.101745","388231.110677","388997.73036","389764.184325","390531.387109","391307.296209","Mapping"
"Mixed","Both","done","37","F_gnash.wav","space","444.873336353","144","384398.194676","391297.704729","392064.367078","392831.053542","378964.531032","379731.269128","380497.920965","381264.482214","385164.999244","385931.952525","386698.170591","387464.101745","388231.110677","388997.73036","389764.184325","390531.387109","392074.20435","Mapping"
"Mixed","Both","done","37","M_ball.wav","None","724.607682321","144","384398.194676","391297.704729","392064.367078","392831.053542","393597.650655","379731.269128","380497.920965","381264.482214","385164.999244","385931.952525","386698.170591","387464.101745","388231.110677","388997.73036","389764.184325","390531.387109","392840.557526","Mapping"
"Mixed","Both","done","37","F_reek.wav","None","724.978999351","144","384398.194676","391297.704729","392064.367078","392831.053542","393597.650655","394364.334955","380497.920965","381264.482214","385164.999244","385931.952525","386698.170591","387464.101745","388231.110677","388997.73036","389764.184325","390531.387109","393607.388374","Mapping"
"Mixed","Both","done","37","M_cling.wav","None","725.795216626","144","384398.194676","391297.704729","392064.367078","392831.053542","393597.650655","394364.334955","395130.980299","381264.482214","385164.999244","385931.952525","386698.170591","387464.101745","388231.110677","388997.73036","389764.184325","390531.387109","394374.049486","Mapping"
"Mixed","Both","done","37","M_cad.wav","None","726.280309376","144","384398.194676","391297.704729","392064.367078","392831.053542","393597.650655","394364.334955","395130.980299","395897.623478","385164.999244","385931.952525","386698.170591","387464.101745","388231.110677","388997.73036","389764.184325","390531.387109","395140.933202","Mapping"
"Mixed","Both","cave","21","F_park.wav","None","726.713461103","144","399031.428692","391297.704729","392064.367078","392831.053542","393597.650655","394364.334955","395130.980299","395897.623478","385164.999244","385931.952525","386698.170591","387464.101745","388231.110677","388997.73036","389764.184325","390531.387109","395907.740553","Mapping"
"Mixed","Both","cave","21","M_lash.wav","None","722.839211696","144","399031.428692","391297.704729","392064.367078","392831.053542","393597.650655","394364.334955","395130.980299","395897.623478","399797.913885","385931.952525","386698.170591","387464.101745","388231.110677","388997.73036","389764.184325","390531.387109","399041.06222","Mapping"
"Mixed","Both","cave","21","M_gnash.wav","None","723.214238766","144","399031.428692","391297.704729","392064.367078","392831.053542","393597.650655","394364.334955","395130.980299","395897.623478","399797.913885","400564.529857","386698.170591","387464.101745","388231.110677","388997.73036","389764.184325","390531.387109","399807.949647","Mapping"
"Mixed","Both","cave","21","F_priest.wav","None","724.080851302","144","399031.428692","391297.704729","392064.367078","392831.053542","393597.650655","394364.334955","395130.980299","395897.623478","399797.913885","400564.529857","401330.979804","387464.101745","388231.110677","388997.73036","389764.184325","390531.387109","400574.326628","Mapping"
"Mixed","Both","cave","21","M_cave.wav","None","724.718675599","144","399031.428692","391297.704729","392064.367078","392831.053542","393597.650655","394364.334955","395130.980299","395897.623478","399797.913885","400564.529857","401330.979804","402097.453248","388231.110677","388997.73036","389764.184325","390531.387109","401340.925597","Mapping"
"Mixed","Both","cave","21","F_jaw.wav","space","347.734208684","144","399031.428692","391297.704729","392064.367078","392831.053542","393597.650655","394364.334955","395130.980299","395897.623478","399797.913885","400564.529857","401330.979804","402097.453248","402864.142185","388997.73036","389764.184325","390531.387109","402107.138098","Mapping"
"Mixed","Both","cave","21","F_depth.wav","None","724.880064023","144","399031.428692","391297.704729","392064.367078","392831.053542","393597.650655","394364.334955","395130.980299","395897.623478","399797.913885","400564.529857","401330.979804","402097.453248","402864.142185","403630.834833","389764.184325","390531.387109","402873.910821","Mapping"
"Mixed","Both","cave","21","M_priest.wav","None","726.159731974","144","399031.428692","391297.704729","392064.367078","392831.053542","393597.650655","394364.334955","395130.980299","395897.623478","399797.913885","400564.529857","401330.979804","402097.453248","402864.142185","403630.834833","404397.503365","390531.387109","403640.06458","Mapping"
"Mixed","Both","cave","21","F_cave.wav","None","726.461175829","144","399031.428692","391297.704729","392064.367078","392831.053542","393597.650655","394364.334955","395130.980299","395897.623478","399797.913885","400564.529857","401330.979804","402097.453248","402864.142185","403630.834833","404397.503365","405163.901061","404407.060836","Mapping"
"Mixed","Both","cave","21","M_jaw.wav","space","416.969218408","144","399031.428692","405930.789106","392064.367078","392831.053542","393597.650655","394364.334955","395130.980299","395897.623478","399797.913885","400564.529857","401330.979804","402097.453248","402864.142185","403630.834833","404397.503365","405163.901061","405173.884263","Mapping"
"Mixed","Both","cave","21","F_romp.wav","None","726.843932178","144","399031.428692","405930.789106","406697.463821","392831.053542","393597.650655","394364.334955","395130.980299","395897.623478","399797.913885","400564.529857","401330.979804","402097.453248","402864.142185","403630.834833","404397.503365","405163.901061","405940.23682","Mapping"
"Mixed","Both","cave","21","F_cave.wav","None","726.892472361","144","399031.428692","405930.789106","406697.463821","407464.162034","393597.650655","394364.334955","395130.980299","395897.623478","399797.913885","400564.529857","401330.979804","402097.453248","402864.142185","403630.834833","404397.503365","405163.901061","406707.455372","Mapping"
"Mixed","Both","cave","21","M_depth.wav","space","476.995813427","144","399031.428692","405930.789106","406697.463821","407464.162034","408230.766258","394364.334955","395130.980299","395897.623478","399797.913885","400564.529857","401330.979804","402097.453248","402864.142185","403630.834833","404397.503365","405163.901061","407473.832972","Mapping"
"Mixed","Both","cave","21","M_cave.wav","None","726.798792835","144","399031.428692","405930.789106","406697.463821","407464.162034","408230.766258","408997.092844","395130.980299","395897.623478","399797.913885","400564.529857","401330.979804","402097.453248","402864.142185","403630.834833","404397.503365","405163.901061","408240.781924","Mapping"
"Mixed","Both","cave","21","F_reek.wav","space","608.23303496","144","399031.428692","405930.789106","406697.463821","407464.162034","408230.766258","408997.092844","409763.705416","395897.623478","399797.913885","400564.529857","401330.979804","402097.453248","402864.142185","403630.834833","404397.503365","405163.901061","409006.545197","Mapping"
"Mixed","Both","cave","21","M_done.wav","None","728.28375164","144","399031.428692","405930.789106","406697.463821","407464.162034","408230.766258","408997.092844","409763.705416","410530.731661","399797.913885","400564.529857","401330.979804","402097.453248","402864.142185","403630.834833","404397.503365","405163.901061","409772.782741","Mapping"
"Mixed","Both","cave","18","F_knife.wav","None","727.629541303","144","413664.30716","405930.789106","406697.463821","407464.162034","408230.766258","408997.092844","409763.705416","410530.731661","399797.913885","400564.529857","401330.979804","402097.453248","402864.142185","403630.834833","404397.503365","405163.901061","410540.828949","Mapping"
"Mixed","Both","cave","18","F_cave.wav","None","722.113273107","144","413664.30716","405930.789106","406697.463821","407464.162034","408230.766258","408997.092844","409763.705416","410530.731661","414430.869955","400564.529857","401330.979804","402097.453248","402864.142185","403630.834833","404397.503365","405163.901061","413674.715785","Mapping"
"Mixed","Both","cave","18","F_reek.wav","space","414.044749108","144","413664.30716","405930.789106","406697.463821","407464.162034","408230.766258","408997.092844","409763.705416","410530.731661","414430.869955","415197.490256","401330.979804","402097.453248","402864.142185","403630.834833","404397.503365","405163.901061","414440.641064","Mapping"
"Mixed","Both","cave","18","M_cave.wav","None","722.679369152","144","413664.30716","405930.789106","406697.463821","407464.162034","408230.766258","408997.092844","409763.705416","410530.731661","414430.869955","415197.490256","415963.999563","402097.453248","402864.142185","403630.834833","404397.503365","405163.901061","415207.298775","Mapping"
"Mixed","Both","cave","18","M_bluff.wav","space","409.093649476","144","413664.30716","405930.789106","406697.463821","407464.162034","408230.766258","408997.092844","409763.705416","410530.731661","414430.869955","415197.490256","415963.999563","416730.92069","402864.142185","403630.834833","404397.503365","405163.901061","415973.567546","Mapping"
"Mixed","Both","cave","18","M_cave.wav","None","722.399876569","144","413664.30716","405930.789106","406697.463821","407464.162034","408230.766258","408997.092844","409763.705416","410530.731661","414430.869955","415197.490256","415963.999563","416730.92069","417497.164727","403630.834833","404397.503365","405163.901061","416741.230689","Mapping"
"Mixed","Both","cave","18","F_ball.wav","space","387.436685152","144","413664.30716","405930.789106","406697.463821","407464.162034","408230.766258","408997.092844","409763.705416","410530.731661","414430.869955","415197.490256","415963.999563","416730.92069","417497.164727","418264.096984","404397.503365","405163.901061","417507.183176","Mapping"
"Mixed","Both","cave","18","M_priest.wav","None","723.271126626","144","413664.30716","405930.789106","406697.463821","407464.162034","408230.766258","408997.092844","409763.705416","410530.731661","414430.869955","415197.490256","415963.999563","416730.92069","417497.164727","418264.096984","419030.569191","405163.901061","418274.355351","Mapping"
"Mixed","Both","cave","18","F_gnash.wav","None","724.422796862","144","413664.30716","405930.789106","406697.463821","407464.162034","408230.766258","408997.092844","409763.705416","410530.731661","414430.869955","415197.490256","415963.999563","416730.92069","417497.164727","418264.096984","419030.569191","419797.190729","419040.495506","Mapping"
"Mixed","Both","cave","18","F_cave.wav","None","725.144716329","144","413664.30716","420563.5303","406697.463821","407464.162034","408230.766258","408997.092844","409763.705416","410530.731661","414430.869955","415197.490256","415963.999563","416730.92069","417497.164727","418264.096984","419030.569191","419797.190729","419807.116116","Mapping"
"Mixed","Both","cave","18","M_cling.wav","space","385.965020745","144","413664.30716","420563.5303","421330.472451","407464.162034","408230.766258","408997.092844","409763.705416","410530.731661","414430.869955","415197.490256","415963.999563","416730.92069","417497.164727","418264.096984","419030.569191","419797.190729","420572.674407","Mapping"
"Mixed","Both","cave","18","M_park.wav","None","725.088137551","144","413664.30716","420563.5303","421330.472451","422097.106664","408230.766258","408997.092844","409763.705416","410530.731661","414430.869955","415197.490256","415963.999563","416730.92069","417497.164727","418264.096984","419030.569191","419797.190729","421340.427828","Mapping"
"Mixed","Both","cave","18","M_greet.wav","None","726.018439629","144","413664.30716","420563.5303","421330.472451","422097.106664","422863.841669","408997.092844","409763.705416","410530.731661","414430.869955","415197.490256","415963.999563","416730.92069","417497.164727","418264.096984","419030.569191","419797.190729","422106.839128","Mapping"
"Mixed","Both","cave","18","F_knife.wav","None","726.77622328","144","413664.30716","420563.5303","421330.472451","422097.106664","422863.841669","423630.253587","409763.705416","410530.731661","414430.869955","415197.490256","415963.999563","416730.92069","417497.164727","418264.096984","419030.569191","419797.190729","422873.56362","Mapping"
"Mixed","Both","cave","18","M_depth.wav","None","728.087117663","144","413664.30716","420563.5303","421330.472451","422097.106664","422863.841669","423630.253587","424397.055373","410530.731661","414430.869955","415197.490256","415963.999563","416730.92069","417497.164727","418264.096984","419030.569191","419797.190729","423639.75046","Mapping"
"Mixed","Both","cave","18","F_knife.wav","None","728.313123109","144","413664.30716","420563.5303","421330.472451","422097.106664","422863.841669","423630.253587","424397.055373","425163.479039","414430.869955","415197.490256","415963.999563","416730.92069","417497.164727","418264.096984","419030.569191","419797.190729","424407.13411","Mapping"
"Mixed","Both","tile","35","M_romp.wav","None","729.75881712","144","428297.426164","420563.5303","421330.472451","422097.106664","422863.841669","423630.253587","424397.055373","425163.479039","414430.869955","415197.490256","415963.999563","416730.92069","417497.164727","418264.096984","419030.569191","419797.190729","425172.985806","Mapping"
"Mixed","Both","tile","35","M_tile.wav","None","721.977236797","144","428297.426164","420563.5303","421330.472451","422097.106664","422863.841669","423630.253587","424397.055373","425163.479039","429063.879511","415197.490256","415963.999563","416730.92069","417497.164727","418264.096984","419030.569191","419797.190729","428307.612493","Mapping"
"Mixed","Both","tile","35","M_priest.wav","space","444.271066925","144","428297.426164","420563.5303","421330.472451","422097.106664","422863.841669","423630.253587","424397.055373","425163.479039","429063.879511","429830.894936","415963.999563","416730.92069","417497.164727","418264.096984","419030.569191","419797.190729","429074.149318","Mapping"
"Mixed","Both","tile","35","F_priest.wav","None","722.134296899","144","428297.426164","420563.5303","421330.472451","422097.106664","422863.841669","423630.253587","424397.055373","425163.479039","429063.879511","429830.894936","430597.469788","416730.92069","417497.164727","418264.096984","419030.569191","419797.190729","429840.891433","Mapping"
"Mixed","Both","tile","35","F_depth.wav","None","722.942784778","144","428297.426164","420563.5303","421330.472451","422097.106664","422863.841669","423630.253587","424397.055373","425163.479039","429063.879511","429830.894936","430597.469788","431363.414546","417497.164727","418264.096984","419030.569191","419797.190729","430607.747633","Mapping"
"Mixed","Both","tile","35","M_tile.wav","None","725.391745684","144","428297.426164","420563.5303","421330.472451","422097.106664","422863.841669","423630.253587","424397.055373","425163.479039","429063.879511","429830.894936","430597.469788","431363.414546","432130.111831","418264.096984","419030.569191","419797.190729","431372.887922","Mapping"
"Mixed","Both","tile","35","M_park.wav","space","514.68124392","144","428297.426164","420563.5303","421330.472451","422097.106664","422863.841669","423630.253587","424397.055373","425163.479039","429063.879511","429830.894936","430597.469788","431363.414546","432130.111831","432896.574763","419030.569191","419797.190729","432139.621071","Mapping"
"Mixed","Both","tile","35","M_greet.wav","None","726.806522231","144","428297.426164","420563.5303","421330.472451","422097.106664","422863.841669","423630.253587","424397.055373","425163.479039","429063.879511","429830.894936","430597.469788","431363.414546","432130.111831","432896.574763","433663.290289","419797.190729","432905.543877","Mapping"
"Mixed","Both","tile","35","F_bluff.wav","None","727.025416796","144","428297.426164","420563.5303","421330.472451","422097.106664","422863.841669","423630.253587","424397.055373","425163.479039","429063.879511","429830.894936","430597.469788","431363.414546","432130.111831","432896.574763","433663.290289","434430.528318","433672.97885","Mapping"
"Mixed","Both","tile","35","F_tile.wav","None","726.798174554","144","428297.426164","435196.632609","421330.472451","422097.106664","422863.841669","423630.253587","424397.055373","425163.479039","429063.879511","429830.894936","430597.469788","431363.414546","432130.111831","432896.574763","433663.290289","434430.528318","434440.793796","Mapping"
"Mixed","Both","tile","35","F_depth.wav","space","336.153508164","144","428297.426164","435196.632609","435963.162322","422097.106664","422863.841669","423630.253587","424397.055373","425163.479039","429063.879511","429830.894936","430597.469788","431363.414546","432130.111831","432896.574763","433663.290289","434430.528318","435206.157308","Mapping"
"Mixed","Both","tile","35","M_gnash.wav","None","728.083407506","144","428297.426164","435196.632609","435963.162322","436730.262151","422863.841669","423630.253587","424397.055373","425163.479039","429063.879511","429830.894936","430597.469788","431363.414546","432130.111831","432896.574763","433663.290289","434430.528318","435973.208906","Mapping"
"Mixed","Both","tile","35","M_done.wav","None","728.858813876","144","428297.426164","435196.632609","435963.162322","436730.262151","437496.911205","423630.253587","424397.055373","425163.479039","429063.879511","429830.894936","430597.469788","431363.414546","432130.111831","432896.574763","433663.290289","434430.528318","436740.163423","Mapping"
"Mixed","Both","tile","35","F_tile.wav","None","730.178055936","144","428297.426164","435196.632609","435963.162322","436730.262151","437496.911205","438263.559023","424397.055373","425163.479039","429063.879511","429830.894936","430597.469788","431363.414546","432130.111831","432896.574763","433663.290289","434430.528318","437506.658199","Mapping"
"Mixed","Both","tile","35","F_ball.wav","space","300.994950347","144","428297.426164","435196.632609","435963.162322","436730.262151","437496.911205","438263.559023","439030.176232","425163.479039","429063.879511","429830.894936","430597.469788","431363.414546","432130.111831","432896.574763","433663.290289","434430.528318","438273.262733","Mapping"
