"Condition","Talker","Target","Trial","current_stimulus","response_response","response_time_response","subject_nr","time_Audio1","time_Audio10","time_Audio11","time_Audio12","time_Audio13","time_Audio14","time_Audio15","time_Audio16","time_Audio2","time_Audio3","time_Audio4","time_Audio5","time_Audio6","time_Audio7","time_Audio8","time_Audio9","time_response"
"Mixed","Female","cave","23","M_romp.wav","NA","NA","207","804130.310226","NA","NA","NA","NA","NA","NA","NA","NA","NA","NA","NA","NA","NA","NA","NA","NA"
"Mixed","Female","cave","23","F_ball.wav","None","720.481702709","207","804130.310226","NA","NA","NA","NA","NA","NA","NA","804880.635708","NA","NA","NA","NA","NA","NA","NA","804142.999892"
"Mixed","Female","cave","23","F_ball.wav","None","736.964911688","207","804130.310226","NA","NA","NA","NA","NA","NA","NA","804880.635708","805647.270643","NA","NA","NA","NA","NA","NA","804890.19655"
"Mixed","Female","cave","23","F_cave.wav","None","733.254226507","207","804130.310226","NA","NA","NA","NA","NA","NA","NA","804880.635708","805647.270643","806413.886409","NA","NA","NA","NA","NA","805657.530833"
"Mixed","Female","cave","23","M_jaw.wav","space","477.273521246","207","804130.310226","NA","NA","NA","NA","NA","NA","NA","804880.635708","805647.270643","806413.886409","807180.458274","NA","NA","NA","NA","806424.046428"
"Mixed","Female","cave","23","F_cave.wav","None","727.850513998","207","804130.310226","NA","NA","NA","NA","NA","NA","NA","804880.635708","805647.270643","806413.886409","807180.458274","807947.169574","NA","NA","NA","807190.399089"
"Mixed","Female","cave","23","M_greet.wav","None","725.263978937","207","804130.310226","NA","NA","NA","NA","NA","NA","NA","804880.635708","805647.270643","806413.886409","807180.458274","807947.169574","808713.957241","NA","NA","807956.603656"
"Mixed","Female","cave","23","M_ball.wav","None","722.470607725","207","804130.310226","NA","NA","NA","NA","NA","NA","NA","804880.635708","805647.270643","806413.886409","807180.458274","807947.169574","808713.957241","809463.955308","NA","808723.211075"
"Mixed","Female","cave","23","F_cave.wav","None","734.93890604","207","804130.310226","NA","NA","NA","NA","NA","NA","NA","804880.635708","805647.270643","806413.886409","807180.458274","807947.169574","808713.957241","809463.955308","810230.653624","809474.38678"
"Mixed","Female","cave","23","M_lash.wav","space","436.711977934","207","804130.310226","810997.192407","NA","NA","NA","NA","NA","NA","804880.635708","805647.270643","806413.886409","807180.458274","807947.169574","808713.957241","809463.955308","810230.653624","810240.569087"
"Mixed","Female","cave","23","M_gnash.wav","None","730.317708454","207","804130.310226","810997.192407","811763.792406","NA","NA","NA","NA","NA","804880.635708","805647.270643","806413.886409","807180.458274","807947.169574","808713.957241","809463.955308","810230.653624","811006.431401"
"Mixed","Female","cave","23","F_tile.wav","None","728.068789584","207","804130.310226","810997.192407","811763.792406","812530.532459","NA","NA","NA","NA","804880.635708","805647.270643","806413.886409","807180.458274","807947.169574","808713.957241","809463.955308","810230.653624","811772.981932"
"Mixed","Female","cave","23","M_done.wav","None","725.374662667","207","804130.310226","810997.192407","811763.792406","812530.532459","813297.74802","NA","NA","NA","804880.635708","805647.270643","806413.886409","807180.458274","807947.169574","808713.957241","809463.955308","810230.653624","812539.438475"
"Mixed","Female","cave","23","F_cave.wav","None","720.417085686","207","804130.310226","810997.192407","811763.792406","812530.532459","813297.74802","814047.992498","NA","NA","804880.635708","805647.270643","806413.886409","807180.458274","807947.169574","808713.957241","809463.955308","810230.653624","813308.252147"
"Mixed","Female","cave","23","F_jolt.wav","space","395.528689143","207","804130.310226","810997.192407","811763.792406","812530.532459","813297.74802","814047.992498","814814.205413","NA","804880.635708","805647.270643","806413.886409","807180.458274","807947.169574","808713.957241","809463.955308","810230.653624","814057.652585"
"Mixed","Female","cave","23","M_cling.wav","None","732.296720031","207","804130.310226","810997.192407","811763.792406","812530.532459","813297.74802","814047.992498","814814.205413","815580.490675","804880.635708","805647.270643","806413.886409","807180.458274","807947.169574","808713.957241","809463.955308","810230.653624","814823.905693"
"Mixed","Male","tile","25","M_reek.wav","None","730.366248521","207","818730.743748","810997.192407","811763.792406","812530.532459","813297.74802","814047.992498","814814.205413","815580.490675","804880.635708","805647.270643","806413.886409","807180.458274","807947.169574","808713.957241","809463.955308","810230.653624","815589.58745"
"Mixed","Male","tile","25","M_tile.wav","None","719.914990012","207","818730.743748","810997.192407","811763.792406","812530.532459","813297.74802","814047.992498","814814.205413","815580.490675","819480.678744","805647.270643","806413.886409","807180.458274","807947.169574","808713.957241","809463.955308","810230.653624","818740.863265"
"Mixed","Male","tile","25","F_cave.wav","space","503.854295705","207","818730.743748","810997.192407","811763.792406","812530.532459","813297.74802","814047.992498","814814.205413","815580.490675","819480.678744","820247.467029","806413.886409","807180.458274","807947.169574","808713.957241","809463.955308","810230.653624","819485.220175"
"Mixed","Male","tile","25","M_greet.wav","None","731.851202785","207","818730.743748","810997.192407","811763.792406","812530.532459","813297.74802","814047.992498","814814.205413","815580.490675","819480.678744","820247.467029","821014.607152","807180.458274","807947.169574","808713.957241","809463.955308","810230.653624","820257.119696"
"Mixed","Male","tile","25","M_jaw.wav","None","728.624062962","207","818730.743748","810997.192407","811763.792406","812530.532459","813297.74802","814047.992498","814814.205413","815580.490675","819480.678744","820247.467029","821014.607152","821780.787913","807947.169574","808713.957241","809463.955308","810230.653624","821023.974452"
"Mixed","Male","tile","25","F_cad.wav","None","725.572842057","207","818730.743748","810997.192407","811763.792406","812530.532459","813297.74802","814047.992498","814814.205413","815580.490675","819480.678744","820247.467029","821014.607152","821780.787913","822547.597531","808713.957241","809463.955308","810230.653624","821790.943603"
"Mixed","Male","tile","25","M_tile.wav","None","722.635087441","207","818730.743748","810997.192407","811763.792406","812530.532459","813297.74802","814047.992498","814814.205413","815580.490675","819480.678744","820247.467029","821014.607152","821780.787913","822547.597531","823314.547512","809463.955308","810230.653624","822557.806089"
"Mixed","Male","tile","25","F_knife.wav","space","384.110958199","207","818730.743748","810997.192407","811763.792406","812530.532459","813297.74802","814047.992498","814814.205413","815580.490675","819480.678744","820247.467029","821014.607152","821780.787913","822547.597531","823314.547512","824063.814388","810230.653624","823324.875102"
"Mixed","Male","tile","25","F_gnash.wav","None","734.757112805","207","818730.743748","810997.192407","811763.792406","812530.532459","813297.74802","814047.992498","814814.205413","815580.490675","819480.678744","820247.467029","821014.607152","821780.787913","822547.597531","823314.547512","824063.814388","824830.708409","824073.056164"
"Mixed","Male","tile","25","F_priest.wav","None","731.501219794","207","818730.743748","825597.149185","811763.792406","812530.532459","813297.74802","814047.992498","814814.205413","815580.490675","819480.678744","820247.467029","821014.607152","821780.787913","822547.597531","823314.547512","824063.814388","824830.708409","824840.334178"
"Mixed","Male","tile","25","M_greet.wav","None","728.97992027","207","818730.743748","825597.149185","826364.00456","812530.532459","813297.74802","814047.992498","814814.205413","815580.490675","819480.678744","820247.467029","821014.607152","821780.787913","822547.597531","823314.547512","824063.814388","824830.708409","825606.798141"
"Mixed","Male","tile","25","F_park.wav","None","726.086686365","207","818730.743748","825597.149185","826364.00456","827130.739667","813297.74802","814047.992498","814814.205413","815580.490675","819480.678744","820247.467029","821014.607152","821780.787913","822547.597531","823314.547512","824063.814388","824830.708409","826373.621671"
"Mixed","Male","tile","25","M_tile.wav","None","722.354049794","207","818730.743748","825597.149185","826364.00456","827130.739667","827897.775908","814047.992498","814814.205413","815580.490675","819480.678744","820247.467029","821014.607152","821780.787913","822547.597531","823314.547512","824063.814388","824830.708409","827141.211331"
"Mixed","Male","tile","25","F_cad.wav","space","376.847574604","207","818730.743748","825597.149185","826364.00456","827130.739667","827897.775908","828646.95807","814814.205413","815580.490675","819480.678744","820247.467029","821014.607152","821780.787913","822547.597531","823314.547512","824063.814388","824830.708409","827908.035479"
"Mixed","Male","tile","25","M_tile.wav","None","734.718775377","207","818730.743748","825597.149185","826364.00456","827130.739667","827897.775908","828646.95807","829414.025537","815580.490675","819480.678744","820247.467029","821014.607152","821780.787913","822547.597531","823314.547512","824063.814388","824830.708409","828656.681537"
"Mixed","Male","tile","25","F_bluff.wav","space","572.830005083","207","818730.743748","825597.149185","826364.00456","827130.739667","827897.775908","828646.95807","829414.025537","830180.474041","819480.678744","820247.467029","821014.607152","821780.787913","822547.597531","823314.547512","824063.814388","824830.708409","829424.032824"
"Mixed","Male","done","39","F_knife.wav","None","728.888714453","207","833314.307595","825597.149185","826364.00456","827130.739667","827897.775908","828646.95807","829414.025537","830180.474041","819480.678744","820247.467029","821014.607152","821780.787913","822547.597531","823314.547512","824063.814388","824830.708409","830190.053743"
"Mixed","Male","done","39","M_done.wav","None","720.091836527","207","833314.307595","825597.149185","826364.00456","827130.739667","827897.775908","828646.95807","829414.025537","830180.474041","834063.299616","820247.467029","821014.607152","821780.787913","822547.597531","823314.547512","824063.814388","824830.708409","833324.265414"
"Mixed","Male","done","39","M_cad.wav","space","588.270994369","207","833314.307595","825597.149185","826364.00456","827130.739667","827897.775908","828646.95807","829414.025537","830180.474041","834063.299616","834829.95001","821014.607152","821780.787913","822547.597531","823314.547512","824063.814388","824830.708409","834072.445549"
"Mixed","Male","done","39","M_done.wav","None","738.010532223","207","833314.307595","825597.149185","826364.00456","827130.739667","827897.775908","828646.95807","829414.025537","830180.474041","834063.299616","834829.95001","835596.905866","821780.787913","822547.597531","823314.547512","824063.814388","824830.708409","834833.885154"
"Mixed","Male","done","39","F_romp.wav","space","541.772416444","207","833314.307595","825597.149185","826364.00456","827130.739667","827897.775908","828646.95807","829414.025537","830180.474041","834063.299616","834829.95001","835596.905866","836363.331492","822547.597531","823314.547512","824063.814388","824830.708409","835606.904187"
"Mixed","Male","done","39","M_done.wav","None","727.301114937","207","833314.307595","825597.149185","826364.00456","827130.739667","827897.775908","828646.95807","829414.025537","830180.474041","834063.299616","834829.95001","835596.905866","836363.331492","837130.273744","823314.547512","824063.814388","824830.708409","836372.433213"
"Mixed","Male","done","39","M_depth.wav","space","416.963909985","207","833314.307595","825597.149185","826364.00456","827130.739667","827897.775908","828646.95807","829414.025537","830180.474041","834063.299616","834829.95001","835596.905866","836363.331492","837130.273744","837897.173022","824063.814388","824830.708409","837139.755439"
"Mixed","Male","done","39","M_done.wav","None","720.261262963","207","833314.307595","825597.149185","826364.00456","827130.739667","827897.775908","828646.95807","829414.025537","830180.474041","834063.299616","834829.95001","835596.905866","836363.331492","837130.273744","837897.173022","838646.781223","824830.708409","837907.293466"
"Mixed","Male","done","39","F_depth.wav","space","419.808913022","207","833314.307595","825597.149185","826364.00456","827130.739667","827897.775908","828646.95807","829414.025537","830180.474041","834063.299616","834829.95001","835596.905866","836363.331492","837130.273744","837897.173022","838646.781223","839413.770779","838656.860857"
"Mixed","Male","done","39","F_priest.wav","None","731.596135651","207","833314.307595","840180.351918","826364.00456","827130.739667","827897.775908","828646.95807","829414.025537","830180.474041","834063.299616","834829.95001","835596.905866","836363.331492","837130.273744","837897.173022","838646.781223","839413.770779","839423.703865"
"Mixed","Male","done","39","F_cad.wav","None","728.818223113","207","833314.307595","840180.351918","840946.878953","827130.739667","827897.775908","828646.95807","829414.025537","830180.474041","834063.299616","834829.95001","835596.905866","836363.331492","837130.273744","837897.173022","838646.781223","839413.770779","840190.667141"
"Mixed","Male","done","39","F_greet.wav","None","726.542715332","207","833314.307595","840180.351918","840946.878953","841713.688879","827897.775908","828646.95807","829414.025537","830180.474041","834063.299616","834829.95001","835596.905866","836363.331492","837130.273744","837897.173022","838646.781223","839413.770779","840956.658689"
"Mixed","Male","done","39","F_knife.wav","None","724.105510511","207","833314.307595","840180.351918","840946.878953","841713.688879","842480.906913","828646.95807","829414.025537","830180.474041","834063.299616","834829.95001","835596.905866","836363.331492","837130.273744","837897.173022","838646.781223","839413.770779","841723.600941"
"Mixed","Male","done","39","F_cling.wav","None","720.27548484","207","833314.307595","840180.351918","840946.878953","841713.688879","842480.906913","843230.61405","829414.025537","830180.474041","834063.299616","834829.95001","835596.905866","836363.331492","837130.273744","837897.173022","838646.781223","839413.770779","842491.41506"
"Mixed","Male","done","39","M_cling.wav","None","735.815718537","207","833314.307595","840180.351918","840946.878953","841713.688879","842480.906913","843230.61405","843996.775024","830180.474041","834063.299616","834829.95001","835596.905866","836363.331492","837130.273744","837897.173022","838646.781223","839413.770779","843239.854281"
"Mixed","Male","done","39","M_jaw.wav","None","733.212488121","207","833314.307595","840180.351918","840946.878953","841713.688879","842480.906913","843230.61405","843996.775024","844763.782821","834063.299616","834829.95001","835596.905866","836363.331492","837130.273744","837897.173022","838646.781223","839413.770779","844006.400484"
"Mixed","Female","ball","10","M_lash.wav","None","729.961542063","207","847897.014107","840180.351918","840946.878953","841713.688879","842480.906913","843230.61405","843996.775024","844763.782821","834063.299616","834829.95001","835596.905866","836363.331492","837130.273744","837897.173022","838646.781223","839413.770779","844773.777123"
"Mixed","Female","ball","10","F_priest.wav","None","721.046869643","207","847897.014107","840180.351918","840946.878953","841713.688879","842480.906913","843230.61405","843996.775024","844763.782821","848646.215438","834829.95001","835596.905866","836363.331492","837130.273744","837897.173022","838646.781223","839413.770779","847906.570621"
"Mixed","Female","ball","10","M_done.wav","None","736.200019601","207","847897.014107","840180.351918","840946.878953","841713.688879","842480.906913","843230.61405","843996.775024","844763.782821","848646.215438","849413.586512","835596.905866","836363.331492","837130.273744","837897.173022","838646.781223","839413.770779","848655.516576"
"Mixed","Female","ball","10","F_ball.wav","space","557.182488614","207","847897.014107","840180.351918","840946.878953","841713.688879","842480.906913","843230.61405","843996.775024","844763.782821","848646.215438","849413.586512","850180.103344","836363.331492","837130.273744","837897.173022","838646.781223","839413.770779","849423.258038"
"Mixed","Female","ball","10","M_cling.wav","None","729.525300092","207","847897.014107","840180.351918","840946.878953","841713.688879","842480.906913","843230.61405","843996.775024","844763.782821","848646.215438","849413.586512","850180.103344","850946.683556","837130.273744","837897.173022","838646.781223","839413.770779","850190.139693"
"Mixed","Female","ball","10","F_ball.wav","None","727.200324764","207","847897.014107","840180.351918","840946.878953","841713.688879","842480.906913","843230.61405","843996.775024","844763.782821","848646.215438","849413.586512","850180.103344","850946.683556","851713.529656","837897.173022","838646.781223","839413.770779","850956.338387"
"Mixed","Female","ball","10","F_bluff.wav","space","361.108543235","207","847897.014107","840180.351918","840946.878953","841713.688879","842480.906913","843230.61405","843996.775024","844763.782821","848646.215438","849413.586512","850180.103344","850946.683556","851713.529656","852480.483038","838646.781223","839413.770779","851723.292078"
"Mixed","Female","ball","10","F_ball.wav","None","720.52251338","207","847897.014107","840180.351918","840946.878953","841713.688879","842480.906913","843230.61405","843996.775024","844763.782821","848646.215438","849413.586512","850180.103344","850946.683556","851713.529656","852480.483038","853230.307042","839413.770779","852490.982528"
"Mixed","Female","ball","10","F_done.wav","space","499.960271292","207","847897.014107","840180.351918","840946.878953","841713.688879","842480.906913","843230.61405","843996.775024","844763.782821","848646.215438","849413.586512","850180.103344","850946.683556","851713.529656","852480.483038","853230.307042","853996.492441","853240.367198"
"Mixed","Female","ball","10","M_gnash.wav","None","732.939179987","207","847897.014107","854762.903535","840946.878953","841713.688879","842480.906913","843230.61405","843996.775024","844763.782821","848646.215438","849413.586512","850180.103344","850946.683556","851713.529656","852480.483038","853230.307042","853996.492441","854006.075235"
"Mixed","Female","ball","10","M_knife.wav","None","732.133786194","207","847897.014107","854762.903535","855529.698931","841713.688879","842480.906913","843230.61405","843996.775024","844763.782821","848646.215438","849413.586512","850180.103344","850946.683556","851713.529656","852480.483038","853230.307042","853996.492441","854771.748335"
"Mixed","Female","ball","10","F_greet.wav","None","728.990122909","207","847897.014107","854762.903535","855529.698931","856296.530191","842480.906913","843230.61405","843996.775024","844763.782821","848646.215438","849413.586512","850180.103344","850946.683556","851713.529656","852480.483038","853230.307042","853996.492441","855538.89897"
"Mixed","Female","ball","10","F_ball.wav","None","725.950341322","207","847897.014107","854762.903535","855529.698931","856296.530191","857063.857363","843230.61405","843996.775024","844763.782821","848646.215438","849413.586512","850180.103344","850946.683556","851713.529656","852480.483038","853230.307042","853996.492441","856306.316111"
"Mixed","Female","ball","10","M_greet.wav","space","402.833810891","207","847897.014107","854762.903535","855529.698931","856296.530191","857063.857363","857830.376049","843996.775024","844763.782821","848646.215438","849413.586512","850180.103344","850946.683556","851713.529656","852480.483038","853230.307042","853996.492441","857073.418824"
"Mixed","Female","ball","10","M_depth.wav","None","719.058582792","207","847897.014107","854762.903535","855529.698931","856296.530191","857063.857363","857830.376049","858579.798747","844763.782821","848646.215438","849413.586512","850180.103344","850946.683556","851713.529656","852480.483038","853230.307042","853996.492441","857840.803502"
"Mixed","Female","ball","10","M_tile.wav","None","734.685075586","207","847897.014107","854762.903535","855529.698931","856296.530191","857063.857363","857830.376049","858579.798747","859346.40833","848646.215438","849413.586512","850180.103344","850946.683556","851713.529656","852480.483038","853230.307042","853996.492441","858589.229119"
"Mixed","Male","cave","13","F_knife.wav","None","731.925713364","207","862480.181595","854762.903535","855529.698931","856296.530191","857063.857363","857830.376049","858579.798747","859346.40833","848646.215438","849413.586512","850180.103344","850946.683556","851713.529656","852480.483038","853230.307042","853996.492441","859355.947222"
"Mixed","Male","cave","13","F_depth.wav","None","719.276549295","207","862480.181595","854762.903535","855529.698931","856296.530191","857063.857363","857830.376049","858579.798747","859346.40833","863229.542768","849413.586512","850180.103344","850946.683556","851713.529656","852480.483038","853230.307042","853996.492441","862490.542885"
"Mixed","Male","cave","13","M_lash.wav","None","735.155635746","207","862480.181595","854762.903535","855529.698931","856296.530191","857063.857363","857830.376049","858579.798747","859346.40833","863229.542768","863996.490586","850180.103344","850946.683556","851713.529656","852480.483038","853230.307042","853996.492441","863238.670151"
"Mixed","Male","cave","13","M_cave.wav","None","731.731244014","207","862480.181595","854762.903535","855529.698931","856296.530191","857063.857363","857830.376049","858579.798747","859346.40833","863229.542768","863996.490586","864763.206833","850946.683556","851713.529656","852480.483038","853230.307042","853996.492441","864006.078326"
"Mixed","Male","cave","13","F_cad.wav","space","327.298394172","207","862480.181595","854762.903535","855529.698931","856296.530191","857063.857363","857830.376049","858579.798747","859346.40833","863229.542768","863996.490586","864763.206833","865529.806832","851713.529656","852480.483038","853230.307042","853996.492441","864772.735831"
"Mixed","Male","cave","13","F_romp.wav","None","732.582085999","207","862480.181595","854762.903535","855529.698931","856296.530191","857063.857363","857830.376049","858579.798747","859346.40833","863229.542768","863996.490586","864763.206833","865529.806832","866296.259665","852480.483038","853230.307042","853996.492441","865534.235415"
"Mixed","Male","cave","13","M_cave.wav","None","724.969956209","207","862480.181595","854762.903535","855529.698931","856296.530191","857063.857363","857830.376049","858579.798747","859346.40833","863229.542768","863996.490586","864763.206833","865529.806832","866296.259665","867063.162034","853230.307042","853996.492441","866305.97633"
"Mixed","Male","cave","13","F_knife.wav","space","435.626474209","207","862480.181595","854762.903535","855529.698931","856296.530191","857063.857363","857830.376049","858579.798747","859346.40833","863229.542768","863996.490586","864763.206833","865529.806832","866296.259665","867063.162034","867829.334448","853996.492441","867072.312914"
"Mixed","Male","cave","13","M_cave.wav","None","721.940068295","207","862480.181595","854762.903535","855529.698931","856296.530191","857063.857363","857830.376049","858579.798747","859346.40833","863229.542768","863996.490586","864763.206833","865529.806832","866296.259665","867063.162034","867829.334448","868579.432069","867838.326723"
"Mixed","Male","cave","13","F_done.wav","space","462.897939491","207","862480.181595","869346.109052","855529.698931","856296.530191","857063.857363","857830.376049","858579.798747","859346.40833","863229.542768","863996.490586","864763.206833","865529.806832","866296.259665","867063.162034","867829.334448","868579.432069","868589.136367"
"Mixed","Male","cave","13","M_cad.wav","None","732.164085144","207","862480.181595","869346.109052","870113.16508","856296.530191","857063.857363","857830.376049","858579.798747","859346.40833","863229.542768","863996.490586","864763.206833","865529.806832","866296.259665","867063.162034","867829.334448","868579.432069","869355.919705"
"Mixed","Male","cave","13","F_dime.wav","space","321.278810618","207","862480.181595","869346.109052","870113.16508","870879.68593","857063.857363","857830.376049","858579.798747","859346.40833","863229.542768","863996.490586","864763.206833","865529.806832","866296.259665","867063.162034","867829.334448","868579.432069","870122.732106"
"Mixed","Male","cave","13","F_jolt.wav","None","726.340207504","207","862480.181595","869346.109052","870113.16508","870879.68593","871646.019423","857830.376049","858579.798747","859346.40833","863229.542768","863996.490586","864763.206833","865529.806832","866296.259665","867063.162034","867829.334448","868579.432069","870889.396103"
"Mixed","Male","cave","13","M_cave.wav","None","724.669440766","207","862480.181595","869346.109052","870113.16508","870879.68593","871646.019423","872412.889947","858579.798747","859346.40833","863229.542768","863996.490586","864763.206833","865529.806832","866296.259665","867063.162034","867829.334448","868579.432069","871655.236466"
"Mixed","Male","cave","13","M_depth.wav","space","573.216779507","207","862480.181595","869346.109052","870113.16508","870879.68593","871646.019423","872412.889947","873162.555655","859346.40833","863229.542768","863996.490586","864763.206833","865529.806832","866296.259665","867063.162034","867829.334448","868579.432069","872422.733992"
"Mixed","Male","cave","13","M_knife.wav","None","735.6530939","207","862480.181595","869346.109052","870113.16508","870879.68593","871646.019423","872412.889947","873162.555655","873929.593132","863229.542768","863996.490586","864763.206833","865529.806832","866296.259665","867063.162034","867829.334448","868579.432069","873171.77177"
"Mixed","Female","done","45","F_dime.wav","None","732.387925847","207","877062.916861","869346.109052","870113.16508","870879.68593","871646.019423","872412.889947","873162.555655","873929.593132","863229.542768","863996.490586","864763.206833","865529.806832","866296.259665","867063.162034","867829.334448","868579.432069","873939.300832"
"Mixed","Female","done","45","M_tile.wav","space","467.83820272","207","877062.916861","869346.109052","870113.16508","870879.68593","871646.019423","872412.889947","873162.555655","873929.593132","877812.862678","863996.490586","864763.206833","865529.806832","866296.259665","867063.162034","867829.334448","868579.432069","877072.026621"
"Mixed","Female","done","45","F_done.wav","None","734.738253173","207","877062.916861","869346.109052","870113.16508","870879.68593","871646.019423","872412.889947","873162.555655","873929.593132","877812.862678","878579.557593","864763.206833","865529.806832","866296.259665","867063.162034","867829.334448","868579.432069","877822.652308"
"Mixed","Female","done","45","M_jolt.wav","space","598.577251192","207","877062.916861","869346.109052","870113.16508","870879.68593","871646.019423","872412.889947","873162.555655","873929.593132","877812.862678","878579.557593","879346.024957","865529.806832","866296.259665","867063.162034","867829.334448","868579.432069","878589.273331"
"Mixed","Female","done","45","M_greet.wav","None","729.254774284","207","877062.916861","869346.109052","870113.16508","870879.68593","871646.019423","872412.889947","873162.555655","873929.593132","877812.862678","878579.557593","879346.024957","880113.052232","866296.259665","867063.162034","867829.334448","868579.432069","879355.85076"
"Mixed","Female","done","45","F_done.wav","None","726.445326116","207","877062.916861","869346.109052","870113.16508","870879.68593","871646.019423","872412.889947","873162.555655","873929.593132","877812.862678","878579.557593","879346.024957","880113.052232","880879.099122","867063.162034","867829.334448","868579.432069","880122.845263"
"Mixed","Female","done","45","M_greet.wav","space","427.555841859","207","877062.916861","869346.109052","870113.16508","870879.68593","871646.019423","872412.889947","873162.555655","873929.593132","877812.862678","878579.557593","879346.024957","880113.052232","880879.099122","881646.046321","867829.334448","868579.432069","880888.18322"
"Mixed","Female","done","45","M_park.wav","None","721.955526853","207","877062.916861","869346.109052","870113.16508","870879.68593","871646.019423","872412.889947","873162.555655","873929.593132","877812.862678","878579.557593","879346.024957","880113.052232","880879.099122","881646.046321","882396.075924","868579.432069","881655.120217"
"Mixed","Female","done","45","M_gnash.wav","None","735.395862604","207","877062.916861","869346.109052","870113.16508","870879.68593","871646.019423","872412.889947","873162.555655","873929.593132","877812.862678","878579.557593","879346.024957","880113.052232","880879.099122","881646.046321","882396.075924","883162.735902","882405.812067"
"Mixed","Female","done","45","F_done.wav","None","733.95357409","207","877062.916861","883929.044661","870113.16508","870879.68593","871646.019423","872412.889947","873162.555655","873929.593132","877812.862678","878579.557593","879346.024957","880113.052232","880879.099122","881646.046321","882396.075924","883162.735902","883171.869159"
"Mixed","Female","done","45","M_knife.wav","space","345.524716307","207","877062.916861","883929.044661","884695.924151","870879.68593","871646.019423","872412.889947","873162.555655","873929.593132","877812.862678","878579.557593","879346.024957","880113.052232","880879.099122","881646.046321","882396.075924","883162.735902","883938.237588"
"Mixed","Female","done","45","F_knife.wav","None","727.952850051","207","877062.916861","883929.044661","884695.924151","885462.632051","871646.019423","872412.889947","873162.555655","873929.593132","877812.862678","878579.557593","879346.024957","880113.052232","880879.099122","881646.046321","882396.075924","883162.735902","884705.685337"
"Mixed","Female","done","45","M_knife.wav","None","725.08404078","207","877062.916861","883929.044661","884695.924151","885462.632051","886229.659945","872412.889947","873162.555655","873929.593132","877812.862678","878579.557593","879346.024957","880113.052232","880879.099122","881646.046321","882396.075924","883162.735902","885472.734254"
"Mixed","Female","done","45","F_done.wav","None","722.230071784","207","877062.916861","883929.044661","884695.924151","885462.632051","886229.659945","886996.012605","873162.555655","873929.593132","877812.862678","878579.557593","879346.024957","880113.052232","880879.099122","881646.046321","882396.075924","883162.735902","886239.844387"
"Mixed","Female","done","45","F_lash.wav","space","438.183019403","207","877062.916861","883929.044661","884695.924151","885462.632051","886229.659945","886996.012605","887745.793325","873929.593132","877812.862678","878579.557593","879346.024957","880113.052232","880879.099122","881646.046321","882396.075924","883162.735902","887005.424736"
"Mixed","Female","done","45","F_reek.wav","None","734.307267121","207","877062.916861","883929.044661","884695.924151","885462.632051","886229.659945","886996.012605","887745.793325","888512.687038","877812.862678","878579.557593","879346.024957","880113.052232","880879.099122","881646.046321","882396.075924","883162.735902","887755.501952"
"Mixed","Male","done","40","F_romp.wav","None","733.021110645","207","891646.089296","883929.044661","884695.924151","885462.632051","886229.659945","886996.012605","887745.793325","888512.687038","877812.862678","878579.557593","879346.024957","880113.052232","880879.099122","881646.046321","882396.075924","883162.735902","888521.913046"
"Mixed","Male","done","40","M_done.wav","None","720.485721948","207","891646.089296","883929.044661","884695.924151","885462.632051","886229.659945","886996.012605","887745.793325","888512.687038","892395.63659","878579.557593","879346.024957","880113.052232","880879.099122","881646.046321","882396.075924","883162.735902","891655.846463"
"Mixed","Male","done","40","F_cad.wav","space","446.242830716","207","891646.089296","883929.044661","884695.924151","885462.632051","886229.659945","886996.012605","887745.793325","888512.687038","892395.63659","893162.214947","879346.024957","880113.052232","880879.099122","881646.046321","882396.075924","883162.735902","892405.250301"
"Mixed","Male","done","40","F_cling.wav","None","732.356081135","207","891646.089296","883929.044661","884695.924151","885462.632051","886229.659945","886996.012605","887745.793325","888512.687038","892395.63659","893162.214947","893929.227382","880113.052232","880879.099122","881646.046321","882396.075924","883162.735902","893171.850609"
"Mixed","Male","done","40","F_park.wav","None","729.422036558","207","891646.089296","883929.044661","884695.924151","885462.632051","886229.659945","886996.012605","887745.793325","888512.687038","892395.63659","893162.214947","893929.227382","894695.555309","880879.099122","881646.046321","882396.075924","883162.735902","893938.91313"
"Mixed","Male","done","40","F_ball.wav","None","727.736738627","207","891646.089296","883929.044661","884695.924151","885462.632051","886229.659945","886996.012605","887745.793325","888512.687038","892395.63659","893162.214947","893929.227382","894695.555309","895462.189007","881646.046321","882396.075924","883162.735902","894704.859538"
"Mixed","Male","done","40","M_done.wav","None","725.162261282","207","891646.089296","883929.044661","884695.924151","885462.632051","886229.659945","886996.012605","887745.793325","888512.687038","892395.63659","893162.214947","893929.227382","894695.555309","895462.189007","896229.014702","882396.075924","883162.735902","895471.605157"
"Mixed","Male","done","40","M_tile.wav","space","436.93025352","207","891646.089296","883929.044661","884695.924151","885462.632051","886229.659945","886996.012605","887745.793325","888512.687038","892395.63659","893162.214947","893929.227382","894695.555309","895462.189007","896229.014702","896995.41343","883162.735902","896238.529478"
"Mixed","Male","done","40","F_knife.wav","None","719.5603695","207","891646.089296","883929.044661","884695.924151","885462.632051","886229.659945","886996.012605","887745.793325","888512.687038","892395.63659","893162.214947","893929.227382","894695.555309","895462.189007","896229.014702","896995.41343","897745.6307","897005.395983"
"Mixed","Male","done","40","M_cling.wav","None","734.250070294","207","891646.089296","898512.478965","884695.924151","885462.632051","886229.659945","886996.012605","887745.793325","888512.687038","892395.63659","893162.214947","893929.227382","894695.555309","895462.189007","896229.014702","896995.41343","897745.6307","897754.988417"
"Mixed","Male","done","40","M_cave.wav","None","731.698780903","207","891646.089296","898512.478965","899278.579032","885462.632051","886229.659945","886996.012605","887745.793325","888512.687038","892395.63659","893162.214947","893929.227382","894695.555309","895462.189007","896229.014702","896995.41343","897745.6307","898522.17708"
"Mixed","Male","done","40","M_done.wav","None","732.458107988","207","891646.089296","898512.478965","899278.579032","900045.675252","886229.659945","886996.012605","887745.793325","888512.687038","892395.63659","893162.214947","893929.227382","894695.555309","895462.189007","896229.014702","896995.41343","897745.6307","899287.67086"
"Mixed","Male","done","40","F_romp.wav","space","507.857148885","207","891646.089296","898512.478965","899278.579032","900045.675252","900812.36893","886996.012605","887745.793325","888512.687038","892395.63659","893162.214947","893929.227382","894695.555309","895462.189007","896229.014702","896995.41343","897745.6307","900055.485906"
"Mixed","Male","done","40","M_done.wav","None","726.959788706","207","891646.089296","898512.478965","899278.579032","900045.675252","900812.36893","901579.406717","887745.793325","888512.687038","892395.63659","893162.214947","893929.227382","894695.555309","895462.189007","896229.014702","896995.41343","897745.6307","900821.62833"
"Mixed","Male","done","40","M_knife.wav","space","613.808003371","207","891646.089296","898512.478965","899278.579032","900045.675252","900812.36893","901579.406717","902345.934988","888512.687038","892395.63659","893162.214947","893929.227382","894695.555309","895462.189007","896229.014702","896995.41343","897745.6307","901589.514176"
"Mixed","Male","done","40","F_park.wav","None","720.239620772","207","891646.089296","898512.478965","899278.579032","900045.675252","900812.36893","901579.406717","902345.934988","903112.767793","892395.63659","893162.214947","893929.227382","894695.555309","895462.189007","896229.014702","896995.41343","897745.6307","902356.241554"
"Mixed","Male","done","42","M_jolt.wav","None","718.735497911","207","906229.104362","898512.478965","899278.579032","900045.675252","900812.36893","901579.406717","902345.934988","903112.767793","892395.63659","893162.214947","893929.227382","894695.555309","895462.189007","896229.014702","896995.41343","897745.6307","903122.432827"
"Mixed","Male","done","42","M_done.wav","None","719.402073184","207","906229.104362","898512.478965","899278.579032","900045.675252","900812.36893","901579.406717","902345.934988","903112.767793","906978.821083","893162.214947","893929.227382","894695.555309","895462.189007","896229.014702","896995.41343","897745.6307","906239.610962"
"Mixed","Male","done","42","F_dime.wav","space","511.008232366","207","906229.104362","898512.478965","899278.579032","900045.675252","900812.36893","901579.406717","902345.934988","903112.767793","906978.821083","907745.452926","893929.227382","894695.555309","895462.189007","896229.014702","896995.41343","897745.6307","906988.159012"
"Mixed","Male","done","42","M_done.wav","None","731.690742425","207","906229.104362","898512.478965","899278.579032","900045.675252","900812.36893","901579.406717","902345.934988","903112.767793","906978.821083","907745.452926","908512.234409","894695.555309","895462.189007","896229.014702","896995.41343","897745.6307","907755.065401"
"Mixed","Male","done","42","F_bluff.wav","space","513.611462666","207","906229.104362","898512.478965","899278.579032","900045.675252","900812.36893","901579.406717","902345.934988","903112.767793","906978.821083","907745.452926","908512.234409","909278.861615","895462.189007","896229.014702","896995.41343","897745.6307","908521.565846"
"Mixed","Male","done","42","F_cad.wav","None","726.571468404","207","906229.104362","898512.478965","899278.579032","900045.675252","900812.36893","901579.406717","902345.934988","903112.767793","906978.821083","907745.452926","908512.234409","909278.861615","910045.223242","896229.014702","896995.41343","897745.6307","909288.737814"
"Mixed","Male","done","42","F_depth.wav","None","724.940893939","207","906229.104362","898512.478965","899278.579032","900045.675252","900812.36893","901579.406717","902345.934988","903112.767793","906978.821083","907745.452926","908512.234409","909278.861615","910045.223242","910812.535574","896995.41343","897745.6307","910054.755641"
"Mixed","Male","done","42","M_romp.wav","None","721.291115624","207","906229.104362","898512.478965","899278.579032","900045.675252","900812.36893","901579.406717","902345.934988","903112.767793","906978.821083","907745.452926","908512.234409","909278.861615","910045.223242","910812.535574","911578.633168","897745.6307","910822.700848"
"Mixed","Male","done","42","M_done.wav","None","720.157381031","207","906229.104362","898512.478965","899278.579032","900045.675252","900812.36893","901579.406717","902345.934988","903112.767793","906978.821083","907745.452926","908512.234409","909278.861615","910045.223242","910812.535574","911578.633168","912328.745011","911588.179479"
"Mixed","Male","done","42","M_park.wav","space","512.997755781","207","906229.104362","913095.31131","899278.579032","900045.675252","900812.36893","901579.406717","902345.934988","903112.767793","906978.821083","907745.452926","908512.234409","909278.861615","910045.223242","910812.535574","911578.633168","912328.745011","912338.145702"
"Mixed","Male","done","42","F_priest.wav","None","731.390536181","207","906229.104362","913095.31131","913862.065277","900045.675252","900812.36893","901579.406717","902345.934988","903112.767793","906978.821083","907745.452926","908512.234409","909278.861615","910045.223242","910812.535574","911578.633168","912328.745011","913104.89194"
"Mixed","Male","done","42","M_jolt.wav","None","729.271469521","207","906229.104362","913095.31131","913862.065277","914628.410208","900812.36893","901579.406717","902345.934988","903112.767793","906978.821083","907745.452926","908512.234409","909278.861615","910045.223242","910812.535574","911578.633168","912328.745011","913871.419592"
"Mixed","Male","done","42","M_done.wav","None","727.389847278","207","906229.104362","913095.31131","913862.065277","914628.410208","915395.298974","901579.406717","902345.934988","903112.767793","906978.821083","907745.452926","908512.234409","909278.861615","910045.223242","910812.535574","911578.633168","912328.745011","914637.625706"
"Mixed","Male","done","42","F_gnash.wav","space","485.862326226","207","906229.104362","913095.31131","913862.065277","914628.410208","915395.298974","916162.627692","902345.934988","903112.767793","906978.821083","907745.452926","908512.234409","909278.861615","910045.223242","910812.535574","911578.633168","912328.745011","915405.201143"
"Mixed","Male","done","42","F_priest.wav","None","720.595787279","207","906229.104362","913095.31131","913862.065277","914628.410208","915395.298974","916162.627692","916929.119481","903112.767793","906978.821083","907745.452926","908512.234409","909278.861615","910045.223242","910812.535574","911578.633168","912328.745011","916172.774416"
"Mixed","Male","done","42","F_jolt.wav","None","718.530825921","207","906229.104362","913095.31131","913862.065277","914628.410208","915395.298974","916162.627692","916929.119481","917678.632766","906978.821083","907745.452926","908512.234409","909278.861615","910045.223242","910812.535574","911578.633168","912328.745011","916939.17438"
"Mixed","Male","tile","30","F_cad.wav","None","733.803625568","207","920812.484561","913095.31131","913862.065277","914628.410208","915395.298974","916162.627692","916929.119481","917678.632766","906978.821083","907745.452926","908512.234409","909278.861615","910045.223242","910812.535574","911578.633168","912328.745011","917688.332118"
"Mixed","Male","tile","30","M_cad.wav","None","720.194481662","207","920812.484561","913095.31131","913862.065277","914628.410208","915395.298974","916162.627692","916929.119481","917678.632766","921562.225397","907745.452926","908512.234409","909278.861615","910045.223242","910812.535574","911578.633168","912328.745011","920822.649217"
"Mixed","Male","tile","30","F_gnash.wav","None","735.505309538","207","920812.484561","913095.31131","913862.065277","914628.410208","915395.298974","916162.627692","916929.119481","917678.632766","921562.225397","922328.587642","908512.234409","909278.861615","910045.223242","910812.535574","911578.633168","912328.745011","921571.834161"
"Mixed","Male","tile","30","M_tile.wav","None","733.551959391","207","920812.484561","913095.31131","913862.065277","914628.410208","915395.298974","916162.627692","916929.119481","917678.632766","921562.225397","922328.587642","923095.047277","909278.861615","910045.223242","910812.535574","911578.633168","912328.745011","922338.202281"
"Mixed","Male","tile","30","F_cad.wav","space","570.500701433","207","920812.484561","913095.31131","913862.065277","914628.410208","915395.298974","916162.627692","916929.119481","917678.632766","921562.225397","922328.587642","923095.047277","923862.009626","910045.223242","910812.535574","911578.633168","912328.745011","923104.38397"
"Mixed","Male","tile","30","M_dime.wav","None","727.780641057","207","920812.484561","913095.31131","913862.065277","914628.410208","915395.298974","916162.627692","916929.119481","917678.632766","921562.225397","922328.587642","923095.047277","923862.009626","924628.20028","910812.535574","911578.633168","912328.745011","923872.125123"
"Mixed","Male","tile","30","M_knife.wav","None","727.190431207","207","920812.484561","913095.31131","913862.065277","914628.410208","915395.298974","916162.627692","916929.119481","917678.632766","921562.225397","922328.587642","923095.047277","923862.009626","924628.20028","925395.014536","911578.633168","912328.745011","924637.238313"
"Mixed","Male","tile","30","M_tile.wav","None","724.269990227","207","920812.484561","913095.31131","913862.065277","914628.410208","915395.298974","916162.627692","916929.119481","917678.632766","921562.225397","922328.587642","923095.047277","923862.009626","924628.20028","925395.014536","926162.419619","912328.745011","925404.818078"
"Mixed","Male","tile","30","M_ball.wav","space","518.342725467","207","920812.484561","913095.31131","913862.065277","914628.410208","915395.298974","916162.627692","916929.119481","917678.632766","921562.225397","922328.587642","923095.047277","923862.009626","924628.20028","925395.014536","926162.419619","926928.952837","926172.495233"
"Mixed","Male","tile","30","F_greet.wav","None","717.991938582","207","920812.484561","927678.338743","913862.065277","914628.410208","915395.298974","916162.627692","916929.119481","917678.632766","921562.225397","922328.587642","923095.047277","923862.009626","924628.20028","925395.014536","926162.419619","926928.952837","926939.264968"
"Mixed","Male","tile","30","M_tile.wav","None","733.926057816","207","920812.484561","927678.338743","928444.987282","914628.410208","915395.298974","916162.627692","916929.119481","917678.632766","921562.225397","922328.587642","923095.047277","923862.009626","924628.20028","925395.014536","926162.419619","926928.952837","927687.78983"
"Mixed","Male","tile","30","F_cave.wav","space","564.098053379","207","920812.484561","927678.338743","928444.987282","929211.858116","915395.298974","916162.627692","916929.119481","917678.632766","921562.225397","922328.587642","923095.047277","923862.009626","924628.20028","925395.014536","926162.419619","926928.952837","928454.639949"
"Mixed","Male","tile","30","M_tile.wav","None","728.667037794","207","920812.484561","927678.338743","928444.987282","929211.858116","929978.416686","916162.627692","916929.119481","917678.632766","921562.225397","922328.587642","923095.047277","923862.009626","924628.20028","925395.014536","926162.419619","926928.952837","929221.358361"
"Mixed","Male","tile","30","F_romp.wav","space","502.131278859","207","920812.484561","927678.338743","928444.987282","929211.858116","929978.416686","930745.331113","916929.119481","917678.632766","921562.225397","922328.587642","923095.047277","923862.009626","924628.20028","925395.014536","926162.419619","926928.952837","929988.599892"
"Mixed","Male","tile","30","F_romp.wav","None","722.738041775","207","920812.484561","927678.338743","928444.987282","929211.858116","929978.416686","930745.331113","931512.1296","917678.632766","921562.225397","922328.587642","923095.047277","923862.009626","924628.20028","925395.014536","926162.419619","926928.952837","930755.472271"
"Mixed","Male","tile","30","F_cave.wav","None","680.345580331","207","920812.484561","927678.338743","928444.987282","929211.858116","929978.416686","930745.331113","931512.1296","932278.741038","921562.225397","922328.587642","923095.047277","923862.009626","924628.20028","925395.014536","926162.419619","926928.952837","931562.836321"
"Mixed","Male","cave","14","F_lash.wav","None","714.302895358","207","935395.284752","927678.338743","928444.987282","929211.858116","929978.416686","930745.331113","931512.1296","932278.741038","921562.225397","922328.587642","923095.047277","923862.009626","924628.20028","925395.014536","926162.419619","926928.952837","932293.803292"
"Mixed","Male","cave","14","F_jaw.wav","None","698.574375827","207","935395.284752","927678.338743","928444.987282","929211.858116","929978.416686","930745.331113","931512.1296","932278.741038","936144.8608","922328.587642","923095.047277","923862.009626","924628.20028","925395.014536","926162.419619","926928.952837","935426.80579"
"Mixed","Male","cave","14","M_ball.wav","None","735.558796325","207","935395.284752","927678.338743","928444.987282","929211.858116","929978.416686","930745.331113","931512.1296","932278.741038","936144.8608","936911.821912","923095.047277","923862.009626","924628.20028","925395.014536","926162.419619","926928.952837","936154.436173"
"Mixed","Male","cave","14","M_cave.wav","None","733.317915932","207","935395.284752","927678.338743","928444.987282","929211.858116","929978.416686","930745.331113","931512.1296","932278.741038","936144.8608","936911.821912","937678.230842","923862.009626","924628.20028","925395.014536","926162.419619","926928.952837","936921.123359"
"Mixed","Male","cave","14","F_cling.wav","space","514.842277276","207","935395.284752","927678.338743","928444.987282","929211.858116","929978.416686","930745.331113","931512.1296","932278.741038","936144.8608","936911.821912","937678.230842","938444.789721","924628.20028","925395.014536","926162.419619","926928.952837","937687.757057"
"Mixed","Male","cave","14","M_romp.wav","None","728.161850479","207","935395.284752","927678.338743","928444.987282","929211.858116","929978.416686","930745.331113","931512.1296","932278.741038","936144.8608","936911.821912","937678.230842","938444.789721","939211.632111","925395.014536","926162.419619","926928.952837","938454.401268"
"Mixed","Male","cave","14","F_ball.wav","None","726.176346303","207","935395.284752","927678.338743","928444.987282","929211.858116","929978.416686","930745.331113","931512.1296","932278.741038","936144.8608","936911.821912","937678.230842","938444.789721","939211.632111","939978.543446","926162.419619","926928.952837","939221.144104"
"Mixed","Male","cave","14","M_park.wav","None","723.621965153","207","935395.284752","927678.338743","928444.987282","929211.858116","929978.416686","930745.331113","931512.1296","932278.741038","936144.8608","936911.821912","937678.230842","938444.789721","939211.632111","939978.543446","940744.945266","926928.952837","939988.33524"
"Mixed","Male","cave","14","M_cave.wav","None","721.169610973","207","935395.284752","927678.338743","928444.987282","929211.858116","929978.416686","930745.331113","931512.1296","932278.741038","936144.8608","936911.821912","937678.230842","938444.789721","939211.632111","939978.543446","940744.945266","941511.511874","940755.148877"
"Mixed","Male","cave","14","F_jaw.wav","space","490.043880767","207","935395.284752","942261.36494","928444.987282","929211.858116","929978.416686","930745.331113","931512.1296","932278.741038","936144.8608","936911.821912","937678.230842","938444.789721","939211.632111","939978.543446","940744.945266","941511.511874","941520.447261"
"Mixed","Male","cave","14","M_cave.wav","None","733.496617526","207","935395.284752","942261.36494","943028.119834","929211.858116","929978.416686","930745.331113","931512.1296","932278.741038","936144.8608","936911.821912","937678.230842","938444.789721","939211.632111","939978.543446","940744.945266","941511.511874","942271.186414"
"Mixed","Male","cave","14","M_gnash.wav","None","731.493181433","207","935395.284752","942261.36494","943028.119834","943794.673457","929978.416686","930745.331113","931512.1296","932278.741038","936144.8608","936911.821912","937678.230842","938444.789721","939211.632111","939978.543446","940744.945266","941511.511874","943037.589161"
"Mixed","Male","cave","14","M_cave.wav","space","142.42699591","207","935395.284752","942261.36494","943028.119834","943794.673457","944561.068165","930745.331113","931512.1296","932278.741038","936144.8608","936911.821912","937678.230842","938444.789721","939211.632111","939978.543446","940744.945266","941511.511874","943804.015715"
"Mixed","Male","cave","14","F_greet.wav","None","727.438696544","207","935395.284752","942261.36494","943028.119834","943794.673457","944561.068165","945328.478505","931512.1296","932278.741038","936144.8608","936911.821912","937678.230842","938444.789721","939211.632111","939978.543446","940744.945266","941511.511874","944569.832889"
"Mixed","Male","cave","14","F_jaw.wav","None","722.808533115","207","935395.284752","942261.36494","943028.119834","943794.673457","944561.068165","945328.478505","946095.038002","932278.741038","936144.8608","936911.821912","937678.230842","938444.789721","939211.632111","939978.543446","940744.945266","941511.511874","945338.73282"
"Mixed","Male","cave","14","F_jaw.wav","None","720.908669522","207","935395.284752","942261.36494","943028.119834","943794.673457","944561.068165","945328.478505","946095.038002","946861.407667","936144.8608","936911.821912","937678.230842","938444.789721","939211.632111","939978.543446","940744.945266","941511.511874","946104.935842"
"Mixed","Female","done","44","M_depth.wav","None","719.199565472","207","949978.361035","942261.36494","943028.119834","943794.673457","944561.068165","945328.478505","946095.038002","946861.407667","936144.8608","936911.821912","937678.230842","938444.789721","939211.632111","939978.543446","940744.945266","941511.511874","946871.306435"
"Mixed","Female","done","44","F_ball.wav","None","719.951472362","207","949978.361035","942261.36494","943028.119834","943794.673457","944561.068165","945328.478505","946095.038002","946861.407667","950727.779713","936911.821912","937678.230842","938444.789721","939211.632111","939978.543446","940744.945266","941511.511874","949988.15994"
"Mixed","Female","done","44","F_reek.wav","None","735.50469114","207","949978.361035","942261.36494","943028.119834","943794.673457","944561.068165","945328.478505","946095.038002","946861.407667","950727.779713","951494.403519","937678.230842","938444.789721","939211.632111","939978.543446","940744.945266","941511.511874","950737.124754"
"Mixed","Female","done","44","F_done.wav","None","733.619668055","207","949978.361035","942261.36494","943028.119834","943794.673457","944561.068165","945328.478505","946095.038002","946861.407667","950727.779713","951494.403519","952261.319491","938444.789721","939211.632111","939978.543446","940744.945266","941511.511874","951503.665701"
"Mixed","Female","done","44","M_jaw.wav","space","483.731201966","207","949978.361035","942261.36494","943028.119834","943794.673457","944561.068165","945328.478505","946095.038002","946861.407667","950727.779713","951494.403519","952261.319491","953027.911143","939211.632111","939978.543446","940744.945266","941511.511874","952270.559104"
"Mixed","Female","done","44","F_priest.wav","None","728.111764533","207","949978.361035","942261.36494","943028.119834","943794.673457","944561.068165","945328.478505","946095.038002","946861.407667","950727.779713","951494.403519","952261.319491","953027.911143","953794.437558","939978.543446","940744.945266","941511.511874","953037.342133"
"Mixed","Female","done","44","F_done.wav","None","726.411008043","207","949978.361035","942261.36494","943028.119834","943794.673457","944561.068165","945328.478505","946095.038002","946861.407667","950727.779713","951494.403519","952261.319491","953027.911143","953794.437558","954560.907705","940744.945266","941511.511874","953803.822173"
"Mixed","Female","done","44","M_jaw.wav","space","632.09492329","207","949978.361035","942261.36494","943028.119834","943794.673457","944561.068165","945328.478505","946095.038002","946861.407667","950727.779713","951494.403519","952261.319491","953027.911143","953794.437558","954560.907705","955328.255591","941511.511874","954570.136496"
"Mixed","Female","done","44","M_cling.wav","None","720.827048179","207","949978.361035","942261.36494","943028.119834","943794.673457","944561.068165","945328.478505","946095.038002","946861.407667","950727.779713","951494.403519","952261.319491","953027.911143","953794.437558","954560.907705","955328.255591","956094.761602","955338.106747"
"Mixed","Female","done","44","M_jolt.wav","None","718.995202566","207","949978.361035","956844.056303","943028.119834","943794.673457","944561.068165","945328.478505","946095.038002","946861.407667","950727.779713","951494.403519","952261.319491","953027.911143","953794.437558","954560.907705","955328.255591","956094.761602","956104.597298"
"Mixed","Female","done","44","F_depth.wav","None","735.398026882","207","949978.361035","956844.056303","957610.847988","943794.673457","944561.068165","945328.478505","946095.038002","946861.407667","950727.779713","951494.403519","952261.319491","953027.911143","953794.437558","954560.907705","955328.255591","956094.761602","956852.963246"
"Mixed","Female","done","44","M_cad.wav","None","732.900842559","207","949978.361035","956844.056303","957610.847988","958377.89505","944561.068165","945328.478505","946095.038002","946861.407667","950727.779713","951494.403519","952261.319491","953027.911143","953794.437558","954560.907705","955328.255591","956094.761602","957620.176952"
"Mixed","Female","done","44","F_done.wav","None","730.309979175","207","949978.361035","956844.056303","957610.847988","958377.89505","959144.208137","945328.478505","946095.038002","946861.407667","950727.779713","951494.403519","952261.319491","953027.911143","953794.437558","954560.907705","955328.255591","956094.761602","958387.61759"
"Mixed","Female","done","44","M_dime.wav","space","401.116977446","207","949978.361035","956844.056303","957610.847988","958377.89505","959144.208137","959911.197384","946095.038002","946861.407667","950727.779713","951494.403519","952261.319491","953027.911143","953794.437558","954560.907705","955328.255591","956094.761602","959153.034077"
"Mixed","Female","done","44","F_done.wav","None","726.093488047","207","949978.361035","956844.056303","957610.847988","958377.89505","959144.208137","959911.197384","960678.107792","946861.407667","950727.779713","951494.403519","952261.319491","953027.911143","953794.437558","954560.907705","955328.255591","956094.761602","959920.272208"
"Mixed","Female","done","44","M_jaw.wav","None","723.135946551","207","949978.361035","956844.056303","957610.847988","958377.89505","959144.208137","959911.197384","960678.107792","961444.359662","950727.779713","951494.403519","952261.319491","953027.911143","953794.437558","954560.907705","955328.255591","956094.761602","960687.824457"
"Mixed","Female","cave","24","F_bluff.wav","space","60.8015042963","207","964561.331271","956844.056303","957610.847988","958377.89505","959144.208137","959911.197384","960678.107792","961444.359662","950727.779713","951494.403519","952261.319491","953027.911143","953794.437558","954560.907705","955328.255591","956094.761602","961453.278973"
"Mixed","Female","cave","24","M_cling.wav","None","719.706298783","207","964561.331271","956844.056303","957610.847988","958377.89505","959144.208137","959911.197384","960678.107792","961444.359662","965310.821987","951494.403519","952261.319491","953027.911143","953794.437558","954560.907705","955328.255591","956094.761602","964571.040516"
"Mixed","Female","cave","24","M_romp.wav","None","735.230764607","207","964561.331271","956844.056303","957610.847988","958377.89505","959144.208137","959911.197384","960678.107792","961444.359662","965310.821987","966077.66685","952261.319491","953027.911143","953794.437558","954560.907705","955328.255591","956094.761602","965320.197635"
"Mixed","Female","cave","24","F_cave.wav","None","733.00472449","207","964561.331271","956844.056303","957610.847988","958377.89505","959144.208137","959911.197384","960678.107792","961444.359662","965310.821987","966077.66685","966844.225111","953027.911143","953794.437558","954560.907705","955328.255591","956094.761602","966087.173897"
"Mixed","Female","cave","24","M_cad.wav","space","380.179214757","207","964561.331271","956844.056303","957610.847988","958377.89505","959144.208137","959911.197384","960678.107792","961444.359662","965310.821987","966077.66685","966844.225111","967611.014323","953794.437558","954560.907705","955328.255591","956094.761602","966853.826146"
"Mixed","Female","cave","24","F_cave.wav","None","727.604722022","207","964561.331271","956844.056303","957610.847988","958377.89505","959144.208137","959911.197384","960678.107792","961444.359662","965310.821987","966077.66685","966844.225111","967611.014323","968377.586496","954560.907705","955328.255591","956094.761602","967620.837034"
"Mixed","Female","cave","24","M_jaw.wav","space","566.770847421","207","964561.331271","956844.056303","957610.847988","958377.89505","959144.208137","959911.197384","960678.107792","961444.359662","965310.821987","966077.66685","966844.225111","967611.014323","968377.586496","969144.516073","955328.255591","956094.761602","968387.122296"
"Mixed","Female","cave","24","F_cad.wav","None","722.181222634","207","964561.331271","956844.056303","957610.847988","958377.89505","959144.208137","959911.197384","960678.107792","961444.359662","965310.821987","966077.66685","966844.225111","967611.014323","968377.586496","969144.516073","969911.38938","956094.761602","969154.557369"
"Mixed","Female","cave","24","F_cave.wav","None","720.102348365","207","964561.331271","956844.056303","957610.847988","958377.89505","959144.208137","959911.197384","960678.107792","961444.359662","965310.821987","966077.66685","966844.225111","967611.014323","968377.586496","969144.516073","969911.38938","970661.132071","969921.422019"
"Mixed","Female","cave","24","F_dime.wav","space","507.458007545","207","964561.331271","971427.16443","957610.847988","958377.89505","959144.208137","959911.197384","960678.107792","961444.359662","965310.821987","966077.66685","966844.225111","967611.014323","968377.586496","969144.516073","969911.38938","970661.132071","970670.446813"
"Mixed","Female","cave","24","F_cave.wav","None","733.720767312","207","964561.331271","971427.16443","972193.889334","958377.89505","959144.208137","959911.197384","960678.107792","961444.359662","965310.821987","966077.66685","966844.225111","967611.014323","968377.586496","969144.516073","969911.38938","970661.132071","971436.172782"
"Mixed","Female","cave","24","M_done.wav","None","731.532446225","207","964561.331271","971427.16443","972193.889334","972960.931449","959144.208137","959911.197384","960678.107792","961444.359662","965310.821987","966077.66685","966844.225111","967611.014323","968377.586496","969144.516073","969911.38938","970661.132071","972202.933241"
"Mixed","Female","cave","24","M_dime.wav","space","174.963046215","207","964561.331271","971427.16443","972193.889334","972960.931449","973727.557728","959911.197384","960678.107792","961444.359662","965310.821987","966077.66685","966844.225111","967611.014323","968377.586496","969144.516073","969911.38938","970661.132071","972970.87381"
"Mixed","Female","cave","24","M_romp.wav","None","725.882014376","207","964561.331271","971427.16443","972193.889334","972960.931449","973727.557728","974493.899259","960678.107792","961444.359662","965310.821987","966077.66685","966844.225111","967611.014323","968377.586496","969144.516073","969911.38938","970661.132071","973736.933685"
"Mixed","Female","cave","24","M_done.wav","None","725.152986124","207","964561.331271","971427.16443","972193.889334","972960.931449","973727.557728","974493.899259","975261.249","961444.359662","965310.821987","966077.66685","966844.225111","967611.014323","968377.586496","969144.516073","969911.38938","970661.132071","974502.766628"
"Mixed","Female","cave","24","F_priest.wav","None","721.805269131","207","964561.331271","971427.16443","972193.889334","972960.931449","973727.557728","974493.899259","975261.249","976027.823647","965310.821987","966077.66685","966844.225111","967611.014323","968377.586496","969144.516073","969911.38938","970661.132071","975270.75481"
"Mixed","Male","ball","3","M_dime.wav","None","719.410111662","207","979144.326241","971427.16443","972193.889334","972960.931449","973727.557728","974493.899259","975261.249","976027.823647","965310.821987","966077.66685","966844.225111","967611.014323","968377.586496","969144.516073","969911.38938","970661.132071","976037.799399"
"Mixed","Male","ball","3","M_jaw.wav","None","720.669061178","207","979144.326241","971427.16443","972193.889334","972960.931449","973727.557728","974493.899259","975261.249","976027.823647","979894.146535","966077.66685","966844.225111","967611.014323","968377.586496","969144.516073","969911.38938","970661.132071","979153.861422"
"Mixed","Male","ball","3","M_ball.wav","None","735.530352569","207","979144.326241","971427.16443","972193.889334","972960.931449","973727.557728","974493.899259","975261.249","976027.823647","979894.146535","980660.861545","966844.225111","967611.014323","968377.586496","969144.516073","969911.38938","970661.132071","979903.767975"
"Mixed","Male","ball","3","M_cad.wav","space","435.218985192","207","979144.326241","971427.16443","972193.889334","972960.931449","973727.557728","974493.899259","975261.249","976027.823647","979894.146535","980660.861545","981426.981709","967611.014323","968377.586496","969144.516073","969911.38938","970661.132071","980670.425789"
"Mixed","Male","ball","3","F_jaw.wav","None","731.764325406","207","979144.326241","971427.16443","972193.889334","972960.931449","973727.557728","974493.899259","975261.249","976027.823647","979894.146535","980660.861545","981426.981709","982193.877895","968377.586496","969144.516073","969911.38938","970661.132071","981436.355811"
"Mixed","Male","ball","3","M_dime.wav","None","729.563946486","207","979144.326241","971427.16443","972193.889334","972960.931449","973727.557728","974493.899259","975261.249","976027.823647","979894.146535","980660.861545","981426.981709","982193.877895","982960.630625","969144.516073","969911.38938","970661.132071","982203.347841"
"Mixed","Male","ball","3","M_ball.wav","None","726.970918942","207","979144.326241","971427.16443","972193.889334","972960.931449","973727.557728","974493.899259","975261.249","976027.823647","979894.146535","980660.861545","981426.981709","982193.877895","982960.630625","983727.296168","969911.38938","970661.132071","982970.576077"
"Mixed","Male","ball","3","F_knife.wav","space","568.929488072","207","979144.326241","971427.16443","972193.889334","972960.931449","973727.557728","974493.899259","975261.249","976027.823647","979894.146535","980660.861545","981426.981709","982193.877895","982960.630625","983727.296168","984493.869887","970661.132071","983736.708608"
"Mixed","Male","ball","3","F_cling.wav","None","722.865111544","207","979144.326241","971427.16443","972193.889334","972960.931449","973727.557728","974493.899259","975261.249","976027.823647","979894.146535","980660.861545","981426.981709","982193.877895","982960.630625","983727.296168","984493.869887","985261.127805","984503.220493"
"Mixed","Male","ball","3","M_ball.wav","None","719.80121464","207","979144.326241","986010.511238","972193.889334","972960.931449","973727.557728","974493.899259","975261.249","976027.823647","979894.146535","980660.861545","981426.981709","982193.877895","982960.630625","983727.296168","984493.869887","985261.127805","985271.136638"
"Mixed","Male","ball","3","F_greet.wav","space","461.752147181","207","979144.326241","986010.511238","986777.213882","972960.931449","973727.557728","974493.899259","975261.249","976027.823647","979894.146535","980660.861545","981426.981709","982193.877895","982960.630625","983727.296168","984493.869887","985261.127805","986019.775893"
"Mixed","Male","ball","3","F_depth.wav","None","732.521797414","207","979144.326241","986010.511238","986777.213882","987543.75823","973727.557728","974493.899259","975261.249","976027.823647","979894.146535","980660.861545","981426.981709","982193.877895","982960.630625","983727.296168","984493.869887","985261.127805","986786.673625"
"Mixed","Male","ball","3","F_jolt.wav","None","731.041480671","207","979144.326241","986010.511238","986777.213882","987543.75823","988310.605566","974493.899259","975261.249","976027.823647","979894.146535","980660.861545","981426.981709","982193.877895","982960.630625","983727.296168","984493.869887","985261.127805","987553.005262"
"Mixed","Male","ball","3","M_ball.wav","None","728.781740763","207","979144.326241","986010.511238","986777.213882","987543.75823","988310.605566","989077.196599","975261.249","976027.823647","979894.146535","980660.861545","981426.981709","982193.877895","982960.630625","983727.296168","984493.869887","985261.127805","988320.188669"
"Mixed","Male","ball","3","F_dime.wav","space","386.847132584","207","979144.326241","986010.511238","986777.213882","987543.75823","988310.605566","989077.196599","989843.769082","976027.823647","979894.146535","980660.861545","981426.981709","982193.877895","982960.630625","983727.296168","984493.869887","985261.127805","989086.655106"
"Mixed","Male","ball","3","F_dime.wav","None","724.73622195","207","979144.326241","986010.511238","986777.213882","987543.75823","988310.605566","989077.196599","989843.769082","990610.949706","979894.146535","980660.861545","981426.981709","982193.877895","982960.630625","983727.296168","984493.869887","985261.127805","989852.607079"
"Mixed","Male","tile","26","F_cad.wav","None","721.514647244","207","993727.456938","986010.511238","986777.213882","987543.75823","988310.605566","989077.196599","989843.769082","990610.949706","979894.146535","980660.861545","981426.981709","982193.877895","982960.630625","983727.296168","984493.869887","985261.127805","990620.661115"
"Mixed","Male","tile","26","M_ball.wav","None","725.257486338","207","993727.456938","986010.511238","986777.213882","987543.75823","988310.605566","989077.196599","989843.769082","990610.949706","994493.238248","980660.861545","981426.981709","982193.877895","982960.630625","983727.296168","984493.869887","985261.127805","993732.04258"
"Mixed","Male","tile","26","F_romp.wav","None","722.093108459","207","993727.456938","986010.511238","986777.213882","987543.75823","988310.605566","989077.196599","989843.769082","990610.949706","994493.238248","995243.915568","981426.981709","982193.877895","982960.630625","983727.296168","984493.869887","985261.127805","994501.972983"
"Mixed","Male","tile","26","M_tile.wav","None","735.800259863","207","993727.456938","986010.511238","986777.213882","987543.75823","988310.605566","989077.196599","989843.769082","990610.949706","994493.238248","995243.915568","996009.986263","982193.877895","982960.630625","983727.296168","984493.869887","985261.127805","995253.180223"
"Mixed","Male","tile","26","M_jolt.wav","space","630.511033931","207","993727.456938","986010.511238","986777.213882","987543.75823","988310.605566","989077.196599","989843.769082","990610.949706","994493.238248","995243.915568","996009.986263","996776.668811","982960.630625","983727.296168","984493.869887","985261.127805","996018.837556"
"Mixed","Male","tile","26","F_cad.wav","None","731.886448455","207","993727.456938","986010.511238","986777.213882","987543.75823","988310.605566","989077.196599","989843.769082","990610.949706","994493.238248","995243.915568","996009.986263","996776.668811","997543.356924","983727.296168","984493.869887","985261.127805","996785.638516"
"Mixed","Male","tile","26","M_park.wav","None","730.373050319","207","993727.456938","986010.511238","986777.213882","987543.75823","988310.605566","989077.196599","989843.769082","990610.949706","994493.238248","995243.915568","996009.986263","996776.668811","997543.356924","998310.000207","984493.869887","985261.127805","997552.401449"
"Mixed","Male","tile","26","F_done.wav","None","728.920559166","207","993727.456938","986010.511238","986777.213882","987543.75823","988310.605566","989077.196599","989843.769082","990610.949706","994493.238248","995243.915568","996009.986263","996776.668811","997543.356924","998310.000207","999077.294298","985261.127805","998318.931884"
"Mixed","Male","tile","26","M_tile.wav","None","726.720489445","207","993727.456938","986010.511238","986777.213882","987543.75823","988310.605566","989077.196599","989843.769082","990610.949706","994493.238248","995243.915568","996009.986263","996776.668811","997543.356924","998310.000207","999077.294298","999843.395292","999086.077572"
"Mixed","Male","tile","26","M_cling.wav","space","505.995313521","207","993727.456938","1000610.63713","986777.213882","987543.75823","988310.605566","989077.196599","989843.769082","990610.949706","994493.238248","995243.915568","996009.986263","996776.668811","997543.356924","998310.000207","999077.294298","999843.395292","999847.292409"
"Mixed","Male","tile","26","F_dime.wav","None","722.99650975","207","993727.456938","1000610.63713","1001377.38182","987543.75823","988310.605566","989077.196599","989843.769082","990610.949706","994493.238248","995243.915568","996009.986263","996776.668811","997543.356924","998310.000207","999077.294298","999843.395292","1000620.47654"
"Mixed","Male","tile","26","M_tile.wav","None","721.037903568","207","993727.456938","1000610.63713","1001377.38182","1002143.77591","988310.605566","989077.196599","989843.769082","990610.949706","994493.238248","995243.915568","996009.986263","996776.668811","997543.356924","998310.000207","999077.294298","999843.395292","1001387.51123"
"Mixed","Male","tile","26","F_jaw.wav","space","543.888082029","207","993727.456938","1000610.63713","1001377.38182","1002143.77591","1002893.15193","989077.196599","989843.769082","990610.949706","994493.238248","995243.915568","996009.986263","996776.668811","997543.356924","998310.000207","999077.294298","999843.395292","1002153.33026"
"Mixed","Male","tile","26","M_tile.wav","None","735.172640299","207","993727.456938","1000610.63713","1001377.38182","1002143.77591","1002893.15193","1003660.24166","989843.769082","990610.949706","994493.238248","995243.915568","996009.986263","996776.668811","997543.356924","998310.000207","999077.294298","999843.395292","1002902.12843"
"Mixed","Male","tile","26","F_greet.wav","space","515.894699725","207","993727.456938","1000610.63713","1001377.38182","1002143.77591","1002893.15193","1003660.24166","1004426.5028","990610.949706","994493.238248","995243.915568","996009.986263","996776.668811","997543.356924","998310.000207","999077.294298","999843.395292","1003669.31153"
"Mixed","Male","tile","26","F_cling.wav","None","730.124166701","207","993727.456938","1000610.63713","1001377.38182","1002143.77591","1002893.15193","1003660.24166","1004426.5028","1005193.30716","994493.238248","995243.915568","996009.986263","996776.668811","997543.356924","998310.000207","999077.294298","999843.395292","1004435.74829"
"Mixed","Female","tile","33","M_greet.wav","None","728.356010513","207","1008327.2344","1000610.63713","1001377.38182","1002143.77591","1002893.15193","1003660.24166","1004426.5028","1005193.30716","994493.238248","995243.915568","996009.986263","996776.668811","997543.356924","998310.000207","999077.294298","999843.395292","1005202.5879"
"Mixed","Female","tile","33","F_tile.wav","None","719.986718032","207","1008327.2344","1000610.63713","1001377.38182","1002143.77591","1002893.15193","1003660.24166","1004426.5028","1005193.30716","1009076.91371","995243.915568","996009.986263","996776.668811","997543.356924","998310.000207","999077.294298","999843.395292","1008337.17397"
"Mixed","Female","tile","33","M_jolt.wav","space","514.877522946","207","1008327.2344","1000610.63713","1001377.38182","1002143.77591","1002893.15193","1003660.24166","1004426.5028","1005193.30716","1009076.91371","1009843.2877","996009.986263","996776.668811","997543.356924","998310.000207","999077.294298","999843.395292","1009086.20897"
"Mixed","Female","tile","33","M_priest.wav","None","732.46861971","207","1008327.2344","1000610.63713","1001377.38182","1002143.77591","1002893.15193","1003660.24166","1004426.5028","1005193.30716","1009076.91371","1009843.2877","1010610.05898","996776.668811","997543.356924","998310.000207","999077.294298","999843.395292","1009853.03126"
"Mixed","Female","tile","33","M_depth.wav","None","731.396101299","207","1008327.2344","1000610.63713","1001377.38182","1002143.77591","1002893.15193","1003660.24166","1004426.5028","1005193.30716","1009076.91371","1009843.2877","1010610.05898","1011376.35197","997543.356924","998310.000207","999077.294298","999843.395292","1010619.14926"
"Mixed","Female","tile","33","F_tile.wav","None","730.420044507","207","1008327.2344","1000610.63713","1001377.38182","1002143.77591","1002893.15193","1003660.24166","1004426.5028","1005193.30716","1009076.91371","1009843.2877","1010610.05898","1011376.35197","1012143.31185","998310.000207","999077.294298","999843.395292","1011385.35878"
"Mixed","Female","tile","33","M_romp.wav","space","432.34677508","207","1008327.2344","1000610.63713","1001377.38182","1002143.77591","1002893.15193","1003660.24166","1004426.5028","1005193.30716","1009076.91371","1009843.2877","1010610.05898","1011376.35197","1012143.31185","1012910.08375","999077.294298","999843.395292","1012152.67915"
"Mixed","Female","tile","33","F_tile.wav","None","725.414855056","207","1008327.2344","1000610.63713","1001377.38182","1002143.77591","1002893.15193","1003660.24166","1004426.5028","1005193.30716","1009076.91371","1009843.2877","1010610.05898","1011376.35197","1012143.31185","1012910.08375","1013676.91995","999843.395292","1012919.22133"
"Mixed","Female","tile","33","F_jolt.wav","space","722.265935736","207","1008327.2344","1000610.63713","1001377.38182","1002143.77591","1002893.15193","1003660.24166","1004426.5028","1005193.30716","1009076.91371","1009843.2877","1010610.05898","1011376.35197","1012143.31185","1012910.08375","1013676.91995","1014443.61518","1013686.73957"
"Mixed","Female","tile","33","M_jaw.wav","None","720.672771218","207","1008327.2344","1015210.48756","1001377.38182","1002143.77591","1002893.15193","1003660.24166","1004426.5028","1005193.30716","1009076.91371","1009843.2877","1010610.05898","1011376.35197","1012143.31185","1012910.08375","1013676.91995","1014443.61518","1014453.49045"
"Mixed","Female","tile","33","F_reek.wav","None","719.043433433","207","1008327.2344","1015210.48756","1015959.55965","1002143.77591","1002893.15193","1003660.24166","1004426.5028","1005193.30716","1009076.91371","1009843.2877","1010610.05898","1011376.35197","1012143.31185","1012910.08375","1013676.91995","1014443.61518","1015220.06942"
"Mixed","Female","tile","33","F_cad.wav","None","735.507473699","207","1008327.2344","1015210.48756","1015959.55965","1016726.54457","1002893.15193","1003660.24166","1004426.5028","1005193.30716","1009076.91371","1009843.2877","1010610.05898","1011376.35197","1012143.31185","1012910.08375","1013676.91995","1014443.61518","1015968.71888"
"Mixed","Female","tile","33","F_cave.wav","None","733.616576414","207","1008327.2344","1015210.48756","1015959.55965","1016726.54457","1017493.05522","1003660.24166","1004426.5028","1005193.30716","1009076.91371","1009843.2877","1010610.05898","1011376.35197","1012143.31185","1012910.08375","1013676.91995","1014443.61518","1016736.10387"
"Mixed","Female","tile","33","M_knife.wav","None","733.016782091","207","1008327.2344","1015210.48756","1015959.55965","1016726.54457","1017493.05522","1018259.95852","1004426.5028","1005193.30716","1009076.91371","1009843.2877","1010610.05898","1011376.35197","1012143.31185","1012910.08375","1013676.91995","1014443.61518","1017501.97175"
"Mixed","Female","tile","33","F_tile.wav","None","731.501219911","207","1008327.2344","1015210.48756","1015959.55965","1016726.54457","1017493.05522","1018259.95852","1019026.61324","1005193.30716","1009076.91371","1009843.2877","1010610.05898","1011376.35197","1012143.31185","1012910.08375","1013676.91995","1014443.61518","1018269.18885"
"Mixed","Female","tile","33","M_park.wav","space","524.806589587","207","1008327.2344","1015210.48756","1015959.55965","1016726.54457","1017493.05522","1018259.95852","1019026.61324","1019793.2491","1009076.91371","1009843.2877","1010610.05898","1011376.35197","1012143.31185","1012910.08375","1013676.91995","1014443.61518","1019036.01547"
"Mixed","Female","cave","21","F_depth.wav","None","727.219802677","207","1022926.8214","1015210.48756","1015959.55965","1016726.54457","1017493.05522","1018259.95852","1019026.61324","1019793.2491","1009076.91371","1009843.2877","1010610.05898","1011376.35197","1012143.31185","1012910.08375","1013676.91995","1014443.61518","1019802.12142"
"Mixed","Female","cave","21","F_cave.wav","None","719.976515276","207","1022926.8214","1015210.48756","1015959.55965","1016726.54457","1017493.05522","1018259.95852","1019026.61324","1019793.2491","1023676.45063","1009843.2877","1010610.05898","1011376.35197","1012143.31185","1012910.08375","1013676.91995","1014443.61518","1022936.61907"
"Mixed","Female","cave","21","M_jaw.wav","space","507.079580682","207","1022926.8214","1015210.48756","1015959.55965","1016726.54457","1017493.05522","1018259.95852","1019026.61324","1019793.2491","1023676.45063","1024443.04908","1010610.05898","1011376.35197","1012143.31185","1012910.08375","1013676.91995","1014443.61518","1023685.70817"
"Mixed","Female","cave","21","F_reek.wav","None","736.026883125","207","1022926.8214","1015210.48756","1015959.55965","1016726.54457","1017493.05522","1018259.95852","1019026.61324","1019793.2491","1023676.45063","1024443.04908","1025209.68154","1011376.35197","1012143.31185","1012910.08375","1013676.91995","1014443.61518","1024449.02971"
"Mixed","Female","cave","21","M_tile.wav","None","730.665527284","207","1022926.8214","1015210.48756","1015959.55965","1016726.54457","1017493.05522","1018259.95852","1019026.61324","1019793.2491","1023676.45063","1024443.04908","1025209.68154","1025976.35142","1012143.31185","1012910.08375","1013676.91995","1014443.61518","1025219.42078"
"Mixed","Female","cave","21","F_cad.wav","None","729.468103149","207","1022926.8214","1015210.48756","1015959.55965","1016726.54457","1017493.05522","1018259.95852","1019026.61324","1019793.2491","1023676.45063","1024443.04908","1025209.68154","1025976.35142","1026742.95883","1012910.08375","1013676.91995","1014443.61518","1025985.67914"
"Mixed","Female","cave","21","M_jaw.wav","None","728.020867915","207","1022926.8214","1015210.48756","1015959.55965","1016726.54457","1017493.05522","1018259.95852","1019026.61324","1019793.2491","1023676.45063","1024443.04908","1025209.68154","1025976.35142","1026742.95883","1027509.39157","1013676.91995","1014443.61518","1026752.1734"
"Mixed","Female","cave","21","M_greet.wav","None","727.300496656","207","1022926.8214","1015210.48756","1015959.55965","1016726.54457","1017493.05522","1018259.95852","1019026.61324","1019793.2491","1023676.45063","1024443.04908","1025209.68154","1025976.35142","1026742.95883","1027509.39157","1028276.38051","1014443.61518","1027518.51308"
"Mixed","Female","cave","21","F_cave.wav","None","724.568341393","207","1022926.8214","1015210.48756","1015959.55965","1016726.54457","1017493.05522","1018259.95852","1019026.61324","1019793.2491","1023676.45063","1024443.04908","1025209.68154","1025976.35142","1026742.95883","1027509.39157","1028276.38051","1029043.45478","1028286.44901"
"Mixed","Female","cave","21","F_bluff.wav","space","419.395858888","207","1022926.8214","1029809.65718","1015959.55965","1016726.54457","1017493.05522","1018259.95852","1019026.61324","1019793.2491","1023676.45063","1024443.04908","1025209.68154","1025976.35142","1026742.95883","1027509.39157","1028276.38051","1029043.45478","1029053.28027"
"Mixed","Female","cave","21","M_done.wav","None","720.947934431","207","1022926.8214","1029809.65718","1030559.04309","1016726.54457","1017493.05522","1018259.95852","1019026.61324","1019793.2491","1023676.45063","1024443.04908","1025209.68154","1025976.35142","1026742.95883","1027509.39157","1028276.38051","1029043.45478","1029818.56351"
"Mixed","Female","cave","21","F_cave.wav","None","736.454777536","207","1022926.8214","1029809.65718","1030559.04309","1031326.17734","1017493.05522","1018259.95852","1019026.61324","1019793.2491","1023676.45063","1024443.04908","1025209.68154","1025976.35142","1026742.95883","1027509.39157","1028276.38051","1029043.45478","1030568.00321"
"Mixed","Female","cave","21","M_priest.wav","None","733.888029587","207","1022926.8214","1029809.65718","1030559.04309","1031326.17734","1032092.81907","1018259.95852","1019026.61324","1019793.2491","1023676.45063","1024443.04908","1025209.68154","1025976.35142","1026742.95883","1027509.39157","1028276.38051","1029043.45478","1031335.76662"
"Mixed","Female","cave","21","M_lash.wav","space","9.7853015177","207","1022926.8214","1029809.65718","1030559.04309","1031326.17734","1032092.81907","1032859.5313","1019026.61324","1019793.2491","1023676.45063","1024443.04908","1025209.68154","1025976.35142","1026742.95883","1027509.39157","1028276.38051","1029043.45478","1032102.8446"
"Mixed","Female","cave","21","F_cave.wav","None","729.182118899","207","1022926.8214","1029809.65718","1030559.04309","1031326.17734","1032092.81907","1032859.5313","1033626.20674","1019793.2491","1023676.45063","1024443.04908","1025209.68154","1025976.35142","1026742.95883","1027509.39157","1028276.38051","1029043.45478","1032868.89087"
"Mixed","Female","cave","21","M_romp.wav","space","717.127493001","207","1022926.8214","1029809.65718","1030559.04309","1031326.17734","1032092.81907","1032859.5313","1033626.20674","1034392.74367","1023676.45063","1024443.04908","1025209.68154","1025976.35142","1026742.95883","1027509.39157","1028276.38051","1029043.45478","1033635.41605"
"Mixed","Female","done","47","M_cad.wav","None","724.840103881","207","1037526.50766","1029809.65718","1030559.04309","1031326.17734","1032092.81907","1032859.5313","1033626.20674","1034392.74367","1023676.45063","1024443.04908","1025209.68154","1025976.35142","1026742.95883","1027509.39157","1028276.38051","1029043.45478","1034402.21021"
"Mixed","Female","done","47","M_park.wav","None","719.80863472","207","1037526.50766","1029809.65718","1030559.04309","1031326.17734","1032092.81907","1032859.5313","1033626.20674","1034392.74367","1038276.49768","1024443.04908","1025209.68154","1025976.35142","1026742.95883","1027509.39157","1028276.38051","1029043.45478","1037536.60584"
"Mixed","Female","done","47","M_dime.wav","None","735.560033005","207","1037526.50766","1029809.65718","1030559.04309","1031326.17734","1032092.81907","1032859.5313","1033626.20674","1034392.74367","1038276.49768","1039042.69267","1025209.68154","1025976.35142","1026742.95883","1027509.39157","1028276.38051","1029043.45478","1038285.9868"
"Mixed","Female","done","47","F_dime.wav","None","734.557696618","207","1037526.50766","1029809.65718","1030559.04309","1031326.17734","1032092.81907","1032859.5313","1033626.20674","1034392.74367","1038276.49768","1039042.69267","1039809.1387","1025976.35142","1026742.95883","1027509.39157","1028276.38051","1029043.45478","1039052.0476"
"Mixed","Female","done","47","F_done.wav","space","499.797646771","207","1037526.50766","1029809.65718","1030559.04309","1031326.17734","1032092.81907","1032859.5313","1033626.20674","1034392.74367","1038276.49768","1039042.69267","1039809.1387","1040575.73004","1026742.95883","1027509.39157","1028276.38051","1029043.45478","1039812.62462"
"Mixed","Female","done","47","M_depth.wav","None","730.64388521","207","1037526.50766","1029809.65718","1030559.04309","1031326.17734","1032092.81907","1032859.5313","1033626.20674","1034392.74367","1038276.49768","1039042.69267","1039809.1387","1040575.73004","1041342.54739","1027509.39157","1028276.38051","1029043.45478","1040584.67408"
"Mixed","Female","done","47","F_done.wav","None","728.414753336","207","1037526.50766","1029809.65718","1030559.04309","1031326.17734","1032092.81907","1032859.5313","1033626.20674","1034392.74367","1038276.49768","1039042.69267","1039809.1387","1040575.73004","1041342.54739","1042109.41946","1028276.38051","1029043.45478","1041352.02723"
"Mixed","Female","done","47","F_jaw.wav","space","513.99050781","207","1037526.50766","1029809.65718","1030559.04309","1031326.17734","1032092.81907","1032859.5313","1033626.20674","1034392.74367","1038276.49768","1039042.69267","1039809.1387","1040575.73004","1041342.54739","1042109.41946","1042876.02595","1029043.45478","1042118.41946"
"Mixed","Female","done","47","M_lash.wav","None","724.28823146","207","1037526.50766","1029809.65718","1030559.04309","1031326.17734","1032092.81907","1032859.5313","1033626.20674","1034392.74367","1038276.49768","1039042.69267","1039809.1387","1040575.73004","1041342.54739","1042109.41946","1042876.02595","1043642.72643","1042885.02132"
"Mixed","Female","done","47","M_cave.wav","None","722.774524009","207","1037526.50766","1044409.53326","1030559.04309","1031326.17734","1032092.81907","1032859.5313","1033626.20674","1034392.74367","1038276.49768","1039042.69267","1039809.1387","1040575.73004","1041342.54739","1042109.41946","1042876.02595","1043642.72643","1043651.70417"
"Mixed","Female","done","47","M_romp.wav","None","721.079641837","207","1037526.50766","1044409.53326","1045176.28043","1031326.17734","1032092.81907","1032859.5313","1033626.20674","1034392.74367","1038276.49768","1039042.69267","1039809.1387","1040575.73004","1041342.54739","1042109.41946","1042876.02595","1043642.72643","1044418.95467"
"Mixed","Female","done","47","F_done.wav","None","718.964903615","207","1037526.50766","1044409.53326","1045176.28043","1045925.45579","1032092.81907","1032859.5313","1033626.20674","1034392.74367","1038276.49768","1039042.69267","1039809.1387","1040575.73004","1041342.54739","1042109.41946","1042876.02595","1043642.72643","1045186.29483"
"Mixed","Female","done","47","M_bluff.wav","space","481.839686166","207","1037526.50766","1044409.53326","1045176.28043","1045925.45579","1046692.53964","1032859.5313","1033626.20674","1034392.74367","1038276.49768","1039042.69267","1039809.1387","1040575.73004","1041342.54739","1042109.41946","1042876.02595","1043642.72643","1045934.44343"
"Mixed","Female","done","47","F_depth.wav","None","732.254672563","207","1037526.50766","1044409.53326","1045176.28043","1045925.45579","1046692.53964","1047458.97114","1033626.20674","1034392.74367","1038276.49768","1039042.69267","1039809.1387","1040575.73004","1041342.54739","1042109.41946","1042876.02595","1043642.72643","1046701.88963"
"Mixed","Female","done","47","F_done.wav","None","731.12062877","207","1037526.50766","1044409.53326","1045176.28043","1045925.45579","1046692.53964","1047458.97114","1048225.90783","1034392.74367","1038276.49768","1039042.69267","1039809.1387","1040575.73004","1041342.54739","1042109.41946","1042876.02595","1043642.72643","1047468.42779"
"Mixed","Female","done","47","F_park.wav","space","629.035354708","207","1037526.50766","1044409.53326","1045176.28043","1045925.45579","1046692.53964","1047458.97114","1048225.90783","1048992.41693","1038276.49768","1039042.69267","1039809.1387","1040575.73004","1041342.54739","1042109.41946","1042876.02595","1043642.72643","1048235.16228"
"Mixed","Female","done","46","F_reek.wav","None","726.959479507","207","1052126.06127","1044409.53326","1045176.28043","1045925.45579","1046692.53964","1047458.97114","1048225.90783","1048992.41693","1038276.49768","1039042.69267","1039809.1387","1040575.73004","1041342.54739","1042109.41946","1042876.02595","1043642.72643","1049001.74899"
"Mixed","Female","done","46","M_greet.wav","None","719.942197204","207","1052126.06127","1044409.53326","1045176.28043","1045925.45579","1046692.53964","1047458.97114","1048225.90783","1048992.41693","1052892.96983","1039042.69267","1039809.1387","1040575.73004","1041342.54739","1042109.41946","1042876.02595","1043642.72643","1052136.10628"
"Mixed","Female","done","46","F_cave.wav","None","719.066312187","207","1052126.06127","1044409.53326","1045176.28043","1045925.45579","1046692.53964","1047458.97114","1048225.90783","1048992.41693","1052892.96983","1053642.12664","1039809.1387","1040575.73004","1041342.54739","1042109.41946","1042876.02595","1043642.72643","1052902.28797"
"Mixed","Female","done","46","F_done.wav","None","735.287343152","207","1052126.06127","1044409.53326","1045176.28043","1045925.45579","1046692.53964","1047458.97114","1048225.90783","1048992.41693","1052892.96983","1053642.12664","1054409.01973","1040575.73004","1041342.54739","1042109.41946","1042876.02595","1043642.72643","1053651.35945"
"Mixed","Female","done","46","M_reek.wav","space","389.519308228","207","1052126.06127","1044409.53326","1045176.28043","1045925.45579","1046692.53964","1047458.97114","1048225.90783","1048992.41693","1052892.96983","1053642.12664","1054409.01973","1055175.76102","1041342.54739","1042109.41946","1042876.02595","1043642.72643","1054418.58706"
"Mixed","Female","done","46","M_ball.wav","None","731.358382269","207","1052126.06127","1044409.53326","1045176.28043","1045925.45579","1046692.53964","1047458.97114","1048225.90783","1048992.41693","1052892.96983","1053642.12664","1054409.01973","1055175.76102","1055942.31681","1042109.41946","1042876.02595","1043642.72643","1055185.00805"
"Mixed","Female","done","46","F_cave.wav","None","729.608158232","207","1052126.06127","1044409.53326","1045176.28043","1045925.45579","1046692.53964","1047458.97114","1048225.90783","1048992.41693","1052892.96983","1053642.12664","1054409.01973","1055175.76102","1055942.31681","1056709.0986","1042876.02595","1043642.72643","1055951.94288"
"Mixed","Female","done","46","F_done.wav","None","734.094865853","207","1052126.06127","1044409.53326","1045176.28043","1045925.45579","1046692.53964","1047458.97114","1048225.90783","1048992.41693","1052892.96983","1053642.12664","1054409.01973","1055175.76102","1055942.31681","1056709.0986","1057475.72952","1043642.72643","1056712.82134"
"Mixed","Female","done","46","F_greet.wav","space","426.750138984","207","1052126.06127","1044409.53326","1045176.28043","1045925.45579","1046692.53964","1047458.97114","1048225.90783","1048992.41693","1052892.96983","1053642.12664","1054409.01973","1055175.76102","1055942.31681","1056709.0986","1057475.72952","1058242.04137","1057485.26841"
"Mixed","Female","done","46","F_done.wav","None","725.127324928","207","1052126.06127","1059009.83168","1045176.28043","1045925.45579","1046692.53964","1047458.97114","1048225.90783","1048992.41693","1052892.96983","1053642.12664","1054409.01973","1055175.76102","1055942.31681","1056709.0986","1057475.72952","1058242.04137","1058251.24975"
"Mixed","Female","done","46","M_knife.wav","space","428.505928139","207","1052126.06127","1059009.83168","1059776.17444","1045925.45579","1046692.53964","1047458.97114","1048225.90783","1048992.41693","1052892.96983","1053642.12664","1054409.01973","1055175.76102","1055942.31681","1056709.0986","1057475.72952","1058242.04137","1059019.50351"
"Mixed","Female","done","46","M_priest.wav","None","718.487232574","207","1052126.06127","1059009.83168","1059776.17444","1060525.42432","1046692.53964","1047458.97114","1048225.90783","1048992.41693","1052892.96983","1053642.12664","1054409.01973","1055175.76102","1055942.31681","1056709.0986","1057475.72952","1058242.04137","1059786.66559"
"Mixed","Female","done","46","F_done.wav","None","735.448730993","207","1052126.06127","1059009.83168","1059776.17444","1060525.42432","1061292.13994","1047458.97114","1048225.90783","1048992.41693","1052892.96983","1053642.12664","1054409.01973","1055175.76102","1055942.31681","1056709.0986","1057475.72952","1058242.04137","1060534.90756"
"Mixed","Female","done","46","M_depth.wav","space","362.464881968","207","1052126.06127","1059009.83168","1059776.17444","1060525.42432","1061292.13994","1062058.91123","1048225.90783","1048992.41693","1052892.96983","1053642.12664","1054409.01973","1055175.76102","1055942.31681","1056709.0986","1057475.72952","1058242.04137","1061301.5258"
"Mixed","Female","done","46","M_lash.wav","None","731.004689238","207","1052126.06127","1059009.83168","1059776.17444","1060525.42432","1061292.13994","1062058.91123","1062825.57213","1048992.41693","1052892.96983","1053642.12664","1054409.01973","1055175.76102","1055942.31681","1056709.0986","1057475.72952","1058242.04137","1062068.21484"
"Mixed","Female","done","46","M_dime.wav","None","729.246426723","207","1052126.06127","1059009.83168","1059776.17444","1060525.42432","1061292.13994","1062058.91123","1062825.57213","1063592.06114","1052892.96983","1053642.12664","1054409.01973","1055175.76102","1055942.31681","1056709.0986","1057475.72952","1058242.04137","1062835.31384"
"Mixed","Male","ball","4","M_cling.wav","None","728.716814541","207","1066726.08174","1059009.83168","1059776.17444","1060525.42432","1061292.13994","1062058.91123","1062825.57213","1063592.06114","1052892.96983","1053642.12664","1054409.01973","1055175.76102","1055942.31681","1056709.0986","1057475.72952","1058242.04137","1063601.01786"
"Mixed","Male","ball","4","F_reek.wav","None","719.722684822","207","1066726.08174","1059009.83168","1059776.17444","1060525.42432","1061292.13994","1062058.91123","1062825.57213","1063592.06114","1067475.60677","1053642.12664","1054409.01973","1055175.76102","1055942.31681","1056709.0986","1057475.72952","1058242.04137","1066735.70473"
"Mixed","Male","ball","4","M_ball.wav","None","735.586003517","207","1066726.08174","1059009.83168","1059776.17444","1060525.42432","1061292.13994","1062058.91123","1062825.57213","1063592.06114","1067475.60677","1068241.98942","1054409.01973","1055175.76102","1055942.31681","1056709.0986","1057475.72952","1058242.04137","1067485.14226"
"Mixed","Male","ball","4","M_dime.wav","space","404.238689691","207","1066726.08174","1059009.83168","1059776.17444","1060525.42432","1061292.13994","1062058.91123","1062825.57213","1063592.06114","1067475.60677","1068241.98942","1069008.85562","1055175.76102","1055942.31681","1056709.0986","1057475.72952","1058242.04137","1068251.57964"
"Mixed","Male","ball","4","M_ball.wav","None","731.112281093","207","1066726.08174","1059009.83168","1059776.17444","1060525.42432","1061292.13994","1062058.91123","1062825.57213","1063592.06114","1067475.60677","1068241.98942","1069008.85562","1069775.5023","1055942.31681","1056709.0986","1057475.72952","1058242.04137","1069018.41739"
"Mixed","Male","ball","4","F_greet.wav","space","446.876015514","207","1066726.08174","1059009.83168","1059776.17444","1060525.42432","1061292.13994","1062058.91123","1062825.57213","1063592.06114","1067475.60677","1068241.98942","1069008.85562","1069775.5023","1070541.82157","1056709.0986","1057475.72952","1058242.04137","1069784.93639"
"Mixed","Male","ball","4","F_priest.wav","None","727.732410189","207","1066726.08174","1059009.83168","1059776.17444","1060525.42432","1061292.13994","1062058.91123","1062825.57213","1063592.06114","1067475.60677","1068241.98942","1069008.85562","1069775.5023","1070541.82157","1071308.47011","1057475.72952","1058242.04137","1070550.71244"
