"Condition","Talker","Target","Trial","current_stimulus","response_response","response_time_response","subject_nr","time_Audio1","time_Audio10","time_Audio11","time_Audio12","time_Audio13","time_Audio14","time_Audio15","time_Audio16","time_Audio2","time_Audio3","time_Audio4","time_Audio5","time_Audio6","time_Audio7","time_Audio8","time_Audio9","time_response","title"
"Blocked","Male","done","24","M_priest.wav","NA","NA","325","211931.415182","NA","NA","NA","NA","NA","NA","NA","NA","NA","NA","NA","NA","NA","NA","NA","NA","Mapping"
"Blocked","Male","done","24","M_romp.wav","None","714.984975755","325","211931.415182","NA","NA","NA","NA","NA","NA","NA","212681.292208","NA","NA","NA","NA","NA","NA","NA","211946.319185","Mapping"
"Blocked","Male","done","24","M_jolt.wav","None","733.706340659","325","211931.415182","NA","NA","NA","NA","NA","NA","NA","212681.292208","213447.674445","NA","NA","NA","NA","NA","NA","212691.149268","Mapping"
"Blocked","Male","done","24","M_done.wav","None","730.829483829","325","211931.415182","NA","NA","NA","NA","NA","NA","NA","212681.292208","213447.674445","214214.338958","NA","NA","NA","NA","NA","213457.640644","Mapping"
"Blocked","Male","done","24","M_cad.wav","space","437.162865885","325","211931.415182","NA","NA","NA","NA","NA","NA","NA","212681.292208","213447.674445","214214.338958","214980.766644","NA","NA","NA","NA","214224.540128","Mapping"
"Blocked","Male","done","24","M_reek.wav","None","725.741729606","325","211931.415182","NA","NA","NA","NA","NA","NA","NA","212681.292208","213447.674445","214214.338958","214980.766644","215748.147511","NA","NA","NA","214989.870249","Mapping"
"Blocked","Male","done","24","M_priest.wav","None","721.020346042","325","211931.415182","NA","NA","NA","NA","NA","NA","NA","212681.292208","213447.674445","214214.338958","214980.766644","215748.147511","216497.751847","NA","NA","215758.27046","Mapping"
"Blocked","Male","done","24","M_done.wav","None","735.048461705","325","211931.415182","NA","NA","NA","NA","NA","NA","NA","212681.292208","213447.674445","214214.338958","214980.766644","215748.147511","216497.751847","217264.399046","NA","216508.019489","Mapping"
"Blocked","Male","done","24","M_reek.wav","space","475.367089268","325","211931.415182","NA","NA","NA","NA","NA","NA","NA","212681.292208","213447.674445","214214.338958","214980.766644","215748.147511","216497.751847","217264.399046","218031.147963","217274.267236","Mapping"
"Blocked","Male","done","24","M_greet.wav","None","729.862699285","325","211931.415182","218797.822678","NA","NA","NA","NA","NA","NA","212681.292208","213447.674445","214214.338958","214980.766644","215748.147511","216497.751847","217264.399046","218031.147963","218040.805915","Mapping"
"Blocked","Male","done","24","M_bluff.wav","None","726.623800583","325","211931.415182","218797.822678","219564.109073","NA","NA","NA","NA","NA","212681.292208","213447.674445","214214.338958","214980.766644","215748.147511","216497.751847","217264.399046","218031.147963","218807.553905","Mapping"
"Blocked","Male","done","24","M_done.wav","None","727.943661157","325","211931.415182","218797.822678","219564.109073","220330.963417","NA","NA","NA","NA","212681.292208","213447.674445","214214.338958","214980.766644","215748.147511","216497.751847","217264.399046","218031.147963","219573.311922","Mapping"
"Blocked","Male","done","24","M_bluff.wav","space","552.736754529","325","211931.415182","218797.822678","219564.109073","220330.963417","221098.38355","NA","NA","NA","212681.292208","213447.674445","214214.338958","214980.766644","215748.147511","216497.751847","217264.399046","218031.147963","220340.840574","Mapping"
"Blocked","Male","done","24","M_done.wav","None","719.785198569","325","211931.415182","218797.822678","219564.109073","220330.963417","221098.38355","221848.009527","NA","NA","212681.292208","213447.674445","214214.338958","214980.766644","215748.147511","216497.751847","217264.399046","218031.147963","221108.620274","Mapping"
"Blocked","Male","done","24","M_depth.wav","space","499.40777896","325","211931.415182","218797.822678","219564.109073","220330.963417","221098.38355","221848.009527","222614.63663","NA","212681.292208","213447.674445","214214.338958","214980.766644","215748.147511","216497.751847","217264.399046","218031.147963","221858.151954","Mapping"
"Blocked","Male","done","24","M_reek.wav","None","731.54150974","325","211931.415182","218797.822678","219564.109073","220330.963417","221098.38355","221848.009527","222614.63663","223381.511381","212681.292208","213447.674445","214214.338958","214980.766644","215748.147511","216497.751847","217264.399046","218031.147963","222624.142469","Mapping"
"Blocked","Male","ball","4","M_jolt.wav","None","728.638682514","325","226514.977741","218797.822678","219564.109073","220330.963417","221098.38355","221848.009527","222614.63663","223381.511381","212681.292208","213447.674445","214214.338958","214980.766644","215748.147511","216497.751847","217264.399046","218031.147963","223390.743602","Mapping"
"Blocked","Male","ball","4","M_romp.wav","None","720.049851108","325","226514.977741","218797.822678","219564.109073","220330.963417","221098.38355","221848.009527","222614.63663","223381.511381","227264.475412","213447.674445","214214.338958","214980.766644","215748.147511","216497.751847","217264.399046","218031.147963","226524.968055","Mapping"
"Blocked","Male","ball","4","M_ball.wav","None","733.164669015","325","226514.977741","218797.822678","219564.109073","220330.963417","221098.38355","221848.009527","222614.63663","223381.511381","227264.475412","228031.471049","214214.338958","214980.766644","215748.147511","216497.751847","217264.399046","218031.147963","227275.670883","Mapping"
"Blocked","Male","ball","4","M_bluff.wav","space","388.109136838","325","226514.977741","218797.822678","219564.109073","220330.963417","221098.38355","221848.009527","222614.63663","223381.511381","227264.475412","228031.471049","228798.034153","214980.766644","215748.147511","216497.751847","217264.399046","218031.147963","228041.374485","Mapping"
"Blocked","Male","ball","4","M_ball.wav","None","729.10769796","325","226514.977741","218797.822678","219564.109073","220330.963417","221098.38355","221848.009527","222614.63663","223381.511381","227264.475412","228031.471049","228798.034153","229564.479153","215748.147511","216497.751847","217264.399046","218031.147963","228807.544012","Mapping"
"Blocked","Male","ball","4","M_reek.wav","space","447.60148041","325","226514.977741","218797.822678","219564.109073","220330.963417","221098.38355","221848.009527","222614.63663","223381.511381","227264.475412","228031.471049","228798.034153","229564.479153","230331.756756","216497.751847","217264.399046","218031.147963","229573.82886","Mapping"
"Blocked","Male","ball","4","M_romp.wav","None","721.995787229","325","226514.977741","218797.822678","219564.109073","220330.963417","221098.38355","221848.009527","222614.63663","223381.511381","227264.475412","228031.471049","228798.034153","229564.479153","230331.756756","231097.634114","217264.399046","218031.147963","230341.995336","Mapping"
"Blocked","Male","ball","4","M_priest.wav","None","720.888328739","325","226514.977741","218797.822678","219564.109073","220330.963417","221098.38355","221848.009527","222614.63663","223381.511381","227264.475412","228031.471049","228798.034153","229564.479153","230331.756756","231097.634114","231847.427045","218031.147963","231106.922913","Mapping"
"Blocked","Male","ball","4","M_gnash.wav","None","733.942548744","325","226514.977741","218797.822678","219564.109073","220330.963417","221098.38355","221848.009527","222614.63663","223381.511381","227264.475412","228031.471049","228798.034153","229564.479153","230331.756756","231097.634114","231847.427045","232614.477715","231857.699325","Mapping"
"Blocked","Male","ball","4","M_jaw.wav","None","731.123816688","325","226514.977741","233381.273626","219564.109073","220330.963417","221098.38355","221848.009527","222614.63663","223381.511381","227264.475412","228031.471049","228798.034153","229564.479153","230331.756756","231097.634114","231847.427045","232614.477715","232624.272941","Mapping"
"Blocked","Male","ball","4","M_romp.wav","None","728.010133374","325","226514.977741","233381.273626","234147.916188","220330.963417","221098.38355","221848.009527","222614.63663","223381.511381","227264.475412","228031.471049","228798.034153","229564.479153","230331.756756","231097.634114","231847.427045","232614.477715","233391.254665","Mapping"
"Blocked","Male","ball","4","M_ball.wav","None","725.215516984","325","226514.977741","233381.273626","234147.916188","234914.817218","221098.38355","221848.009527","222614.63663","223381.511381","227264.475412","228031.471049","228798.034153","229564.479153","230331.756756","231097.634114","231847.427045","232614.477715","234157.956278","Mapping"
"Blocked","Male","ball","4","M_cling.wav","space","399.92573671","325","226514.977741","233381.273626","234147.916188","234914.817218","235681.507702","221848.009527","222614.63663","223381.511381","227264.475412","228031.471049","228798.034153","229564.479153","230331.756756","231097.634114","231847.427045","232614.477715","234925.390323","Mapping"
"Blocked","Male","ball","4","M_gnash.wav","None","718.989077955","325","226514.977741","233381.273626","234147.916188","234914.817218","235681.507702","236431.148211","222614.63663","223381.511381","227264.475412","228031.471049","228798.034153","229564.479153","230331.756756","231097.634114","231847.427045","232614.477715","235691.672698","Mapping"
"Blocked","Male","ball","4","M_ball.wav","None","733.712833375","325","226514.977741","233381.273626","234147.916188","234914.817218","235681.507702","236431.148211","237197.339688","223381.511381","227264.475412","228031.471049","228798.034153","229564.479153","230331.756756","231097.634114","231847.427045","232614.477715","236440.829969","Mapping"
"Blocked","Male","ball","4","M_cling.wav","space","374.896929134","325","226514.977741","233381.273626","234147.916188","234914.817218","235681.507702","236431.148211","237197.339688","237964.239482","227264.475412","228031.471049","228798.034153","229564.479153","230331.756756","231097.634114","231847.427045","232614.477715","237206.395062","Mapping"
"Blocked","Male","done","19","M_reek.wav","None","728.463999927","325","241098.080869","233381.273626","234147.916188","234914.817218","235681.507702","236431.148211","237197.339688","237964.239482","227264.475412","228031.471049","228798.034153","229564.479153","230331.756756","231097.634114","231847.427045","232614.477715","237973.521479","Mapping"
"Blocked","Male","done","19","M_jolt.wav","None","719.749334734","325","241098.080869","233381.273626","234147.916188","234914.817218","235681.507702","236431.148211","237197.339688","237964.239482","241847.619969","228031.471049","228798.034153","229564.479153","230331.756756","231097.634114","231847.427045","232614.477715","241108.050468","Mapping"
"Blocked","Male","done","19","M_greet.wav","None","734.22451457","325","241098.080869","233381.273626","234147.916188","234914.817218","235681.507702","236431.148211","237197.339688","237964.239482","241847.619969","242614.354664","228798.034153","229564.479153","230331.756756","231097.634114","231847.427045","232614.477715","241857.45415","Mapping"
"Blocked","Male","done","19","M_done.wav","None","731.636735145","325","241098.080869","233381.273626","234147.916188","234914.817218","235681.507702","236431.148211","237197.339688","237964.239482","241847.619969","242614.354664","243381.204681","229564.479153","230331.756756","231097.634114","231847.427045","232614.477715","242623.808562","Mapping"
"Blocked","Male","done","19","M_jaw.wav","space","517.977648415","325","241098.080869","233381.273626","234147.916188","234914.817218","235681.507702","236431.148211","237197.339688","237964.239482","241847.619969","242614.354664","243381.204681","244147.66112","230331.756756","231097.634114","231847.427045","232614.477715","243391.258066","Mapping"
"Blocked","Male","done","19","M_romp.wav","None","725.169450045","325","241098.080869","233381.273626","234147.916188","234914.817218","235681.507702","236431.148211","237197.339688","237964.239482","241847.619969","242614.354664","243381.204681","244147.66112","244914.538344","231097.634114","231847.427045","232614.477715","244157.38338","Mapping"
"Blocked","Male","done","19","M_done.wav","None","720.745490864","325","241098.080869","233381.273626","234147.916188","234914.817218","235681.507702","236431.148211","237197.339688","237964.239482","241847.619969","242614.354664","243381.204681","244147.66112","244914.538344","245681.383414","231847.427045","232614.477715","244925.655285","Mapping"
"Blocked","Male","done","19","M_dime.wav","space","585.395338014","325","241098.080869","233381.273626","234147.916188","234914.817218","235681.507702","236431.148211","237197.339688","237964.239482","241847.619969","242614.354664","243381.204681","244147.66112","244914.538344","245681.383414","246431.078646","232614.477715","245691.729277","Mapping"
"Blocked","Male","done","19","M_reek.wav","None","732.797989622","325","241098.080869","233381.273626","234147.916188","234914.817218","235681.507702","236431.148211","237197.339688","237964.239482","241847.619969","242614.354664","243381.204681","244147.66112","244914.538344","245681.383414","246431.078646","247197.63835","246440.880673","Mapping"
"Blocked","Male","done","19","M_lash.wav","None","730.359540321","325","241098.080869","247964.205473","234147.916188","234914.817218","235681.507702","236431.148211","237197.339688","237964.239482","241847.619969","242614.354664","243381.204681","244147.66112","244914.538344","245681.383414","246431.078646","247197.63835","247207.251472","Mapping"
"Blocked","Male","done","19","M_done.wav","None","727.346338332","325","241098.080869","247964.205473","248730.49434","234914.817218","235681.507702","236431.148211","237197.339688","237964.239482","241847.619969","242614.354664","243381.204681","244147.66112","244914.538344","245681.383414","246431.078646","247197.63835","247974.129932","Mapping"
"Blocked","Male","done","19","M_lash.wav","space","401.612276211","325","241098.080869","247964.205473","248730.49434","249497.879226","235681.507702","236431.148211","237197.339688","237964.239482","241847.619969","242614.354664","243381.204681","244147.66112","244914.538344","245681.383414","246431.078646","247197.63835","248739.497154","Mapping"
"Blocked","Male","done","19","M_priest.wav","None","721.092692111","325","241098.080869","247964.205473","248730.49434","249497.879226","250248.16869","236431.148211","237197.339688","237964.239482","241847.619969","242614.354664","243381.204681","244147.66112","244914.538344","245681.383414","246431.078646","247197.63835","249507.877888","Mapping"
"Blocked","Male","done","19","M_greet.wav","None","735.152961686","325","241098.080869","247964.205473","248730.49434","249497.879226","250248.16869","251014.123959","237197.339688","237964.239482","241847.619969","242614.354664","243381.204681","244147.66112","244914.538344","245681.383414","246431.078646","247197.63835","250257.806237","Mapping"
"Blocked","Male","done","19","M_done.wav","None","732.984730508","325","241098.080869","247964.205473","248730.49434","249497.879226","250248.16869","251014.123959","251781.00242","237964.239482","241847.619969","242614.354664","243381.204681","244147.66112","244914.538344","245681.383414","246431.078646","247197.63835","251023.825196","Mapping"
"Blocked","Male","done","19","M_gnash.wav","space","566.517531872","325","241098.080869","247964.205473","248730.49434","249497.879226","250248.16869","251014.123959","251781.00242","252547.08105","241847.619969","242614.354664","243381.204681","244147.66112","244914.538344","245681.383414","246431.078646","247197.63835","251790.551543","Mapping"
"Blocked","Male","tile","14","M_greet.wav","None","727.880280931","325","255681.0931","247964.205473","248730.49434","249497.879226","250248.16869","251014.123959","251781.00242","252547.08105","241847.619969","242614.354664","243381.204681","244147.66112","244914.538344","245681.383414","246431.078646","247197.63835","252556.419007","Mapping"
"Blocked","Male","tile","14","M_cad.wav","None","720.289151184","325","255681.0931","247964.205473","248730.49434","249497.879226","250248.16869","251014.123959","251781.00242","252547.08105","256430.675794","242614.354664","243381.204681","244147.66112","244914.538344","245681.383414","246431.078646","247197.63835","255691.289014","Mapping"
"Blocked","Male","tile","14","M_tile.wav","None","735.212941654","325","255681.0931","247964.205473","248730.49434","249497.879226","250248.16869","251014.123959","251781.00242","252547.08105","256430.675794","257197.452536","243381.204681","244147.66112","244914.538344","245681.383414","246431.078646","247197.63835","256440.34735","Mapping"
"Blocked","Male","tile","14","M_dime.wav","space","453.854199499","325","255681.0931","247964.205473","248730.49434","249497.879226","250248.16869","251014.123959","251781.00242","252547.08105","256430.675794","257197.452536","257963.872493","244147.66112","244914.538344","245681.383414","246431.078646","247197.63835","257207.102759","Mapping"
"Blocked","Male","tile","14","M_lash.wav","None","729.411615524","325","255681.0931","247964.205473","248730.49434","249497.879226","250248.16869","251014.123959","251781.00242","252547.08105","256430.675794","257197.452536","257963.872493","258730.485065","244914.538344","245681.383414","246431.078646","247197.63835","257974.023886","Mapping"
"Blocked","Male","tile","14","M_tile.wav","None","727.049532346","325","255681.0931","247964.205473","248730.49434","249497.879226","250248.16869","251014.123959","251781.00242","252547.08105","256430.675794","257197.452536","257963.872493","258730.485065","259496.966856","245681.383414","246431.078646","247197.63835","258740.266686","Mapping"
"Blocked","Male","tile","14","M_cad.wav","space","474.944140296","325","255681.0931","247964.205473","248730.49434","249497.879226","250248.16869","251014.123959","251781.00242","252547.08105","256430.675794","257197.452536","257963.872493","258730.485065","259496.966856","260264.442639","246431.078646","247197.63835","259505.93999","Mapping"
"Blocked","Male","tile","14","M_tile.wav","None","720.837624744","325","255681.0931","247964.205473","248730.49434","249497.879226","250248.16869","251014.123959","251781.00242","252547.08105","256430.675794","257197.452536","257963.872493","258730.485065","259496.966856","260264.442639","261014.002145","247197.63835","260274.315467","Mapping"
"Blocked","Male","tile","14","M_jaw.wav","space","557.580880355","325","255681.0931","247964.205473","248730.49434","249497.879226","250248.16869","251014.123959","251781.00242","252547.08105","256430.675794","257197.452536","257963.872493","258730.485065","259496.966856","260264.442639","261014.002145","261780.748898","261023.294964","Mapping"
"Blocked","Male","tile","14","M_jaw.wav","None","732.143160887","325","255681.0931","262547.366725","248730.49434","249497.879226","250248.16869","251014.123959","251781.00242","252547.08105","256430.675794","257197.452536","257963.872493","258730.485065","259496.966856","260264.442639","261014.002145","261780.748898","261790.760853","Mapping"
"Blocked","Male","tile","14","M_tile.wav","None","729.027004447","325","255681.0931","262547.366725","263313.965694","249497.879226","250248.16869","251014.123959","251781.00242","252547.08105","256430.675794","257197.452536","257963.872493","258730.485065","259496.966856","260264.442639","261014.002145","261780.748898","262557.79019","Mapping"
"Blocked","Male","tile","14","M_cad.wav","space","496.997773647","325","255681.0931","262547.366725","263313.965694","264081.117772","250248.16869","251014.123959","251781.00242","252547.08105","256430.675794","257197.452536","257963.872493","258730.485065","259496.966856","260264.442639","261014.002145","261780.748898","263323.839449","Mapping"
"Blocked","Male","tile","14","M_knife.wav","None","723.023788538","325","255681.0931","262547.366725","263313.965694","264081.117772","264847.212788","251014.123959","251781.00242","252547.08105","256430.675794","257197.452536","257963.872493","258730.485065","259496.966856","260264.442639","261014.002145","261780.748898","264091.376448","Mapping"
"Blocked","Male","tile","14","M_greet.wav","None","721.556761302","325","255681.0931","262547.366725","263313.965694","264081.117772","264847.212788","265597.330969","251781.00242","252547.08105","256430.675794","257197.452536","257963.872493","258730.485065","259496.966856","260264.442639","261014.002145","261780.748898","264856.820655","Mapping"
"Blocked","Male","tile","14","M_jolt.wav","None","735.131629277","325","255681.0931","262547.366725","263313.965694","264081.117772","264847.212788","265597.330969","266363.849862","252547.08105","256430.675794","257197.452536","257963.872493","258730.485065","259496.966856","260264.442639","261014.002145","261780.748898","265607.261922","Mapping"
"Blocked","Male","tile","14","M_park.wav","None","732.985966839","325","255681.0931","262547.366725","263313.965694","264081.117772","264847.212788","265597.330969","266363.849862","267130.69926","256430.675794","257197.452536","257963.872493","258730.485065","259496.966856","260264.442639","261014.002145","261780.748898","266373.468858","Mapping"
"Blocked","Male","cave","12","M_reek.wav","None","729.471285827","325","270264.106259","262547.366725","263313.965694","264081.117772","264847.212788","265597.330969","266363.849862","267130.69926","256430.675794","257197.452536","257963.872493","258730.485065","259496.966856","260264.442639","261014.002145","261780.748898","267140.999674","Mapping"
"Blocked","Male","cave","12","M_romp.wav","None","720.012440812","325","270264.106259","262547.366725","263313.965694","264081.117772","264847.212788","265597.330969","266363.849862","267130.69926","271013.720488","257197.452536","257963.872493","258730.485065","259496.966856","260264.442639","261014.002145","261780.748898","270274.096573","Mapping"
"Blocked","Male","cave","12","M_cave.wav","None","735.303219873","325","270264.106259","262547.366725","263313.965694","264081.117772","264847.212788","265597.330969","266363.849862","267130.69926","271013.720488","271780.514544","257963.872493","258730.485065","259496.966856","260264.442639","261014.002145","261780.748898","271022.751747","Mapping"
"Blocked","Male","cave","12","M_priest.wav","space","445.907829795","325","270264.106259","262547.366725","263313.965694","264081.117772","264847.212788","265597.330969","266363.849862","267130.69926","271013.720488","271780.514544","272547.152778","258730.485065","259496.966856","260264.442639","261014.002145","261780.748898","271790.780331","Mapping"
"Blocked","Male","cave","12","M_cad.wav","None","729.011854623","325","270264.106259","262547.366725","263313.965694","264081.117772","264847.212788","265597.330969","266363.849862","267130.69926","271013.720488","271780.514544","272547.152778","273313.698259","259496.966856","260264.442639","261014.002145","261780.748898","272556.671911","Mapping"
"Blocked","Male","cave","12","M_bluff.wav","None","726.02771502","325","270264.106259","262547.366725","263313.965694","264081.117772","264847.212788","265597.330969","266363.849862","267130.69926","271013.720488","271780.514544","272547.152778","273313.698259","274080.961022","260264.442639","261014.002145","261780.748898","273323.642505","Mapping"
"Blocked","Male","cave","12","M_bluff.wav","None","722.718015779","325","270264.106259","262547.366725","263313.965694","264081.117772","264847.212788","265597.330969","266363.849862","267130.69926","271013.720488","271780.514544","272547.152778","273313.698259","274080.961022","274847.464455","261014.002145","261780.748898","274090.888264","Mapping"
"Blocked","Male","cave","12","M_cave.wav","None","719.989562407","325","270264.106259","262547.366725","263313.965694","264081.117772","264847.212788","265597.330969","266363.849862","267130.69926","271013.720488","271780.514544","272547.152778","273313.698259","274080.961022","274847.464455","275596.829491","261780.748898","274857.766724","Mapping"
"Blocked","Male","cave","12","M_jolt.wav","space","494.04795235","325","270264.106259","262547.366725","263313.965694","264081.117772","264847.212788","265597.330969","266363.849862","267130.69926","271013.720488","271780.514544","272547.152778","273313.698259","274080.961022","274847.464455","275596.829491","276363.676415","275606.549277","Mapping"
"Blocked","Male","cave","12","M_cave.wav","None","731.373937801","325","270264.106259","277130.552712","263313.965694","264081.117772","264847.212788","265597.330969","266363.849862","267130.69926","271013.720488","271780.514544","272547.152778","273313.698259","274080.961022","274847.464455","275596.829491","276363.676415","276373.958589","Mapping"
"Blocked","Male","cave","12","M_dime.wav","space","615.906713996","325","270264.106259","277130.552712","277897.044706","264081.117772","264847.212788","265597.330969","266363.849862","267130.69926","271013.720488","271780.514544","272547.152778","273313.698259","274080.961022","274847.464455","275596.829491","276363.676415","277140.665458","Mapping"
"Blocked","Male","cave","12","M_bluff.wav","None","726.296695415","325","270264.106259","277130.552712","277897.044706","278664.036015","264847.212788","265597.330969","266363.849862","267130.69926","271013.720488","271780.514544","272547.152778","273313.698259","274080.961022","274847.464455","275596.829491","276363.676415","277906.639896","Mapping"
"Blocked","Male","cave","12","M_jaw.wav","None","723.027497996","325","270264.106259","277130.552712","277897.044706","278664.036015","279430.721242","265597.330969","266363.849862","267130.69926","271013.720488","271780.514544","272547.152778","273313.698259","274080.961022","274847.464455","275596.829491","276363.676415","278674.031275","Mapping"
"Blocked","Male","cave","12","M_cave.wav","None","720.198563766","325","270264.106259","277130.552712","277897.044706","278664.036015","279430.721242","280179.761646","266363.849862","267130.69926","271013.720488","271780.514544","272547.152778","273313.698259","274080.961022","274847.464455","275596.829491","276363.676415","279440.940962","Mapping"
"Blocked","Male","cave","12","M_knife.wav","space","479.514956474","325","270264.106259","277130.552712","277897.044706","278664.036015","279430.721242","280179.761646","280946.481501","267130.69926","271013.720488","271780.514544","272547.152778","273313.698259","274080.961022","274847.464455","275596.829491","276363.676415","280189.021074","Mapping"
"Blocked","Male","cave","12","M_depth.wav","None","733.307816554","325","270264.106259","277130.552712","277897.044706","278664.036015","279430.721242","280179.761646","280946.481501","281713.725713","271013.720488","271780.514544","272547.152778","273313.698259","274080.961022","274847.464455","275596.829491","276363.676415","280955.563772","Mapping"
"Blocked","Male","cave","8","M_romp.wav","None","728.992376942","325","284847.452397","277130.552712","277897.044706","278664.036015","279430.721242","280179.761646","280946.481501","281713.725713","271013.720488","271780.514544","272547.152778","273313.698259","274080.961022","274847.464455","275596.829491","276363.676415","281723.937704","Mapping"
"Blocked","Male","cave","8","M_cave.wav","None","718.913021497","325","284847.452397","277130.552712","277897.044706","278664.036015","279430.721242","280179.761646","280946.481501","281713.725713","285596.812486","271780.514544","272547.152778","273313.698259","274080.961022","274847.464455","275596.829491","276363.676415","284857.966759","Mapping"
"Blocked","Male","cave","8","M_bluff.wav","space","421.944433823","325","284847.452397","277130.552712","277897.044706","278664.036015","279430.721242","280179.761646","280946.481501","281713.725713","285596.812486","286363.356112","272547.152778","273313.698259","274080.961022","274847.464455","275596.829491","276363.676415","285606.461163","Mapping"
"Blocked","Male","cave","8","M_romp.wav","None","732.241168618","325","284847.452397","277130.552712","277897.044706","278664.036015","279430.721242","280179.761646","280946.481501","281713.725713","285596.812486","286363.356112","287130.338764","273313.698259","274080.961022","274847.464455","275596.829491","276363.676415","286372.34625","Mapping"
"Blocked","Male","cave","8","M_romp.wav","None","728.652286343","325","284847.452397","277130.552712","277897.044706","278664.036015","279430.721242","280179.761646","280946.481501","281713.725713","285596.812486","286363.356112","287130.338764","287896.633506","274080.961022","274847.464455","275596.829491","276363.676415","287139.89067","Mapping"
"Blocked","Male","cave","8","M_depth.wav","None","726.540015079","325","284847.452397","277130.552712","277897.044706","278664.036015","279430.721242","280179.761646","280946.481501","281713.725713","285596.812486","286363.356112","287130.338764","287896.633506","288663.782493","274847.464455","275596.829491","276363.676415","287906.06638","Mapping"
"Blocked","Male","cave","8","M_lash.wav","None","722.699156031","325","284847.452397","277130.552712","277897.044706","278664.036015","279430.721242","280179.761646","280946.481501","281713.725713","285596.812486","286363.356112","287130.338764","287896.633506","288663.782493","289429.934396","275596.829491","276363.676415","288674.091873","Mapping"
"Blocked","Male","cave","8","M_knife.wav","None","721.641784068","325","284847.452397","277130.552712","277897.044706","278664.036015","279430.721242","280179.761646","280946.481501","281713.725713","285596.812486","286363.356112","287130.338764","287896.633506","288663.782493","289429.934396","290180.091843","276363.676415","289439.653874","Mapping"
"Blocked","Male","cave","8","M_cave.wav","None","735.514694359","325","284847.452397","277130.552712","277897.044706","278664.036015","279430.721242","280179.761646","280946.481501","281713.725713","285596.812486","286363.356112","287130.338764","287896.633506","288663.782493","289429.934396","290180.091843","290946.827466","290189.892015","Mapping"
"Blocked","Male","cave","8","M_knife.wav","space","391.928971745","325","284847.452397","291713.483631","277897.044706","278664.036015","279430.721242","280179.761646","280946.481501","281713.725713","285596.812486","286363.356112","287130.338764","287896.633506","288663.782493","289429.934396","290180.091843","290946.827466","290956.41369","Mapping"
"Blocked","Male","cave","8","M_gnash.wav","None","729.108316824","325","284847.452397","291713.483631","292479.706335","278664.036015","279430.721242","280179.761646","280946.481501","281713.725713","285596.812486","286363.356112","287130.338764","287896.633506","288663.782493","289429.934396","290180.091843","290946.827466","291723.73334","Mapping"
"Blocked","Male","cave","8","M_cave.wav","None","728.125764523","325","284847.452397","291713.483631","292479.706335","293246.447213","279430.721242","280179.761646","280946.481501","281713.725713","285596.812486","286363.356112","287130.338764","287896.633506","288663.782493","289429.934396","290180.091843","290946.827466","292488.900527","Mapping"
"Blocked","Male","cave","8","M_cad.wav","space","420.12371216","325","284847.452397","291713.483631","292479.706335","293246.447213","294013.658963","280179.761646","280946.481501","281713.725713","285596.812486","286363.356112","287130.338764","287896.633506","288663.782493","289429.934396","290180.091843","290946.827466","293256.189261","Mapping"
"Blocked","Male","cave","8","M_lash.wav","None","721.184516791","325","284847.452397","291713.483631","292479.706335","293246.447213","294013.658963","294780.427667","280946.481501","281713.725713","285596.812486","286363.356112","287130.338764","287896.633506","288663.782493","289429.934396","290180.091843","290946.827466","294023.847456","Mapping"
"Blocked","Male","cave","8","M_cave.wav","None","717.909135856","325","284847.452397","291713.483631","292479.706335","293246.447213","294013.658963","294780.427667","295529.624203","281713.725713","285596.812486","286363.356112","287130.338764","287896.633506","288663.782493","289429.934396","290180.091843","290946.827466","294791.309018","Mapping"
"Blocked","Male","cave","8","M_knife.wav","space","521.583844908","325","284847.452397","291713.483631","292479.706335","293246.447213","294013.658963","294780.427667","295529.624203","296296.707955","285596.812486","286363.356112","287130.338764","287896.633506","288663.782493","289429.934396","290180.091843","290946.827466","295538.68205","Mapping"
"Blocked","Male","ball","6","M_priest.wav","None","730.392931029","325","299430.461227","291713.483631","292479.706335","293246.447213","294013.658963","294780.427667","295529.624203","296296.707955","285596.812486","286363.356112","287130.338764","287896.633506","288663.782493","289429.934396","290180.091843","290946.827466","296306.36498","Mapping"
"Blocked","Male","ball","6","M_ball.wav","None","721.244187094","325","299430.461227","291713.483631","292479.706335","293246.447213","294013.658963","294780.427667","295529.624203","296296.707955","300196.346315","286363.356112","287130.338764","287896.633506","288663.782493","289429.934396","290180.091843","290946.827466","299440.686204","Mapping"
"Blocked","Male","ball","6","M_priest.wav","space","557.98806157","325","299430.461227","291713.483631","292479.706335","293246.447213","294013.658963","294780.427667","295529.624203","296296.707955","300196.346315","300946.703178","287130.338764","287896.633506","288663.782493","289429.934396","290180.091843","290946.827466","300206.157926","Mapping"
"Blocked","Male","ball","6","M_knife.wav","None","732.680503745","325","299430.461227","291713.483631","292479.706335","293246.447213","294013.658963","294780.427667","295529.624203","296296.707955","300196.346315","300946.703178","301713.048005","287896.633506","288663.782493","289429.934396","290180.091843","290946.827466","300957.070064","Mapping"
"Blocked","Male","ball","6","M_knife.wav","None","731.503481511","325","299430.461227","291713.483631","292479.706335","293246.447213","294013.658963","294780.427667","295529.624203","296296.707955","300196.346315","300946.703178","301713.048005","302480.026329","288663.782493","289429.934396","290180.091843","290946.827466","301722.592182","Mapping"
"Blocked","Male","ball","6","M_ball.wav","None","728.701753542","325","299430.461227","291713.483631","292479.706335","293246.447213","294013.658963","294780.427667","295529.624203","296296.707955","300196.346315","300946.703178","301713.048005","302480.026329","303246.643229","289429.934396","290180.091843","290946.827466","302489.554738","Mapping"
"Blocked","Male","ball","6","M_lash.wav","space","395.61462542","325","299430.461227","291713.483631","292479.706335","293246.447213","294013.658963","294780.427667","295529.624203","296296.707955","300196.346315","300946.703178","301713.048005","302480.026329","303246.643229","304013.530656","290180.091843","290946.827466","303256.530897","Mapping"
"Blocked","Male","ball","6","M_ball.wav","None","722.212208435","325","299430.461227","291713.483631","292479.706335","293246.447213","294013.658963","294780.427667","295529.624203","296296.707955","300196.346315","300946.703178","301713.048005","302480.026329","303246.643229","304013.530656","304780.237834","290946.827466","304023.827051","Mapping"
"Blocked","Male","ball","6","M_depth.wav","space","421.604034025","325","299430.461227","291713.483631","292479.706335","293246.447213","294013.658963","294780.427667","295529.624203","296296.707955","300196.346315","300946.703178","301713.048005","302480.026329","303246.643229","304013.530656","304780.237834","305529.78621","304790.498984","Mapping"
"Blocked","Male","ball","6","M_lash.wav","None","734.192979056","325","299430.461227","306296.205239","292479.706335","293246.447213","294013.658963","294780.427667","295529.624203","296296.707955","300196.346315","300946.703178","301713.048005","302480.026329","303246.643229","304013.530656","304780.237834","305529.78621","305539.634922","Mapping"
"Blocked","Male","ball","6","M_jolt.wav","None","732.4294555","325","299430.461227","306296.205239","307063.131003","293246.447213","294013.658963","294780.427667","295529.624203","296296.707955","300196.346315","300946.703178","301713.048005","302480.026329","303246.643229","304013.530656","304780.237834","305529.78621","306305.633785","Mapping"
"Blocked","Male","ball","6","M_cling.wav","None","729.55599986","325","299430.461227","306296.205239","307063.131003","307830.01812","294013.658963","294780.427667","295529.624203","296296.707955","300196.346315","300946.703178","301713.048005","302480.026329","303246.643229","304013.530656","304780.237834","305529.78621","307072.751545","Mapping"
"Blocked","Male","ball","6","M_reek.wav","None","726.884124335","325","299430.461227","306296.205239","307063.131003","307830.01812","308596.495584","294780.427667","295529.624203","296296.707955","300196.346315","300946.703178","301713.048005","302480.026329","303246.643229","304013.530656","304780.237834","305529.78621","307839.724923","Mapping"
"Blocked","Male","ball","6","M_ball.wav","None","724.512147717","325","299430.461227","306296.205239","307063.131003","307830.01812","308596.495584","309363.033026","295529.624203","296296.707955","300196.346315","300946.703178","301713.048005","302480.026329","303246.643229","304013.530656","304780.237834","305529.78621","308606.440449","Mapping"
"Blocked","Male","ball","6","M_greet.wav","space","495.596909896","325","299430.461227","306296.205239","307063.131003","307830.01812","308596.495584","309363.033026","310130.26178","296296.707955","300196.346315","300946.703178","301713.048005","302480.026329","303246.643229","304013.530656","304780.237834","305529.78621","309372.395718","Mapping"
"Blocked","Male","ball","6","M_jaw.wav","None","718.334249221","325","299430.461227","306296.205239","307063.131003","307830.01812","308596.495584","309363.033026","310130.26178","310879.837053","300196.346315","300946.703178","301713.048005","302480.026329","303246.643229","304013.530656","304780.237834","305529.78621","310140.303416","Mapping"
"Blocked","Male","tile","15","M_romp.wav","None","732.883939985","325","314013.337423","306296.205239","307063.131003","307830.01812","308596.495584","309363.033026","310130.26178","310879.837053","300196.346315","300946.703178","301713.048005","302480.026329","303246.643229","304013.530656","304780.237834","305529.78621","310890.015653","Mapping"
"Blocked","Male","tile","15","M_cling.wav","None","719.923089724","325","314013.337423","306296.205239","307063.131003","307830.01812","308596.495584","309363.033026","310130.26178","310879.837053","314762.871576","300946.703178","301713.048005","302480.026329","303246.643229","304013.530656","304780.237834","305529.78621","314023.435329","Mapping"
"Blocked","Male","tile","15","M_gnash.wav","None","735.308784992","325","314013.337423","306296.205239","307063.131003","307830.01812","308596.495584","309363.033026","310130.26178","310879.837053","314762.871576","315529.429733","301713.048005","302480.026329","303246.643229","304013.530656","304780.237834","305529.78621","314772.455018","Mapping"
"Blocked","Male","tile","15","M_jolt.wav","None","733.322347514","325","314013.337423","306296.205239","307063.131003","307830.01812","308596.495584","309363.033026","310130.26178","310879.837053","314762.871576","315529.429733","316295.920181","302480.026329","303246.643229","304013.530656","304780.237834","305529.78621","315538.805719","Mapping"
"Blocked","Male","tile","15","M_depth.wav","None","731.053634081","325","314013.337423","306296.205239","307063.131003","307830.01812","308596.495584","309363.033026","310130.26178","310879.837053","314762.871576","315529.429733","316295.920181","317062.610974","303246.643229","304013.530656","304780.237834","305529.78621","316305.276072","Mapping"
"Blocked","Male","tile","15","M_tile.wav","None","728.86963468","325","314013.337423","306296.205239","307063.131003","307830.01812","308596.495584","309363.033026","310130.26178","310879.837053","314762.871576","315529.429733","316295.920181","317062.610974","317829.80881","304013.530656","304780.237834","305529.78621","317072.037974","Mapping"
"Blocked","Male","tile","15","M_cling.wav","space","396.302226931","325","314013.337423","306296.205239","307063.131003","307830.01812","308596.495584","309363.033026","310130.26178","310879.837053","314762.871576","315529.429733","316295.920181","317062.610974","317829.80881","318596.550307","304780.237834","305529.78621","317839.57621","Mapping"
"Blocked","Male","tile","15","M_dime.wav","None","721.09980369","325","314013.337423","306296.205239","307063.131003","307830.01812","308596.495584","309363.033026","310130.26178","310879.837053","314762.871576","315529.429733","316295.920181","317062.610974","317829.80881","318596.550307","319363.050958","305529.78621","318607.883669","Mapping"
"Blocked","Male","tile","15","M_knife.wav","None","719.968229532","325","314013.337423","306296.205239","307063.131003","307830.01812","308596.495584","309363.033026","310130.26178","310879.837053","314762.871576","315529.429733","316295.920181","317062.610974","317829.80881","318596.550307","319363.050958","320112.810808","319373.313035","Mapping"
"Blocked","Male","tile","15","M_tile.wav","None","734.928502236","325","314013.337423","320879.742756","307063.131003","307830.01812","308596.495584","309363.033026","310130.26178","310879.837053","314762.871576","315529.429733","316295.920181","317062.610974","317829.80881","318596.550307","319363.050958","320112.810808","320122.661066","Mapping"
"Blocked","Male","tile","15","M_cling.wav","space","450.6622958","325","314013.337423","320879.742756","321646.232585","307830.01812","308596.495584","309363.033026","310130.26178","310879.837053","314762.871576","315529.429733","316295.920181","317062.610974","317829.80881","318596.550307","319363.050958","320112.810808","320889.157079","Mapping"
"Blocked","Male","tile","15","M_tile.wav","None","730.581835844","325","314013.337423","320879.742756","321646.232585","322412.952749","308596.495584","309363.033026","310130.26178","310879.837053","314762.871576","315529.429733","316295.920181","317062.610974","317829.80881","318596.550307","319363.050958","320112.810808","321655.807989","Mapping"
"Blocked","Male","tile","15","M_gnash.wav","space","605.119970161","325","314013.337423","320879.742756","321646.232585","322412.952749","323179.787308","309363.033026","310130.26178","310879.837053","314762.871576","315529.429733","316295.920181","317062.610974","317829.80881","318596.550307","319363.050958","320112.810808","322422.655222","Mapping"
"Blocked","Male","tile","15","M_lash.wav","None","724.152888637","325","314013.337423","320879.742756","321646.232585","322412.952749","323179.787308","323945.923752","310130.26178","310879.837053","314762.871576","315529.429733","316295.920181","317062.610974","317829.80881","318596.550307","319363.050958","320112.810808","323190.362886","Mapping"
"Blocked","Male","tile","15","M_tile.wav","None","723.203417379","325","314013.337423","320879.742756","321646.232585","322412.952749","323179.787308","323945.923752","324713.132101","310879.837053","314762.871576","315529.429733","316295.920181","317062.610974","317829.80881","318596.550307","319363.050958","320112.810808","323955.800909","Mapping"
"Blocked","Male","tile","15","M_jolt.wav","space","480.507402681","325","314013.337423","320879.742756","321646.232585","322412.952749","323179.787308","323945.923752","324713.132101","325462.670273","314762.871576","315529.429733","316295.920181","317062.610974","317829.80881","318596.550307","319363.050958","320112.810808","324723.236809","Mapping"
"Blocked","Male","done","21","M_gnash.wav","None","734.823074192","325","328596.60163","320879.742756","321646.232585","322412.952749","323179.787308","323945.923752","324713.132101","325462.670273","314762.871576","315529.429733","316295.920181","317062.610974","317829.80881","318596.550307","319363.050958","320112.810808","325472.166528","Mapping"
"Blocked","Male","done","21","M_jaw.wav","None","719.764484558","325","328596.60163","320879.742756","321646.232585","322412.952749","323179.787308","323945.923752","324713.132101","325462.670273","329345.566905","315529.429733","316295.920181","317062.610974","317829.80881","318596.550307","319363.050958","320112.810808","328606.516505","Mapping"
"Blocked","Male","done","21","M_done.wav","None","735.259626992","325","328596.60163","320879.742756","321646.232585","322412.952749","323179.787308","323945.923752","324713.132101","325462.670273","329345.566905","330112.725785","316295.920181","317062.610974","317829.80881","318596.550307","319363.050958","320112.810808","329355.48147","Mapping"
"Blocked","Male","done","21","M_jaw.wav","space","376.814112533","325","328596.60163","320879.742756","321646.232585","322412.952749","323179.787308","323945.923752","324713.132101","325462.670273","329345.566905","330112.725785","330879.126573","317062.610974","317829.80881","318596.550307","319363.050958","320112.810808","330122.808851","Mapping"
"Blocked","Male","done","21","M_greet.wav","None","730.268643703","325","328596.60163","320879.742756","321646.232585","322412.952749","323179.787308","323945.923752","324713.132101","325462.670273","329345.566905","330112.725785","330879.126573","331645.787994","317829.80881","318596.550307","319363.050958","320112.810808","330888.471024","Mapping"
"Blocked","Male","done","21","M_greet.wav","None","728.122981731","325","328596.60163","320879.742756","321646.232585","322412.952749","323179.787308","323945.923752","324713.132101","325462.670273","329345.566905","330112.725785","330879.126573","331645.787994","332412.669856","318596.550307","319363.050958","320112.810808","331654.784316","Mapping"
"Blocked","Male","done","21","M_done.wav","None","724.904797506","325","328596.60163","320879.742756","321646.232585","322412.952749","323179.787308","323945.923752","324713.132101","325462.670273","329345.566905","330112.725785","330879.126573","331645.787994","332412.669856","333179.17298","319363.050958","320112.810808","332422.3309","Mapping"
"Blocked","Male","done","21","M_knife.wav","space","439.053150825","325","328596.60163","320879.742756","321646.232585","322412.952749","323179.787308","323945.923752","324713.132101","325462.670273","329345.566905","330112.725785","330879.126573","331645.787994","332412.669856","333179.17298","333946.334643","320112.810808","333188.554841","Mapping"
"Blocked","Male","done","21","M_jaw.wav","None","717.638918664","325","328596.60163","320879.742756","321646.232585","322412.952749","323179.787308","323945.923752","324713.132101","325462.670273","329345.566905","330112.725785","330879.126573","331645.787994","332412.669856","333179.17298","333946.334643","334696.015963","333957.226197","Mapping"
"Blocked","Male","done","21","M_bluff.wav","None","733.591946773","325","328596.60163","335462.629153","321646.232585","322412.952749","323179.787308","323945.923752","324713.132101","325462.670273","329345.566905","330112.725785","330879.126573","331645.787994","332412.669856","333179.17298","333946.334643","334696.015963","334705.701741","Mapping"
"Blocked","Male","done","21","M_done.wav","None","731.703516562","325","328596.60163","335462.629153","336229.487208","322412.952749","323179.787308","323945.923752","324713.132101","325462.670273","329345.566905","330112.725785","330879.126573","331645.787994","332412.669856","333179.17298","333946.334643","334696.015963","335472.387278","Mapping"
"Blocked","Male","done","21","M_depth.wav","space","476.29337199","325","328596.60163","335462.629153","336229.487208","336996.028361","323179.787308","323945.923752","324713.132101","325462.670273","329345.566905","330112.725785","330879.126573","331645.787994","332412.669856","333179.17298","333946.334643","334696.015963","336239.251207","Mapping"
"Blocked","Male","done","21","M_cad.wav","None","725.961551536","325","328596.60163","335462.629153","336229.487208","336996.028361","337762.935575","323945.923752","324713.132101","325462.670273","329345.566905","330112.725785","330879.126573","331645.787994","332412.669856","333179.17298","333946.334643","334696.015963","337006.082674","Mapping"
"Blocked","Male","done","21","M_cling.wav","None","723.208055366","325","328596.60163","335462.629153","336229.487208","336996.028361","337762.935575","338529.678618","324713.132101","325462.670273","329345.566905","330112.725785","330879.126573","331645.787994","332412.669856","333179.17298","333946.334643","334696.015963","337773.293495","Mapping"
"Blocked","Male","done","21","M_done.wav","None","720.422714017","325","328596.60163","335462.629153","336229.487208","336996.028361","337762.935575","338529.678618","339296.326435","325462.670273","329345.566905","330112.725785","330879.126573","331645.787994","332412.669856","333179.17298","333946.334643","334696.015963","338540.580683","Mapping"
"Blocked","Male","done","21","M_knife.wav","space","577.148143202","325","328596.60163","335462.629153","336229.487208","336996.028361","337762.935575","338529.678618","339296.326435","340045.883776","329345.566905","330112.725785","330879.126573","331645.787994","332412.669856","333179.17298","333946.334643","334696.015963","339306.33499","Mapping"
"Blocked","Male","done","20","M_bluff.wav","None","732.931243256","325","343179.587581","335462.629153","336229.487208","336996.028361","337762.935575","338529.678618","339296.326435","340045.883776","329345.566905","330112.725785","330879.126573","331645.787994","332412.669856","333179.17298","333946.334643","334696.015963","340055.913046","Mapping"
"Blocked","Male","done","20","M_done.wav","None","720.58441164","325","343179.587581","335462.629153","336229.487208","336996.028361","337762.935575","338529.678618","339296.326435","340045.883776","343929.494907","330112.725785","330879.126573","331645.787994","332412.669856","333179.17298","333946.334643","334696.015963","343189.412796","Mapping"
"Blocked","Male","done","20","M_reek.wav","space","455.99707868","325","343179.587581","335462.629153","336229.487208","336996.028361","337762.935575","338529.678618","339296.326435","340045.883776","343929.494907","344695.40751","330879.126573","331645.787994","332412.669856","333179.17298","333946.334643","334696.015963","343939.397724","Mapping"
"Blocked","Male","done","20","M_jolt.wav","None","733.803729992","325","343179.587581","335462.629153","336229.487208","336996.028361","337762.935575","338529.678618","339296.326435","340045.883776","343929.494907","344695.40751","345462.41737","331645.787994","332412.669856","333179.17298","333946.334643","334696.015963","344704.462575","Mapping"
"Blocked","Male","done","20","M_done.wav","None","730.64367054","325","343179.587581","335462.629153","336229.487208","336996.028361","337762.935575","338529.678618","339296.326435","340045.883776","343929.494907","344695.40751","345462.41737","346228.849693","332412.669856","333179.17298","333946.334643","334696.015963","345472.089544","Mapping"
"Blocked","Male","done","20","M_reek.wav","space","445.361830294","325","343179.587581","335462.629153","336229.487208","336996.028361","337762.935575","338529.678618","339296.326435","340045.883776","343929.494907","344695.40751","345462.41737","346228.849693","346995.124339","333179.17298","333946.334643","334696.015963","346237.992872","Mapping"
"Blocked","Male","done","20","M_romp.wav","None","728.837481234","325","343179.587581","335462.629153","336229.487208","336996.028361","337762.935575","338529.678618","339296.326435","340045.883776","343929.494907","344695.40751","345462.41737","346228.849693","346995.124339","347762.42513","333946.334643","334696.015963","347004.873188","Mapping"
"Blocked","Male","done","20","M_lash.wav","None","725.860761013","325","343179.587581","335462.629153","336229.487208","336996.028361","337762.935575","338529.678618","339296.326435","340045.883776","343929.494907","344695.40751","345462.41737","346228.849693","346995.124339","347762.42513","348529.124579","334696.015963","347772.328566","Mapping"
"Blocked","Male","done","20","M_cling.wav","None","723.612453789","325","343179.587581","335462.629153","336229.487208","336996.028361","337762.935575","338529.678618","339296.326435","340045.883776","343929.494907","344695.40751","345462.41737","346228.849693","346995.124339","347762.42513","348529.124579","349296.131346","348538.958142","Mapping"
"Blocked","Male","done","20","M_greet.wav","None","720.682729036","325","343179.587581","350062.536772","336229.487208","336996.028361","337762.935575","338529.678618","339296.326435","340045.883776","343929.494907","344695.40751","345462.41737","346228.849693","346995.124339","347762.42513","348529.124579","349296.131346","349306.250276","Mapping"
"Blocked","Male","done","20","M_done.wav","None","718.681759667","325","343179.587581","350062.536772","350812.291366","336996.028361","337762.935575","338529.678618","339296.326435","340045.883776","343929.494907","344695.40751","345462.41737","346228.849693","346995.124339","347762.42513","348529.124579","349296.131346","350072.82111","Mapping"
"Blocked","Male","done","20","M_gnash.wav","space","484.955477528","325","343179.587581","350062.536772","350812.291366","351579.028843","337762.935575","338529.678618","339296.326435","340045.883776","343929.494907","344695.40751","345462.41737","346228.849693","346995.124339","347762.42513","348529.124579","349296.131346","350822.307032","Mapping"
"Blocked","Male","done","20","M_romp.wav","None","730.250711553","325","343179.587581","350062.536772","350812.291366","351579.028843","352345.708815","338529.678618","339296.326435","340045.883776","343929.494907","344695.40751","345462.41737","346228.849693","346995.124339","347762.42513","348529.124579","349296.131346","351589.277008","Mapping"
"Blocked","Male","done","20","M_done.wav","None","728.591997642","325","343179.587581","350062.536772","350812.291366","351579.028843","352345.708815","353112.27903","339296.326435","340045.883776","343929.494907","344695.40751","345462.41737","346228.849693","346995.124339","347762.42513","348529.124579","349296.131346","352355.416544","Mapping"
"Blocked","Male","done","20","M_jolt.wav","space","553.062004969","325","343179.587581","350062.536772","350812.291366","351579.028843","352345.708815","353112.27903","353879.534682","340045.883776","343929.494907","344695.40751","345462.41737","346228.849693","346995.124339","347762.42513","348529.124579","349296.131346","353122.167007","Mapping"
"Blocked","Male","done","20","M_knife.wav","None","722.157484852","325","343179.587581","350062.536772","350812.291366","351579.028843","352345.708815","353112.27903","353879.534682","354646.077999","343929.494907","344695.40751","345462.41737","346228.849693","346995.124339","347762.42513","348529.124579","349296.131346","353889.720084","Mapping"
"Blocked","Male","cave","11","M_jaw.wav","None","720.204128418","325","357762.373189","350062.536772","350812.291366","351579.028843","352345.708815","353112.27903","353879.534682","354646.077999","343929.494907","344695.40751","345462.41737","346228.849693","346995.124339","347762.42513","348529.124579","349296.131346","354656.173431","Mapping"
"Blocked","Male","cave","11","M_dime.wav","None","719.728311058","325","357762.373189","350062.536772","350812.291366","351579.028843","352345.708815","353112.27903","353879.534682","354646.077999","358511.886318","344695.40751","345462.41737","346228.849693","346995.124339","347762.42513","348529.124579","349296.131346","357772.748423","Mapping"
"Blocked","Male","cave","11","M_reek.wav","None","735.361344647","325","357762.373189","350062.536772","350812.291366","351579.028843","352345.708815","353112.27903","353879.534682","354646.077999","358511.886318","359279.050455","345462.41737","346228.849693","346995.124339","347762.42513","348529.124579","349296.131346","358521.529739","Mapping"
"Blocked","Male","cave","11","M_jolt.wav","None","732.4177064","325","357762.373189","350062.536772","350812.291366","351579.028843","352345.708815","353112.27903","353879.534682","354646.077999","358511.886318","359279.050455","360045.620051","346228.849693","346995.124339","347762.42513","348529.124579","349296.131346","359289.103222","Mapping"
"Blocked","Male","cave","11","M_knife.wav","None","730.190422852","325","357762.373189","350062.536772","350812.291366","351579.028843","352345.708815","353112.27903","353879.534682","354646.077999","358511.886318","359279.050455","360045.620051","360812.189648","346995.124339","347762.42513","348529.124579","349296.131346","360055.803289","Mapping"
"Blocked","Male","cave","11","M_depth.wav","None","728.509138804","325","357762.373189","350062.536772","350812.291366","351579.028843","352345.708815","353112.27903","353879.534682","354646.077999","358511.886318","359279.050455","360045.620051","360812.189648","361578.851996","347762.42513","348529.124579","349296.131346","360822.048563","Mapping"
"Blocked","Male","cave","11","M_cave.wav","None","726.647298317","325","357762.373189","350062.536772","350812.291366","351579.028843","352345.708815","353112.27903","353879.534682","354646.077999","358511.886318","359279.050455","360045.620051","360812.189648","361578.851996","362346.056017","348529.124579","349296.131346","361588.347015","Mapping"
"Blocked","Male","cave","11","M_jaw.wav","space","462.550623342","325","357762.373189","350062.536772","350812.291366","351579.028843","352345.708815","353112.27903","353879.534682","354646.077999","358511.886318","359279.050455","360045.620051","360812.189648","361578.851996","362346.056017","363112.504417","349296.131346","362356.507307","Mapping"
"Blocked","Male","cave","11","M_cave.wav","None","720.85153684","325","357762.373189","350062.536772","350812.291366","351579.028843","352345.708815","353112.27903","353879.534682","354646.077999","358511.886318","359279.050455","360045.620051","360812.189648","361578.851996","362346.056017","363112.504417","363862.284363","363122.059415","Mapping"
"Blocked","Male","cave","11","M_gnash.wav","space","443.080749828","325","357762.373189","364628.458527","350812.291366","351579.028843","352345.708815","353112.27903","353879.534682","354646.077999","358511.886318","359279.050455","360045.620051","360812.189648","361578.851996","362346.056017","363112.504417","363862.284363","363871.953446","Mapping"
"Blocked","Male","cave","11","M_cave.wav","None","733.177036047","325","357762.373189","364628.458527","365395.082848","351579.028843","352345.708815","353112.27903","353879.534682","354646.077999","358511.886318","359279.050455","360045.620051","360812.189648","361578.851996","362346.056017","363112.504417","363862.284363","364638.340012","Mapping"
"Blocked","Male","cave","11","M_lash.wav","space","494.749465957","325","357762.373189","364628.458527","365395.082848","366162.076011","352345.708815","353112.27903","353879.534682","354646.077999","358511.886318","359279.050455","360045.620051","360812.189648","361578.851996","362346.056017","363112.504417","363862.284363","365404.278277","Mapping"
"Blocked","Male","cave","11","M_reek.wav","None","727.834832389","325","357762.373189","364628.458527","365395.082848","366162.076011","366928.519775","353112.27903","353879.534682","354646.077999","358511.886318","359279.050455","360045.620051","360812.189648","361578.851996","362346.056017","363112.504417","363862.284363","366171.701501","Mapping"
"Blocked","Male","cave","11","M_park.wav","None","726.190958172","325","357762.373189","364628.458527","365395.082848","366162.076011","366928.519775","367695.434717","353879.534682","354646.077999","358511.886318","359279.050455","360045.620051","360812.189648","361578.851996","362346.056017","363112.504417","363862.284363","366937.824651","Mapping"
"Blocked","Male","cave","11","M_cave.wav","None","723.995829001","325","357762.373189","364628.458527","365395.082848","366162.076011","366928.519775","367695.434717","368462.385525","354646.077999","358511.886318","359279.050455","360045.620051","360812.189648","361578.851996","362346.056017","363112.504417","363862.284363","367704.661991","Mapping"
"Blocked","Male","cave","11","M_reek.wav","space","498.42615379","325","357762.373189","364628.458527","365395.082848","366162.076011","366928.519775","367695.434717","368462.385525","369211.770657","358511.886318","359279.050455","360045.620051","360812.189648","361578.851996","362346.056017","363112.504417","363862.284363","368472.550212","Mapping"
"Blocked","Male","tile","13","M_park.wav","None","735.501709394","325","372345.742515","364628.458527","365395.082848","366162.076011","366928.519775","367695.434717","368462.385525","369211.770657","358511.886318","359279.050455","360045.620051","360812.189648","361578.851996","362346.056017","363112.504417","363862.284363","369221.099958","Mapping"
"Blocked","Male","tile","13","M_dime.wav","None","719.709760509","325","372345.742515","364628.458527","365395.082848","366162.076011","366928.519775","367695.434717","368462.385525","369211.770657","373095.23864","359279.050455","360045.620051","360812.189648","361578.851996","362346.056017","363112.504417","363862.284363","372355.81476","Mapping"
"Blocked","Male","tile","13","M_tile.wav","None","735.429671593","325","372345.742515","364628.458527","365395.082848","366162.076011","366928.519775","367695.434717","368462.385525","369211.770657","373095.23864","373861.980755","360045.620051","360812.189648","361578.851996","362346.056017","363112.504417","363862.284363","373104.885153","Mapping"
"Blocked","Male","tile","13","M_jaw.wav","space","338.94812502","325","372345.742515","364628.458527","365395.082848","366162.076011","366928.519775","367695.434717","368462.385525","369211.770657","373095.23864","373861.980755","374628.723489","360812.189648","361578.851996","362346.056017","363112.504417","363862.284363","373871.86224","Mapping"
"Blocked","Male","tile","13","M_romp.wav","None","730.508871377","325","372345.742515","364628.458527","365395.082848","366162.076011","366928.519775","367695.434717","368462.385525","369211.770657","373095.23864","373861.980755","374628.723489","375395.261241","361578.851996","362346.056017","363112.504417","363862.284363","374638.428435","Mapping"
"Blocked","Male","tile","13","M_knife.wav","None","728.748748079","325","372345.742515","364628.458527","365395.082848","366162.076011","366928.519775","367695.434717","368462.385525","369211.770657","373095.23864","373861.980755","374628.723489","375395.261241","376161.916787","362346.056017","363112.504417","363862.284363","375404.966187","Mapping"
"Blocked","Male","tile","13","M_lash.wav","None","726.878250483","325","372345.742515","364628.458527","365395.082848","366162.076011","366928.519775","367695.434717","368462.385525","369211.770657","373095.23864","373861.980755","374628.723489","375395.261241","376161.916787","376928.664467","363112.504417","363862.284363","376171.655125","Mapping"
"Blocked","Male","tile","13","M_tile.wav","None","725.072060246","325","372345.742515","364628.458527","365395.082848","366162.076011","366928.519775","367695.434717","368462.385525","369211.770657","373095.23864","373861.980755","374628.723489","375395.261241","376161.916787","376928.664467","377695.664742","363862.284363","376938.225958","Mapping"
"Blocked","Male","tile","13","M_gnash.wav","space","400.421341415","325","372345.742515","364628.458527","365395.082848","366162.076011","366928.519775","367695.434717","368462.385525","369211.770657","373095.23864","373861.980755","374628.723489","375395.261241","376161.916787","376928.664467","377695.664742","378462.421389","377706.374502","Mapping"
"Blocked","Male","tile","13","M_priest.wav","None","719.065134414","325","372345.742515","379211.417271","365395.082848","366162.076011","366928.519775","367695.434717","368462.385525","369211.770657","373095.23864","373861.980755","374628.723489","375395.261241","376161.916787","376928.664467","377695.664742","378462.421389","378472.639254","Mapping"
"Blocked","Male","tile","13","M_jolt.wav","None","735.075977631","325","372345.742515","379211.417271","379978.280273","366162.076011","366928.519775","367695.434717","368462.385525","369211.770657","373095.23864","373861.980755","374628.723489","375395.261241","376161.916787","376928.664467","377695.664742","378462.421389","379221.265056","Mapping"
"Blocked","Male","tile","13","M_tile.wav","None","733.44168812","325","372345.742515","379211.417271","379978.280273","380745.186251","366928.519775","367695.434717","368462.385525","369211.770657","373095.23864","373861.980755","374628.723489","375395.261241","376161.916787","376928.664467","377695.664742","378462.421389","379987.820122","Mapping"
"Blocked","Male","tile","13","M_cling.wav","space","455.869080964","325","372345.742515","379211.417271","379978.280273","380745.186251","381511.794494","367695.434717","368462.385525","369211.770657","373095.23864","373861.980755","374628.723489","375395.261241","376161.916787","376928.664467","377695.664742","378462.421389","380754.904801","Mapping"
"Blocked","Male","tile","13","M_jaw.wav","None","727.970249951","325","372345.742515","379211.417271","379978.280273","380745.186251","381511.794494","382278.627815","368462.385525","369211.770657","373095.23864","373861.980755","374628.723489","375395.261241","376161.916787","376928.664467","377695.664742","378462.421389","381521.839222","Mapping"
"Blocked","Male","tile","13","M_tile.wav","None","726.316173561","325","372345.742515","379211.417271","379978.280273","380745.186251","381511.794494","382278.627815","383045.204832","369211.770657","373095.23864","373861.980755","374628.723489","375395.261241","376161.916787","376928.664467","377695.664742","378462.421389","382288.280511","Mapping"
"Blocked","Male","tile","13","M_greet.wav","space","579.637296498","325","372345.742515","379211.417271","379978.280273","380745.186251","381511.794494","382278.627815","383045.204832","383812.137707","373095.23864","373861.980755","374628.723489","375395.261241","376161.916787","376928.664467","377695.664742","378462.421389","383055.047052","Mapping"
"Blocked","Male","cave","7","M_dime.wav","None","720.635734033","325","386928.784427","379211.417271","379978.280273","380745.186251","381511.794494","382278.627815","383045.204832","383812.137707","373095.23864","373861.980755","374628.723489","375395.261241","376161.916787","376928.664467","377695.664742","378462.421389","383822.637847","Mapping"
"Blocked","Male","cave","7","M_cave.wav","None","719.873622525","325","386928.784427","379211.417271","379978.280273","380745.186251","381511.794494","382278.627815","383045.204832","383812.137707","387678.601474","373861.980755","374628.723489","375395.261241","376161.916787","376928.664467","377695.664742","378462.421389","386939.329397","Mapping"
"Blocked","Male","cave","7","M_priest.wav","space","402.407779358","325","386928.784427","379211.417271","379978.280273","380745.186251","381511.794494","382278.627815","383045.204832","383812.137707","387678.601474","388445.093159","374628.723489","375395.261241","376161.916787","376928.664467","377695.664742","378462.421389","387688.216141","Mapping"
"Blocked","Male","cave","7","M_depth.wav","None","731.885310262","325","386928.784427","379211.417271","379978.280273","380745.186251","381511.794494","382278.627815","383045.204832","383812.137707","387678.601474","388445.093159","389211.691508","375395.261241","376161.916787","376928.664467","377695.664742","378462.421389","388455.488489","Mapping"
"Blocked","Male","cave","7","M_park.wav","None","730.39602302","325","386928.784427","379211.417271","379978.280273","380745.186251","381511.794494","382278.627815","383045.204832","383812.137707","387678.601474","388445.093159","389211.691508","389978.334379","376161.916787","376928.664467","377695.664742","378462.421389","389221.605765","Mapping"
"Blocked","Male","cave","7","M_cave.wav","None","728.647339623","325","386928.784427","379211.417271","379978.280273","380745.186251","381511.794494","382278.627815","383045.204832","383812.137707","387678.601474","388445.093159","389211.691508","389978.334379","390745.058562","376928.664467","377695.664742","378462.421389","389988.070552","Mapping"
"Blocked","Male","cave","7","M_cad.wav","space","399.825255387","325","386928.784427","379211.417271","379978.280273","380745.186251","381511.794494","382278.627815","383045.204832","383812.137707","387678.601474","388445.093159","389211.691508","389978.334379","390745.058562","391512.292881","377695.664742","378462.421389","390754.744958","Mapping"
"Blocked","Male","cave","7","M_cave.wav","None","722.815714777","325","386928.784427","379211.417271","379978.280273","380745.186251","381511.794494","382278.627815","383045.204832","383812.137707","387678.601474","388445.093159","389211.691508","389978.334379","390745.058562","391512.292881","392278.095109","378462.421389","391522.075739","Mapping"
"Blocked","Male","cave","7","M_priest.wav","space","618.860554416","325","386928.784427","379211.417271","379978.280273","380745.186251","381511.794494","382278.627815","383045.204832","383812.137707","387678.601474","388445.093159","389211.691508","389978.334379","390745.058562","391512.292881","392278.095109","393028.110027","392287.648561","Mapping"
"Blocked","Male","cave","7","M_gnash.wav","None","736.282062251","325","386928.784427","393794.972411","379978.280273","380745.186251","381511.794494","382278.627815","383045.204832","383812.137707","387678.601474","388445.093159","389211.691508","389978.334379","390745.058562","391512.292881","392278.095109","393028.110027","393037.633489","Mapping"
"Blocked","Male","cave","7","M_jolt.wav","None","733.998199925","325","386928.784427","393794.972411","394561.42885","380745.186251","381511.794494","382278.627815","383045.204832","383812.137707","387678.601474","388445.093159","389211.691508","389978.334379","390745.058562","391512.292881","392278.095109","393028.110027","393804.725898","Mapping"
"Blocked","Male","cave","7","M_cave.wav","None","732.70987533","325","386928.784427","393794.972411","394561.42885","395328.447985","381511.794494","382278.627815","383045.204832","383812.137707","387678.601474","388445.093159","389211.691508","389978.334379","390745.058562","391512.292881","392278.095109","393028.110027","394570.639738","Mapping"
"Blocked","Male","cave","7","M_cad.wav","space","416.035824455","325","386928.784427","393794.972411","394561.42885","395328.447985","396094.911844","382278.627815","383045.204832","383812.137707","387678.601474","388445.093159","389211.691508","389978.334379","390745.058562","391512.292881","392278.095109","393028.110027","395338.401507","Mapping"
"Blocked","Male","cave","7","M_cling.wav","None","727.111367043","325","386928.784427","393794.972411","394561.42885","395328.447985","396094.911844","396861.525343","383045.204832","383812.137707","387678.601474","388445.093159","389211.691508","389978.334379","390745.058562","391512.292881","392278.095109","393028.110027","396104.625756","Mapping"
"Blocked","Male","cave","7","M_priest.wav","None","724.558523856","325","386928.784427","393794.972411","394561.42885","395328.447985","396094.911844","396861.525343","397628.642795","383812.137707","387678.601474","388445.093159","389211.691508","389978.334379","390745.058562","391512.292881","392278.095109","393028.110027","396872.080516","Mapping"
"Blocked","Male","cave","7","M_dime.wav","None","722.367722541","325","386928.784427","393794.972411","394561.42885","395328.447985","396094.911844","396861.525343","397628.642795","398395.376562","387678.601474","388445.093159","389211.691508","389978.334379","390745.058562","391512.292881","392278.095109","393028.110027","397639.007207","Mapping"
"Blocked","Male","done","22","M_gnash.wav","None","720.809798688","325","401511.728021","393794.972411","394561.42885","395328.447985","396094.911844","396861.525343","397628.642795","398395.376562","387678.601474","388445.093159","389211.691508","389978.334379","390745.058562","391512.292881","392278.095109","393028.110027","398405.344924","Mapping"
"Blocked","Male","done","22","M_bluff.wav","None","719.999455847","325","401511.728021","393794.972411","394561.42885","395328.447985","396094.911844","396861.525343","397628.642795","398395.376562","402260.890858","388445.093159","389211.691508","389978.334379","390745.058562","391512.292881","392278.095109","393028.110027","401521.679688","Mapping"
"Blocked","Male","done","22","M_done.wav","None","736.295047682","325","401511.728021","393794.972411","394561.42885","395328.447985","396094.911844","396861.525343","397628.642795","398395.376562","402260.890858","403028.101061","389211.691508","389978.334379","390745.058562","391512.292881","392278.095109","393028.110027","402270.119059","Mapping"
"Blocked","Male","done","22","M_lash.wav","space","396.447847132","325","401511.728021","393794.972411","394561.42885","395328.447985","396094.911844","396861.525343","397628.642795","398395.376562","402260.890858","403028.101061","403794.818134","389978.334379","390745.058562","391512.292881","392278.095109","393028.110027","403037.868152","Mapping"
"Blocked","Male","done","22","M_done.wav","None","730.419519823","325","401511.728021","393794.972411","394561.42885","395328.447985","396094.911844","396861.525343","397628.642795","398395.376562","402260.890858","403028.101061","403794.818134","404561.413701","390745.058562","391512.292881","392278.095109","393028.110027","403804.8035","Mapping"
"Blocked","Male","done","22","M_park.wav","space","462.888240349","325","401511.728021","393794.972411","394561.42885","395328.447985","396094.911844","396861.525343","397628.642795","398395.376562","402260.890858","403028.101061","403794.818134","404561.413701","405328.057189","391512.292881","392278.095109","393028.110027","404571.426893","Mapping"
"Blocked","Male","done","22","M_depth.wav","None","725.864471402","325","401511.728021","393794.972411","394561.42885","395328.447985","396094.911844","396861.525343","397628.642795","398395.376562","402260.890858","403028.101061","403794.818134","404561.413701","405328.057189","406094.415003","392278.095109","393028.110027","405337.855197","Mapping"
"Blocked","Male","done","22","M_greet.wav","None","724.934169091","325","401511.728021","393794.972411","394561.42885","395328.447985","396094.911844","396861.525343","397628.642795","398395.376562","402260.890858","403028.101061","403794.818134","404561.413701","405328.057189","406094.415003","406861.916138","393028.110027","406103.685252","Mapping"
"Blocked","Male","done","22","M_romp.wav","None","721.717840526","325","401511.728021","393794.972411","394561.42885","395328.447985","396094.911844","396861.525343","397628.642795","398395.376562","402260.890858","403028.101061","403794.818134","404561.413701","405328.057189","406094.415003","406861.916138","407628.51727","406871.691267","Mapping"
"Blocked","Male","done","22","M_reek.wav","None","720.048305579","325","401511.728021","408377.684435","394561.42885","395328.447985","396094.911844","396861.525343","397628.642795","398395.376562","402260.890858","403028.101061","403794.818134","404561.413701","405328.057189","406094.415003","406861.916138","407628.51727","407638.585186","Mapping"
"Blocked","Male","done","22","M_greet.wav","None","736.651215237","325","401511.728021","408377.684435","409144.652865","395328.447985","396094.911844","396861.525343","397628.642795","398395.376562","402260.890858","403028.101061","403794.818134","404561.413701","405328.057189","406094.415003","406861.916138","407628.51727","408386.800407","Mapping"
"Blocked","Male","done","22","M_done.wav","None","734.052614309","325","401511.728021","408377.684435","409144.652865","409911.258325","396094.911844","396861.525343","397628.642795","398395.376562","402260.890858","403028.101061","403794.818134","404561.413701","405328.057189","406094.415003","406861.916138","407628.51727","409154.326585","Mapping"
"Blocked","Male","done","22","M_bluff.wav","space","385.096553247","325","401511.728021","408377.684435","409144.652865","409911.258325","410677.683229","396861.525343","397628.642795","398395.376562","402260.890858","403028.101061","403794.818134","404561.413701","405328.057189","406094.415003","406861.916138","407628.51727","409921.108584","Mapping"
"Blocked","Male","done","22","M_reek.wav","None","733.668002766","325","401511.728021","408377.684435","409144.652865","409911.258325","410677.683229","411444.183571","397628.642795","398395.376562","402260.890858","403028.101061","403794.818134","404561.413701","405328.057189","406094.415003","406861.916138","407628.51727","410687.120741","Mapping"
"Blocked","Male","done","22","M_done.wav","None","732.689470053","325","401511.728021","408377.684435","409144.652865","409911.258325","410677.683229","411444.183571","412210.887349","398395.376562","402260.890858","403028.101061","403794.818134","404561.413701","405328.057189","406094.415003","406861.916138","407628.51727","411453.179583","Mapping"
"Blocked","Male","done","22","M_cad.wav","space","502.036678605","325","401511.728021","408377.684435","409144.652865","409911.258325","410677.683229","411444.183571","412210.887349","412978.071891","402260.890858","403028.101061","403794.818134","404561.413701","405328.057189","406094.415003","406861.916138","407628.51727","412220.129463","Mapping"
"Blocked","Male","tile","16","M_priest.wav","None","726.8235269","325","416111.626056","408377.684435","409144.652865","409911.258325","410677.683229","411444.183571","412210.887349","412978.071891","402260.890858","403028.101061","403794.818134","404561.413701","405328.057189","406094.415003","406861.916138","407628.51727","412987.382951","Mapping"
"Blocked","Male","tile","16","M_knife.wav","None","719.581454061","325","416111.626056","408377.684435","409144.652865","409911.258325","410677.683229","411444.183571","412210.887349","412978.071891","416861.045816","403028.101061","403794.818134","404561.413701","405328.057189","406094.415003","406861.916138","407628.51727","416121.961407","Mapping"
"Blocked","Male","tile","16","M_tile.wav","None","736.125929747","325","416111.626056","408377.684435","409144.652865","409911.258325","410677.683229","411444.183571","412210.887349","412978.071891","416861.045816","417627.787621","403794.818134","404561.413701","405328.057189","406094.415003","406861.916138","407628.51727","416870.524447","Mapping"
"Blocked","Male","tile","16","M_priest.wav","space","380.125048105","325","416111.626056","408377.684435","409144.652865","409911.258325","410677.683229","411444.183571","412210.887349","412978.071891","416861.045816","417627.787621","418394.552615","404561.413701","405328.057189","406094.415003","406861.916138","407628.51727","417637.909024","Mapping"
"Blocked","Male","tile","16","M_priest.wav","None","731.028591283","325","416111.626056","408377.684435","409144.652865","409911.258325","410677.683229","411444.183571","412210.887349","412978.071891","416861.045816","417627.787621","418394.552615","419161.005654","405328.057189","406094.415003","406861.916138","407628.51727","418404.209022","Mapping"
"Blocked","Male","tile","16","M_romp.wav","None","729.588462505","325","416111.626056","408377.684435","409144.652865","409911.258325","410677.683229","411444.183571","412210.887349","412978.071891","416861.045816","417627.787621","418394.552615","419161.005654","419928.022624","406094.415003","406861.916138","407628.51727","419170.683084","Mapping"
"Blocked","Male","tile","16","M_bluff.wav","None","727.239673957","325","416111.626056","408377.684435","409144.652865","409911.258325","410677.683229","411444.183571","412210.887349","412978.071891","416861.045816","417627.787621","418394.552615","419161.005654","419928.022624","420694.15505","406861.916138","407628.51727","419937.938427","Mapping"
"Blocked","Male","tile","16","M_tile.wav","None","726.636167616","325","416111.626056","408377.684435","409144.652865","409911.258325","410677.683229","411444.183571","412210.887349","412978.071891","416861.045816","417627.787621","418394.552615","419161.005654","419928.022624","420694.15505","421461.062572","407628.51727","420703.488061","Mapping"
"Blocked","Male","tile","16","M_jaw.wav","space","458.965141792","325","416111.626056","408377.684435","409144.652865","409911.258325","410677.683229","411444.183571","412210.887349","412978.071891","416861.045816","417627.787621","418394.552615","419161.005654","419928.022624","420694.15505","421461.062572","422228.483941","421471.033408","Mapping"
"Blocked","Male","tile","16","M_bluff.wav","None","720.365207642","325","416111.626056","422994.735399","409144.652865","409911.258325","410677.683229","411444.183571","412210.887349","412978.071891","416861.045816","417627.787621","418394.552615","419161.005654","419928.022624","420694.15505","421461.062572","422228.483941","422238.551857","Mapping"
"Blocked","Male","tile","16","M_tile.wav","None","718.234695494","325","416111.626056","422994.735399","423743.92266","409911.258325","410677.683229","411444.183571","412210.887349","412978.071891","416861.045816","417627.787621","418394.552615","419161.005654","419928.022624","420694.15505","421461.062572","422228.483941","423005.623242","Mapping"
"Blocked","Male","tile","16","M_dime.wav","space","528.552918229","325","416111.626056","422994.735399","423743.92266","424511.020943","410677.683229","411444.183571","412210.887349","412978.071891","416861.045816","417627.787621","418394.552615","419161.005654","419928.022624","420694.15505","421461.062572","422228.483941","423753.400055","Mapping"
"Blocked","Male","tile","16","M_dime.wav","None","731.653430499","325","416111.626056","422994.735399","423743.92266","424511.020943","425277.800777","411444.183571","412210.887349","412978.071891","416861.045816","417627.787621","418394.552615","419161.005654","419928.022624","420694.15505","421461.062572","422228.483941","424520.840901","Mapping"
"Blocked","Male","tile","16","M_tile.wav","None","729.036588687","325","416111.626056","422994.735399","423743.92266","424511.020943","425277.800777","426044.42015","412210.887349","412978.071891","416861.045816","417627.787621","418394.552615","419161.005654","419928.022624","420694.15505","421461.062572","422228.483941","425288.519811","Mapping"
"Blocked","Male","tile","16","M_reek.wav","space","467.456893064","325","416111.626056","422994.735399","423743.92266","424511.020943","425277.800777","426044.42015","426810.741172","412978.071891","416861.045816","417627.787621","418394.552615","419161.005654","419928.022624","420694.15505","421461.062572","422228.483941","426054.431797","Mapping"
"Blocked","Male","tile","16","M_park.wav","None","726.334414445","325","416111.626056","422994.735399","423743.92266","424511.020943","425277.800777","426044.42015","426810.741172","427577.772054","416861.045816","417627.787621","418394.552615","419161.005654","419928.022624","420694.15505","421461.062572","422228.483941","426820.014822","Mapping"
"Blocked","Male","tile","17","M_jolt.wav","None","723.953471519","325","430694.724856","422994.735399","423743.92266","424511.020943","425277.800777","426044.42015","426810.741172","427577.772054","416861.045816","417627.787621","418394.552615","419161.005654","419928.022624","420694.15505","421461.062572","422228.483941","427587.833787","Mapping"
"Blocked","Male","tile","17","M_cad.wav","None","720.036556944","325","430694.724856","422994.735399","423743.92266","424511.020943","425277.800777","426044.42015","426810.741172","427577.772054","431460.792046","417627.787621","418394.552615","419161.005654","419928.022624","420694.15505","421461.062572","422228.483941","430704.823071","Mapping"
"Blocked","Male","tile","17","M_jolt.wav","None","719.789218158","325","430694.724856","422994.735399","423743.92266","424511.020943","425277.800777","426044.42015","426810.741172","427577.772054","431460.792046","432210.775737","418394.552615","419161.005654","419928.022624","420694.15505","421461.062572","422228.483941","431470.293557","Mapping"
"Blocked","Male","tile","17","M_priest.wav","None","734.598923475","325","430694.724856","422994.735399","423743.92266","424511.020943","425277.800777","426044.42015","426810.741172","427577.772054","431460.792046","432210.775737","432977.17869","419161.005654","419928.022624","420694.15505","421461.062572","422228.483941","432220.567252","Mapping"
"Blocked","Male","tile","17","M_romp.wav","None","733.930491377","325","430694.724856","422994.735399","423743.92266","424511.020943","425277.800777","426044.42015","426810.741172","427577.772054","431460.792046","432210.775737","432977.17869","433743.839492","419928.022624","420694.15505","421461.062572","422228.483941","432986.331762","Mapping"
"Blocked","Male","tile","17","M_tile.wav","None","731.942816637","325","430694.724856","422994.735399","423743.92266","424511.020943","425277.800777","426044.42015","426810.741172","427577.772054","431460.792046","432210.775737","432977.17869","433743.839492","434510.772985","420694.15505","421461.062572","422228.483941","433753.383359","Mapping"
"Blocked","Male","tile","17","M_knife.wav","space","424.292913172","325","430694.724856","422994.735399","423743.92266","424511.020943","425277.800777","426044.42015","426810.741172","427577.772054","431460.792046","432210.775737","432977.17869","433743.839492","434510.772985","435277.080094","421461.062572","422228.483941","434521.48862","Mapping"
"Blocked","Male","tile","17","M_park.wav","None","727.196080144","325","430694.724856","422994.735399","423743.92266","424511.020943","425277.800777","426044.42015","426810.741172","427577.772054","431460.792046","432210.775737","432977.17869","433743.839492","434510.772985","435277.080094","436043.856837","422228.483941","435286.750723","Mapping"
"Blocked","Male","tile","17","M_tile.wav","None","725.763372146","325","430694.724856","422994.735399","423743.92266","424511.020943","425277.800777","426044.42015","426810.741172","427577.772054","431460.792046","432210.775737","432977.17869","433743.839492","434510.772985","435277.080094","436043.856837","436811.154227","436053.292184","Mapping"
"Blocked","Male","tile","17","M_lash.wav","space","420.449580997","325","430694.724856","437577.653641","423743.92266","424511.020943","425277.800777","426044.42015","426810.741172","427577.772054","431460.792046","432210.775737","432977.17869","433743.839492","434510.772985","435277.080094","436043.856837","436811.154227","436821.280268","Mapping"
"Blocked","Male","tile","17","M_knife.wav","None","719.736658968","325","430694.724856","437577.653641","438327.655264","424511.020943","425277.800777","426044.42015","426810.741172","427577.772054","431460.792046","432210.775737","432977.17869","433743.839492","434510.772985","435277.080094","436043.856837","436811.154227","437588.007852","Mapping"
"Blocked","Male","tile","17","M_knife.wav","None","736.051419284","325","430694.724856","437577.653641","438327.655264","439093.967629","425277.800777","426044.42015","426810.741172","427577.772054","431460.792046","432210.775737","432977.17869","433743.839492","434510.772985","435277.080094","436043.856837","436811.154227","438336.808028","Mapping"
"Blocked","Male","tile","17","M_tile.wav","None","734.124960843","325","430694.724856","437577.653641","438327.655264","439093.967629","439860.412938","426044.42015","426810.741172","427577.772054","431460.792046","432210.775737","432977.17869","433743.839492","434510.772985","435277.080094","436043.856837","436811.154227","439103.833655","Mapping"
"Blocked","Male","tile","17","M_gnash.wav","space","379.099520389","325","430694.724856","437577.653641","438327.655264","439093.967629","439860.412938","440627.08518","426810.741172","427577.772054","431460.792046","432210.775737","432977.17869","433743.839492","434510.772985","435277.080094","436043.856837","436811.154227","439870.564331","Mapping"
"Blocked","Male","tile","17","M_tile.wav","None","729.981731158","325","430694.724856","437577.653641","438327.655264","439093.967629","439860.412938","440627.08518","441393.61242","427577.772054","431460.792046","432210.775737","432977.17869","433743.839492","434510.772985","435277.080094","436043.856837","436811.154227","440636.752408","Mapping"
"Blocked","Male","tile","17","M_romp.wav","space","470.947767142","325","430694.724856","437577.653641","438327.655264","439093.967629","439860.412938","440627.08518","441393.61242","442160.658452","431460.792046","432210.775737","432977.17869","433743.839492","434510.772985","435277.080094","436043.856837","436811.154227","441402.687272","Mapping"
"Blocked","Male","ball","1","M_cling.wav","None","725.112562533","325","445294.556418","437577.653641","438327.655264","439093.967629","439860.412938","440627.08518","441393.61242","442160.658452","431460.792046","432210.775737","432977.17869","433743.839492","434510.772985","435277.080094","436043.856837","436811.154227","442170.470991","Mapping"
"Blocked","Male","ball","1","M_depth.wav","None","719.763556961","325","445294.556418","437577.653641","438327.655264","439093.967629","439860.412938","440627.08518","441393.61242","442160.658452","446043.72111","432210.775737","432977.17869","433743.839492","434510.772985","435277.080094","436043.856837","436811.154227","445304.488607","Mapping"
"Blocked","Male","ball","1","M_ball.wav","None","736.227029935","325","445294.556418","437577.653641","438327.655264","439093.967629","439860.412938","440627.08518","441393.61242","442160.658452","446043.72111","446810.563088","432977.17869","433743.839492","434510.772985","435277.080094","436043.856837","436811.154227","446053.081946","Mapping"
"Blocked","Male","ball","1","M_greet.wav","space","381.093378644","325","445294.556418","437577.653641","438327.655264","439093.967629","439860.412938","440627.08518","441393.61242","442160.658452","446043.72111","446810.563088","447577.27274","433743.839492","434510.772985","435277.080094","436043.856837","436811.154227","446820.471162","Mapping"
"Blocked","Male","ball","1","M_ball.wav","None","730.537933763","325","445294.556418","437577.653641","438327.655264","439093.967629","439860.412938","440627.08518","441393.61242","442160.658452","446043.72111","446810.563088","447577.27274","448343.51925","434510.772985","435277.080094","436043.856837","436811.154227","447587.401254","Mapping"
"Blocked","Male","ball","1","M_bluff.wav","space","367.034345865","325","445294.556418","437577.653641","438327.655264","439093.967629","439860.412938","440627.08518","441393.61242","442160.658452","446043.72111","446810.563088","447577.27274","448343.51925","449110.583215","435277.080094","436043.856837","436811.154227","448354.455943","Mapping"
"Blocked","Male","ball","1","M_ball.wav","None","726.394085214","325","445294.556418","437577.653641","438327.655264","439093.967629","439860.412938","440627.08518","441393.61242","442160.658452","446043.72111","446810.563088","447577.27274","448343.51925","449110.583215","449876.836527","436043.856837","436811.154227","449120.379059","Mapping"
"Blocked","Male","ball","1","M_jolt.wav","space","355.500021018","325","445294.556418","437577.653641","438327.655264","439093.967629","439860.412938","440627.08518","441393.61242","442160.658452","446043.72111","446810.563088","447577.27274","448343.51925","449110.583215","449876.836527","450644.212138","436811.154227","449885.987127","Mapping"
"Blocked","Male","ball","1","M_ball.wav","None","721.351161133","325","445294.556418","437577.653641","438327.655264","439093.967629","439860.412938","440627.08518","441393.61242","442160.658452","446043.72111","446810.563088","447577.27274","448343.51925","449110.583215","449876.836527","450644.212138","451410.947761","450654.133197","Mapping"
"Blocked","Male","ball","1","M_jolt.wav","space","348.320710473","325","445294.556418","452160.207987","438327.655264","439093.967629","439860.412938","440627.08518","441393.61242","442160.658452","446043.72111","446810.563088","447577.27274","448343.51925","449110.583215","449876.836527","450644.212138","451410.947761","451421.139656","Mapping"
"Blocked","Male","ball","1","M_reek.wav","None","734.574807808","325","445294.556418","452160.207987","452927.247217","439093.967629","439860.412938","440627.08518","441393.61242","442160.658452","446043.72111","446810.563088","447577.27274","448343.51925","449110.583215","449876.836527","450644.212138","451410.947761","452169.683527","Mapping"
"Blocked","Male","ball","1","M_depth.wav","None","731.980226468","325","445294.556418","452160.207987","452927.247217","453693.90802","439860.412938","440627.08518","441393.61242","442160.658452","446043.72111","446810.563088","447577.27274","448343.51925","449110.583215","449876.836527","450644.212138","451410.947761","452937.423963","Mapping"
"Blocked","Male","ball","1","M_jolt.wav","None","730.456311721","325","445294.556418","452160.207987","452927.247217","453693.90802","454460.374662","440627.08518","441393.61242","442160.658452","446043.72111","446810.563088","447577.27274","448343.51925","449110.583215","449876.836527","450644.212138","451410.947761","453704.021694","Mapping"
"Blocked","Male","ball","1","M_jolt.wav","None","730.099834967","325","445294.556418","452160.207987","452927.247217","453693.90802","454460.374662","455227.264253","441393.61242","442160.658452","446043.72111","446810.563088","447577.27274","448343.51925","449110.583215","449876.836527","450644.212138","451410.947761","454469.522788","Mapping"
"Blocked","Male","ball","1","M_priest.wav","None","727.990346029","325","445294.556418","452160.207987","452927.247217","453693.90802","454460.374662","455227.264253","455993.418012","442160.658452","446043.72111","446810.563088","447577.27274","448343.51925","449110.583215","449876.836527","450644.212138","451410.947761","455237.147284","Mapping"
"Blocked","Male","ball","1","M_park.wav","None","727.702196687","325","445294.556418","452160.207987","452927.247217","453693.90802","454460.374662","455227.264253","455993.418012","456760.707673","446043.72111","446810.563088","447577.27274","448343.51925","449110.583215","449876.836527","450644.212138","451410.947761","456002.619006","Mapping"
"Blocked","Male","tile","18","M_depth.wav","None","724.84110808","325","459877.615334","452160.207987","452927.247217","453693.90802","454460.374662","455227.264253","455993.418012","456760.707673","446043.72111","446810.563088","447577.27274","448343.51925","449110.583215","449876.836527","450644.212138","451410.947761","456770.443537","Mapping"
"Blocked","Male","tile","18","M_dime.wav","None","719.227450434","325","459877.615334","452160.207987","452927.247217","453693.90802","454460.374662","455227.264253","455993.418012","456760.707673","460644.183076","446810.563088","447577.27274","448343.51925","449110.583215","449876.836527","450644.212138","451410.947761","459888.758555","Mapping"
"Blocked","Male","tile","18","M_knife.wav","None","718.593336176","325","459877.615334","452160.207987","452927.247217","453693.90802","454460.374662","455227.264253","455993.418012","456760.707673","460644.183076","461393.416713","447577.27274","448343.51925","449110.583215","449876.836527","450644.212138","451410.947761","460654.632203","Mapping"
"Blocked","Male","tile","18","M_cling.wav","None","735.26333645","325","459877.615334","452160.207987","452927.247217","453693.90802","454460.374662","455227.264253","455993.418012","456760.707673","460644.183076","461393.416713","462160.195001","448343.51925","449110.583215","449876.836527","450644.212138","451410.947761","461403.239146","Mapping"
"Blocked","Male","tile","18","M_tile.wav","None","734.197616577","325","459877.615334","452160.207987","452927.247217","453693.90802","454460.374662","455227.264253","455993.418012","456760.707673","460644.183076","461393.416713","462160.195001","462927.133751","449110.583215","449876.836527","450644.212138","451410.947761","462169.717846","Mapping"
"Blocked","Male","tile","18","M_priest.wav","space","391.899291426","325","459877.615334","452160.207987","452927.247217","453693.90802","454460.374662","455227.264253","455993.418012","456760.707673","460644.183076","461393.416713","462160.195001","462927.133751","463693.694691","449876.836527","450644.212138","451410.947761","462937.365838","Mapping"
"Blocked","Male","tile","18","M_tile.wav","None","728.86994388","325","459877.615334","452160.207987","452927.247217","453693.90802","454460.374662","455227.264253","455993.418012","456760.707673","460644.183076","461393.416713","462160.195001","462927.133751","463693.694691","464460.318393","450644.212138","451410.947761","463703.810529","Mapping"
"Blocked","Male","tile","18","M_park.wav","space","474.870866165","325","459877.615334","452160.207987","452927.247217","453693.90802","454460.374662","455227.264253","455993.418012","456760.707673","460644.183076","461393.416713","462160.195001","462927.133751","463693.694691","464460.318393","465227.078131","451410.947761","464470.347044","Mapping"
"Blocked","Male","tile","18","M_priest.wav","None","724.857494235","325","459877.615334","452160.207987","452927.247217","453693.90802","454460.374662","455227.264253","455993.418012","456760.707673","460644.183076","461393.416713","462160.195001","462927.133751","463693.694691","464460.318393","465227.078131","465994.093864","465236.734847","Mapping"
"Blocked","Male","tile","18","M_tile.wav","None","723.021005746","325","459877.615334","466760.510111","452927.247217","453693.90802","454460.374662","455227.264253","455993.418012","456760.707673","460644.183076","461393.416713","462160.195001","462927.133751","463693.694691","464460.318393","465227.078131","465994.093864","466004.066864","Mapping"
"Blocked","Male","tile","18","M_romp.wav","space","414.437399246","325","459877.615334","466760.510111","467526.636662","453693.90802","454460.374662","455227.264253","455993.418012","456760.707673","460644.183076","461393.416713","462160.195001","462927.133751","463693.694691","464460.318393","465227.078131","465994.093864","466770.745908","Mapping"
"Blocked","Male","tile","18","M_knife.wav","None","714.897479396","325","459877.615334","466760.510111","467526.636662","468276.818533","454460.374662","455227.264253","455993.418012","456760.707673","460644.183076","461393.416713","462160.195001","462927.133751","463693.694691","464460.318393","465227.078131","465994.093864","467541.008888","Mapping"
"Blocked","Male","tile","18","M_tile.wav","None","734.674670734","325","459877.615334","466760.510111","467526.636662","468276.818533","469043.148212","455227.264253","455993.418012","456760.707673","460644.183076","461393.416713","462160.195001","462927.133751","463693.694691","464460.318393","465227.078131","465994.093864","468286.626435","Mapping"
"Blocked","Male","tile","18","M_jaw.wav","space","380.602102727","325","459877.615334","466760.510111","467526.636662","468276.818533","469043.148212","469809.854772","455993.418012","456760.707673","460644.183076","461393.416713","462160.195001","462927.133751","463693.694691","464460.318393","465227.078131","465994.093864","469052.553569","Mapping"
