"Condition","Talker","Target","Trial","current_stimulus","response_response","response_time_response","subject_nr","time_Audio1","time_Audio10","time_Audio11","time_Audio12","time_Audio13","time_Audio14","time_Audio15","time_Audio16","time_Audio2","time_Audio3","time_Audio4","time_Audio5","time_Audio6","time_Audio7","time_Audio8","time_Audio9","time_response","title"
"Blocked","Female","ball","6","F_cad.wav","NA","NA","422","42391.3464266","NA","NA","NA","NA","NA","NA","NA","NA","NA","NA","NA","NA","NA","NA","NA","NA","Mapping"
"Blocked","Female","ball","6","F_ball.wav","space","0.0210328448666","422","42391.3464266","NA","NA","NA","NA","NA","NA","NA","43158.6786926","NA","NA","NA","NA","NA","NA","NA","42403.0566132","Mapping"
"Blocked","Female","ball","6","F_knife.wav","None","728.148676974","422","42391.3464266","NA","NA","NA","NA","NA","NA","NA","43158.6786926","43925.6894567","NA","NA","NA","NA","NA","NA","43162.8999846","Mapping"
"Blocked","Female","ball","6","F_ball.wav","None","728.127644129","422","42391.3464266","NA","NA","NA","NA","NA","NA","NA","43158.6786926","43925.6894567","44692.3736106","NA","NA","NA","NA","NA","43929.8737909","Mapping"
"Blocked","Female","ball","6","F_knife.wav","space","517.125843718","422","42391.3464266","NA","NA","NA","NA","NA","NA","NA","43158.6786926","43925.6894567","44692.3736106","45459.5592477","NA","NA","NA","NA","44695.8389221","Mapping"
"Blocked","Female","ball","6","F_cad.wav","None","730.04704146","422","42391.3464266","NA","NA","NA","NA","NA","NA","NA","43158.6786926","43925.6894567","44692.3736106","45459.5592477","46226.7902557","NA","NA","NA","45462.3932733","Mapping"
"Blocked","Female","ball","6","F_ball.wav","None","729.491774355","422","42391.3464266","NA","NA","NA","NA","NA","NA","NA","43158.6786926","43925.6894567","44692.3736106","45459.5592477","46226.7902557","46993.9993294","NA","NA","46229.9722246","Mapping"
"Blocked","Female","ball","6","F_priest.wav","space","348.871197261","422","42391.3464266","NA","NA","NA","NA","NA","NA","NA","43158.6786926","43925.6894567","44692.3736106","45459.5592477","46226.7902557","46993.9993294","47761.9175104","NA","46997.0821435","Mapping"
"Blocked","Female","ball","6","F_park.wav","None","727.086518307","422","42391.3464266","NA","NA","NA","NA","NA","NA","NA","43158.6786926","43925.6894567","44692.3736106","45459.5592477","46226.7902557","46993.9993294","47761.9175104","48528.6278052","47766.0699949","Mapping"
"Blocked","Female","ball","6","F_park.wav","None","727.656508403","422","42391.3464266","49296.4038643","NA","NA","NA","NA","NA","NA","43158.6786926","43925.6894567","44692.3736106","45459.5592477","46226.7902557","46993.9993294","47761.9175104","48528.6278052","48532.0540556","Mapping"
"Blocked","Female","ball","6","F_cad.wav","None","726.724152436","422","42391.3464266","49296.4038643","50062.9353799","NA","NA","NA","NA","NA","43158.6786926","43925.6894567","44692.3736106","45459.5592477","46226.7902557","46993.9993294","47761.9175104","48528.6278052","49300.0515605","Mapping"
"Blocked","Female","ball","6","F_ball.wav","None","728.022479905","422","42391.3464266","49296.4038643","50062.9353799","50830.1937305","NA","NA","NA","NA","43158.6786926","43925.6894567","44692.3736106","45459.5592477","46226.7902557","46993.9993294","47761.9175104","48528.6278052","50066.1714333","Mapping"
"Blocked","Female","ball","6","F_gnash.wav","space","583.808976097","422","42391.3464266","49296.4038643","50062.9353799","50830.1937305","51597.4208324","NA","NA","NA","43158.6786926","43925.6894567","44692.3736106","45459.5592477","46226.7902557","46993.9993294","47761.9175104","48528.6278052","50833.1794931","Mapping"
"Blocked","Female","ball","6","F_reek.wav","None","727.775794681","422","42391.3464266","49296.4038643","50062.9353799","50830.1937305","51597.4208324","52364.6641596","NA","NA","43158.6786926","43925.6894567","44692.3736106","45459.5592477","46226.7902557","46993.9993294","47761.9175104","48528.6278052","51600.7809796","Mapping"
"Blocked","Female","ball","6","F_knife.wav","None","728.313935041","422","42391.3464266","49296.4038643","50062.9353799","50830.1937305","51597.4208324","52364.6641596","53131.8329704","NA","43158.6786926","43925.6894567","44692.3736106","45459.5592477","46226.7902557","46993.9993294","47761.9175104","48528.6278052","52367.5534715","Mapping"
"Blocked","Female","ball","6","F_dime.wav","None","728.381240145","422","42391.3464266","49296.4038643","50062.9353799","50830.1937305","51597.4208324","52364.6641596","53131.8329704","53898.9897624","43158.6786926","43925.6894567","44692.3736106","45459.5592477","46226.7902557","46993.9993294","47761.9175104","48528.6278052","53134.8734183","Mapping"
"Blocked","Female","cave","10","F_park.wav","None","728.205766125","422","57052.1329108","49296.4038643","50062.9353799","50830.1937305","51597.4208324","52364.6641596","53131.8329704","53898.9897624","43158.6786926","43925.6894567","44692.3736106","45459.5592477","46226.7902557","46993.9993294","47761.9175104","48528.6278052","53902.2020788","Mapping"
"Blocked","Female","cave","10","F_lash.wav","None","729.330121918","422","57052.1329108","49296.4038643","50062.9353799","50830.1937305","51597.4208324","52364.6641596","53131.8329704","53898.9897624","57819.1358626","43925.6894567","44692.3736106","45459.5592477","46226.7902557","46993.9993294","47761.9175104","48528.6278052","57055.600025","Mapping"
"Blocked","Female","cave","10","F_cave.wav","None","729.561483212","422","57052.1329108","49296.4038643","50062.9353799","50830.1937305","51597.4208324","52364.6641596","53131.8329704","53898.9897624","57819.1358626","58585.7992842","44692.3736106","45459.5592477","46226.7902557","46993.9993294","47761.9175104","48528.6278052","57822.5615121","Mapping"
"Blocked","Female","cave","10","F_reek.wav","space","458.273840429","422","57052.1329108","49296.4038643","50062.9353799","50830.1937305","51597.4208324","52364.6641596","53131.8329704","53898.9897624","57819.1358626","58585.7992842","59353.226799","45459.5592477","46226.7902557","46993.9993294","47761.9175104","48528.6278052","58588.6720703","Mapping"
"Blocked","Female","cave","10","F_cave.wav","None","729.693689666","422","57052.1329108","49296.4038643","50062.9353799","50830.1937305","51597.4208324","52364.6641596","53131.8329704","53898.9897624","57819.1358626","58585.7992842","59353.226799","60120.0822204","46226.7902557","46993.9993294","47761.9175104","48528.6278052","59355.8495947","Mapping"
"Blocked","Female","cave","10","F_cling.wav","space","644.869428099","422","57052.1329108","49296.4038643","50062.9353799","50830.1937305","51597.4208324","52364.6641596","53131.8329704","53898.9897624","57819.1358626","58585.7992842","59353.226799","60120.0822204","60887.3438762","46993.9993294","47761.9175104","48528.6278052","60123.1184618","Mapping"
"Blocked","Female","cave","10","F_reek.wav","None","729.116788777","422","57052.1329108","49296.4038643","50062.9353799","50830.1937305","51597.4208324","52364.6641596","53131.8329704","53898.9897624","57819.1358626","58585.7992842","59353.226799","60120.0822204","60887.3438762","61654.6418888","47761.9175104","48528.6278052","60890.4729626","Mapping"
"Blocked","Female","cave","10","F_jaw.wav","None","729.114685493","422","57052.1329108","49296.4038643","50062.9353799","50830.1937305","51597.4208324","52364.6641596","53131.8329704","53898.9897624","57819.1358626","58585.7992842","59353.226799","60120.0822204","60887.3438762","61654.6418888","62422.0321454","48528.6278052","61657.6510879","Mapping"
"Blocked","Female","cave","10","F_greet.wav","None","729.048582266","422","57052.1329108","49296.4038643","50062.9353799","50830.1937305","51597.4208324","52364.6641596","53131.8329704","53898.9897624","57819.1358626","58585.7992842","59353.226799","60120.0822204","60887.3438762","61654.6418888","62422.0321454","63189.0233789","62425.0052883","Mapping"
"Blocked","Female","cave","10","F_cave.wav","None","728.867098861","422","57052.1329108","63956.326199","50062.9353799","50830.1937305","51597.4208324","52364.6641596","53131.8329704","53898.9897624","57819.1358626","58585.7992842","59353.226799","60120.0822204","60887.3438762","61654.6418888","62422.0321454","63189.0233789","63192.4403148","Mapping"
"Blocked","Female","cave","10","F_jolt.wav","space","468.266244568","422","57052.1329108","63956.326199","64723.5824463","50830.1937305","51597.4208324","52364.6641596","53131.8329704","53898.9897624","57819.1358626","58585.7992842","59353.226799","60120.0822204","60887.3438762","61654.6418888","62422.0321454","63189.0233789","63959.6794354","Mapping"
"Blocked","Female","cave","10","F_jolt.wav","None","728.974366371","422","57052.1329108","63956.326199","64723.5824463","65490.723614","51597.4208324","52364.6641596","53131.8329704","53898.9897624","57819.1358626","58585.7992842","59353.226799","60120.0822204","60887.3438762","61654.6418888","62422.0321454","63189.0233789","64726.8632697","Mapping"
"Blocked","Female","cave","10","F_cave.wav","None","728.696432349","422","57052.1329108","63956.326199","64723.5824463","65490.723614","66258.0339458","52364.6641596","53131.8329704","53898.9897624","57819.1358626","58585.7992842","59353.226799","60120.0822204","60887.3438762","61654.6418888","62422.0321454","63189.0233789","65494.3007","Mapping"
"Blocked","Female","cave","10","F_priest.wav","space","416.517633937","422","57052.1329108","63956.326199","64723.5824463","65490.723614","66258.0339458","67025.3388692","53131.8329704","53898.9897624","57819.1358626","58585.7992842","59353.226799","60120.0822204","60887.3438762","61654.6418888","62422.0321454","63189.0233789","66261.4604967","Mapping"
"Blocked","Female","cave","10","F_dime.wav","None","727.911306296","422","57052.1329108","63956.326199","64723.5824463","65490.723614","66258.0339458","67025.3388692","67792.4677176","53898.9897624","57819.1358626","58585.7992842","59353.226799","60120.0822204","60887.3438762","61654.6418888","62422.0321454","63189.0233789","67028.6620587","Mapping"
"Blocked","Female","cave","10","F_knife.wav","None","727.540226818","422","57052.1329108","63956.326199","64723.5824463","65490.723614","66258.0339458","67025.3388692","67792.4677176","68559.6963218","57819.1358626","58585.7992842","59353.226799","60120.0822204","60887.3438762","61654.6418888","62422.0321454","63189.0233789","67795.840184","Mapping"
"Blocked","Female","done","19","F_jaw.wav","None","728.40978472","422","71678.6529845","63956.326199","64723.5824463","65490.723614","66258.0339458","67025.3388692","67792.4677176","68559.6963218","57819.1358626","58585.7992842","59353.226799","60120.0822204","60887.3438762","61654.6418888","62422.0321454","63189.0233789","68562.3203194","Mapping"
"Blocked","Female","done","19","F_done.wav","None","730.529895485","422","71678.6529845","63956.326199","64723.5824463","65490.723614","66258.0339458","67025.3388692","67792.4677176","68559.6963218","72445.5153167","58585.7992842","59353.226799","60120.0822204","60887.3438762","61654.6418888","62422.0321454","63189.0233789","71682.1017701","Mapping"
"Blocked","Female","done","19","F_knife.wav","space","427.822788066","422","71678.6529845","63956.326199","64723.5824463","65490.723614","66258.0339458","67025.3388692","67792.4677176","68559.6963218","72445.5153167","73212.7583434","59353.226799","60120.0822204","60887.3438762","61654.6418888","62422.0321454","63189.0233789","72448.1176806","Mapping"
"Blocked","Female","done","19","F_jolt.wav","None","730.953857544","422","71678.6529845","63956.326199","64723.5824463","65490.723614","66258.0339458","67025.3388692","67792.4677176","68559.6963218","72445.5153167","73212.7583434","73979.9484876","60120.0822204","60887.3438762","61654.6418888","62422.0321454","63189.0233789","73215.8787162","Mapping"
"Blocked","Female","done","19","F_cad.wav","None","731.144955963","422","71678.6529845","63956.326199","64723.5824463","65490.723614","66258.0339458","67025.3388692","67792.4677176","68559.6963218","72445.5153167","73212.7583434","73979.9484876","74747.5481712","60887.3438762","61654.6418888","62422.0321454","63189.0233789","73982.8630389","Mapping"
"Blocked","Female","done","19","F_done.wav","None","730.174440406","422","71678.6529845","63956.326199","64723.5824463","65490.723614","66258.0339458","67025.3388692","67792.4677176","68559.6963218","72445.5153167","73212.7583434","73979.9484876","74747.5481712","75514.6256394","61654.6418888","62422.0321454","63189.0233789","74750.5585723","Mapping"
"Blocked","Female","done","19","F_dime.wav","space","401.014924907","422","71678.6529845","63956.326199","64723.5824463","65490.723614","66258.0339458","67025.3388692","67792.4677176","68559.6963218","72445.5153167","73212.7583434","73979.9484876","74747.5481712","75514.6256394","76281.8972107","62422.0321454","63189.0233789","75517.9289979","Mapping"
"Blocked","Female","done","19","F_cling.wav","None","730.049745683","422","71678.6529845","63956.326199","64723.5824463","65490.723614","66258.0339458","67025.3388692","67792.4677176","68559.6963218","72445.5153167","73212.7583434","73979.9484876","74747.5481712","75514.6256394","76281.8972107","77049.0503971","63189.0233789","76284.9761187","Mapping"
"Blocked","Female","done","19","F_jaw.wav","None","730.066872428","422","71678.6529845","63956.326199","64723.5824463","65490.723614","66258.0339458","67025.3388692","67792.4677176","68559.6963218","72445.5153167","73212.7583434","73979.9484876","74747.5481712","75514.6256394","76281.8972107","77049.0503971","77816.4980433","77052.140122","Mapping"
"Blocked","Female","done","19","F_jaw.wav","None","729.809069844","422","71678.6529845","78583.4514177","64723.5824463","65490.723614","66258.0339458","67025.3388692","67792.4677176","68559.6963218","72445.5153167","73212.7583434","73979.9484876","74747.5481712","75514.6256394","76281.8972107","77049.0503971","77816.4980433","77819.5372894","Mapping"
"Blocked","Female","done","19","F_jaw.wav","None","730.111341872","422","71678.6529845","78583.4514177","79350.8323598","65490.723614","66258.0339458","67025.3388692","67792.4677176","68559.6963218","72445.5153167","73212.7583434","73979.9484876","74747.5481712","75514.6256394","76281.8972107","77049.0503971","77816.4980433","78586.4966732","Mapping"
"Blocked","Female","done","19","F_done.wav","None","729.381802623","422","71678.6529845","78583.4514177","79350.8323598","80118.056457","66258.0339458","67025.3388692","67792.4677176","68559.6963218","72445.5153167","73212.7583434","73979.9484876","74747.5481712","75514.6256394","76281.8972107","77049.0503971","77816.4980433","79354.0630048","Mapping"
"Blocked","Female","done","19","F_jaw.wav","space","434.022369332","422","71678.6529845","78583.4514177","79350.8323598","80118.056457","80885.3136057","67025.3388692","67792.4677176","68559.6963218","72445.5153167","73212.7583434","73979.9484876","74747.5481712","75514.6256394","76281.8972107","77049.0503971","77816.4980433","80120.9391586","Mapping"
"Blocked","Female","done","19","F_done.wav","None","728.961145725","422","71678.6529845","78583.4514177","79350.8323598","80118.056457","80885.3136057","81652.6798248","67792.4677176","68559.6963218","72445.5153167","73212.7583434","73979.9484876","74747.5481712","75514.6256394","76281.8972107","77049.0503971","77816.4980433","80888.0625986","Mapping"
"Blocked","Female","done","19","F_cling.wav","space","472.856212261","422","71678.6529845","78583.4514177","79350.8323598","80118.056457","80885.3136057","81652.6798248","82419.7146264","68559.6963218","72445.5153167","73212.7583434","73979.9484876","74747.5481712","75514.6256394","76281.8972107","77049.0503971","77816.4980433","81656.0549955","Mapping"
"Blocked","Female","done","19","F_romp.wav","None","727.76077122","422","71678.6529845","78583.4514177","79350.8323598","80118.056457","80885.3136057","81652.6798248","82419.7146264","83186.9618596","72445.5153167","73212.7583434","73979.9484876","74747.5481712","75514.6256394","76281.8972107","77049.0503971","77816.4980433","82422.9645014","Mapping"
"Blocked","Female","cave","9","F_cad.wav","None","727.930235856","422","86322.542883","78583.4514177","79350.8323598","80118.056457","80885.3136057","81652.6798248","82419.7146264","83186.9618596","72445.5153167","73212.7583434","73979.9484876","74747.5481712","75514.6256394","76281.8972107","77049.0503971","77816.4980433","83190.1879976","Mapping"
"Blocked","Female","cave","9","F_cave.wav","None","730.277801815","422","86322.542883","78583.4514177","79350.8323598","80118.056457","80885.3136057","81652.6798248","82419.7146264","83186.9618596","87089.4737222","73212.7583434","73979.9484876","74747.5481712","75514.6256394","76281.8972107","77049.0503971","77816.4980433","86326.1139596","Mapping"
"Blocked","Female","cave","9","F_gnash.wav","space","574.589078305","422","86322.542883","78583.4514177","79350.8323598","80118.056457","80885.3136057","81652.6798248","82419.7146264","83186.9618596","87089.4737222","87856.9457064","73979.9484876","74747.5481712","75514.6256394","76281.8972107","77049.0503971","77816.4980433","87092.3278792","Mapping"
"Blocked","Female","cave","9","F_greet.wav","None","730.519379062","422","86322.542883","78583.4514177","79350.8323598","80118.056457","80885.3136057","81652.6798248","82419.7146264","83186.9618596","87089.4737222","87856.9457064","88624.7779533","74747.5481712","75514.6256394","76281.8972107","77049.0503971","77816.4980433","87859.9687272","Mapping"
"Blocked","Female","cave","9","F_cave.wav","None","729.849032249","422","86322.542883","78583.4514177","79350.8323598","80118.056457","80885.3136057","81652.6798248","82419.7146264","83186.9618596","87089.4737222","87856.9457064","88624.7779533","89391.6195531","75514.6256394","76281.8972107","77049.0503971","77816.4980433","88627.8601664","Mapping"
"Blocked","Female","cave","9","F_knife.wav","space","451.658409772","422","86322.542883","78583.4514177","79350.8323598","80118.056457","80885.3136057","81652.6798248","82419.7146264","83186.9618596","87089.4737222","87856.9457064","88624.7779533","89391.6195531","90159.3766826","76281.8972107","77049.0503971","77816.4980433","89395.2537282","Mapping"
"Blocked","Female","cave","9","F_dime.wav","None","729.524825968","422","86322.542883","78583.4514177","79350.8323598","80118.056457","80885.3136057","81652.6798248","82419.7146264","83186.9618596","87089.4737222","87856.9457064","88624.7779533","89391.6195531","90159.3766826","90925.8775504","77049.0503971","77816.4980433","90162.8269706","Mapping"
"Blocked","Female","cave","9","F_cave.wav","None","731.03167907","422","86322.542883","78583.4514177","79350.8323598","80118.056457","80885.3136057","81652.6798248","82419.7146264","83186.9618596","87089.4737222","87856.9457064","88624.7779533","89391.6195531","90159.3766826","90925.8775504","91692.7711314","77816.4980433","90929.0475006","Mapping"
"Blocked","Female","cave","9","F_cad.wav","space","571.589794623","422","86322.542883","78583.4514177","79350.8323598","80118.056457","80885.3136057","81652.6798248","82419.7146264","83186.9618596","87089.4737222","87856.9457064","88624.7779533","89391.6195531","90159.3766826","90925.8775504","91692.7711314","92460.8500635","91695.3266221","Mapping"
"Blocked","Female","cave","9","F_cave.wav","None","729.425671128","422","86322.542883","93228.0819728","79350.8323598","80118.056457","80885.3136057","81652.6798248","82419.7146264","83186.9618596","87089.4737222","87856.9457064","88624.7779533","89391.6195531","90159.3766826","90925.8775504","91692.7711314","92460.8500635","92464.5082761","Mapping"
"Blocked","Female","cave","9","F_romp.wav","None","729.828600342","422","86322.542883","93228.0819728","93994.7225587","80118.056457","80885.3136057","81652.6798248","82419.7146264","83186.9618596","87089.4737222","87856.9457064","88624.7779533","89391.6195531","90159.3766826","90925.8775504","91692.7711314","92460.8500635","93231.4691622","Mapping"
"Blocked","Female","cave","9","F_lash.wav","space","179.946804931","422","86322.542883","93228.0819728","93994.7225587","94761.9764023","80885.3136057","81652.6798248","82419.7146264","83186.9618596","87089.4737222","87856.9457064","88624.7779533","89391.6195531","90159.3766826","90925.8775504","91692.7711314","92460.8500635","93997.9766403","Mapping"
"Blocked","Female","cave","9","F_jolt.wav","None","729.876374947","422","86322.542883","93228.0819728","93994.7225587","94761.9764023","95529.1800676","81652.6798248","82419.7146264","83186.9618596","87089.4737222","87856.9457064","88624.7779533","89391.6195531","90159.3766826","90925.8775504","91692.7711314","92460.8500635","94765.2364933","Mapping"
"Blocked","Female","cave","9","F_lash.wav","None","729.986647148","422","86322.542883","93228.0819728","93994.7225587","94761.9764023","95529.1800676","96296.4525403","82419.7146264","83186.9618596","87089.4737222","87856.9457064","88624.7779533","89391.6195531","90159.3766826","90925.8775504","91692.7711314","92460.8500635","95532.4918393","Mapping"
"Blocked","Female","cave","9","F_knife.wav","None","730.854702704","422","86322.542883","93228.0819728","93994.7225587","94761.9764023","95529.1800676","96296.4525403","97063.2959429","83186.9618596","87089.4737222","87856.9457064","88624.7779533","89391.6195531","90159.3766826","90925.8775504","91692.7711314","92460.8500635","96299.0969698","Mapping"
"Blocked","Female","cave","9","F_reek.wav","None","731.086664936","422","86322.542883","93228.0819728","93994.7225587","94761.9764023","95529.1800676","96296.4525403","97063.2959429","97830.5888475","87089.4737222","87856.9457064","88624.7779533","89391.6195531","90159.3766826","90925.8775504","91692.7711314","92460.8500635","97066.4187195","Mapping"
"Blocked","Female","tile","17","F_park.wav","None","731.162683647","422","100967.146396","93228.0819728","93994.7225587","94761.9764023","95529.1800676","96296.4525403","97063.2959429","97830.5888475","87089.4737222","87856.9457064","88624.7779533","89391.6195531","90159.3766826","90925.8775504","91692.7711314","92460.8500635","97833.4234741","Mapping"
"Blocked","Female","tile","17","F_park.wav","None","728.349089939","422","100967.146396","93228.0819728","93994.7225587","94761.9764023","95529.1800676","96296.4525403","97063.2959429","97830.5888475","101734.342549","87856.9457064","88624.7779533","89391.6195531","90159.3766826","90925.8775504","91692.7711314","92460.8500635","100970.612308","Mapping"
"Blocked","Female","tile","17","F_jaw.wav","None","728.311230818","422","100967.146396","93228.0819728","93994.7225587","94761.9764023","95529.1800676","96296.4525403","97063.2959429","97830.5888475","101734.342549","102500.949483","88624.7779533","89391.6195531","90159.3766826","90925.8775504","91692.7711314","92460.8500635","101737.842715","Mapping"
"Blocked","Female","tile","17","F_tile.wav","None","729.983041518","422","100967.146396","93228.0819728","93994.7225587","94761.9764023","95529.1800676","96296.4525403","97063.2959429","97830.5888475","101734.342549","102500.949483","103268.15435","89391.6195531","90159.3766826","90925.8775504","91692.7711314","92460.8500635","102503.747452","Mapping"
"Blocked","Female","tile","17","F_priest.wav","space","436.884338583","422","100967.146396","93228.0819728","93994.7225587","94761.9764023","95529.1800676","96296.4525403","97063.2959429","97830.5888475","101734.342549","102500.949483","103268.15435","104035.197565","90159.3766826","90925.8775504","91692.7711314","92460.8500635","103271.045164","Mapping"
"Blocked","Female","tile","17","F_reek.wav","None","730.273895716","422","100967.146396","93228.0819728","93994.7225587","94761.9764023","95529.1800676","96296.4525403","97063.2959429","97830.5888475","101734.342549","102500.949483","103268.15435","104035.197565","104802.522018","90925.8775504","91692.7711314","92460.8500635","104038.497618","Mapping"
"Blocked","Female","tile","17","F_jolt.wav","None","730.405501231","422","100967.146396","93228.0819728","93994.7225587","94761.9764023","95529.1800676","96296.4525403","97063.2959429","97830.5888475","101734.342549","102500.949483","103268.15435","104035.197565","104802.522018","105569.442341","91692.7711314","92460.8500635","104805.554955","Mapping"
"Blocked","Female","tile","17","F_tile.wav","None","731.099585112","422","100967.146396","93228.0819728","93994.7225587","94761.9764023","95529.1800676","96296.4525403","97063.2959429","97830.5888475","101734.342549","102500.949483","103268.15435","104035.197565","104802.522018","105569.442341","106336.610251","92460.8500635","105572.24662","Mapping"
"Blocked","Female","tile","17","F_cling.wav","space","535.159104457","422","100967.146396","93228.0819728","93994.7225587","94761.9764023","95529.1800676","96296.4525403","97063.2959429","97830.5888475","101734.342549","102500.949483","103268.15435","104035.197565","104802.522018","105569.442341","106336.610251","107104.157352","106339.7796","Mapping"
"Blocked","Female","tile","17","F_dime.wav","None","730.127867678","422","100967.146396","107871.134163","93994.7225587","94761.9764023","95529.1800676","96296.4525403","97063.2959429","97830.5888475","101734.342549","102500.949483","103268.15435","104035.197565","104802.522018","105569.442341","106336.610251","107104.157352","107107.470927","Mapping"
"Blocked","Female","tile","17","F_gnash.wav","None","731.190326815","422","100967.146396","107871.134163","108638.388007","94761.9764023","95529.1800676","96296.4525403","97063.2959429","97830.5888475","101734.342549","102500.949483","103268.15435","104035.197565","104802.522018","105569.442341","106336.610251","107104.157352","107873.9754","Mapping"
"Blocked","Female","tile","17","F_tile.wav","None","731.060223645","422","100967.146396","107871.134163","108638.388007","109405.547203","95529.1800676","96296.4525403","97063.2959429","97830.5888475","101734.342549","102500.949483","103268.15435","104035.197565","104802.522018","105569.442341","106336.610251","107104.157352","108641.551347","Mapping"
"Blocked","Female","tile","17","F_depth.wav","space","459.996129957","422","100967.146396","107871.134163","108638.388007","109405.547203","110172.811563","96296.4525403","97063.2959429","97830.5888475","101734.342549","102500.949483","103268.15435","104035.197565","104802.522018","105569.442341","106336.610251","107104.157352","109408.903143","Mapping"
"Blocked","Female","tile","17","F_tile.wav","None","731.587547114","422","100967.146396","107871.134163","108638.388007","109405.547203","110172.811563","110940.039566","97063.2959429","97830.5888475","101734.342549","102500.949483","103268.15435","104035.197565","104802.522018","105569.442341","106336.610251","107104.157352","110175.492048","Mapping"
"Blocked","Female","tile","17","F_gnash.wav","space","715.737195204","422","100967.146396","107871.134163","108638.388007","109405.547203","110172.811563","110940.039566","111707.176226","97830.5888475","101734.342549","102500.949483","103268.15435","104035.197565","104802.522018","105569.442341","106336.610251","107104.157352","110943.177666","Mapping"
"Blocked","Female","tile","17","F_jolt.wav","None","731.270552094","422","100967.146396","107871.134163","108638.388007","109405.547203","110172.811563","110940.039566","111707.176226","112474.432474","101734.342549","102500.949483","103268.15435","104035.197565","104802.522018","105569.442341","106336.610251","107104.157352","111710.204055","Mapping"
"Blocked","Female","ball","2","F_cad.wav","None","732.507283374","422","115611.049515","107871.134163","108638.388007","109405.547203","110172.811563","110940.039566","111707.176226","112474.432474","101734.342549","102500.949483","103268.15435","104035.197565","104802.522018","105569.442341","106336.610251","107104.157352","112476.981054","Mapping"
"Blocked","Female","ball","2","F_ball.wav","None","728.831943964","422","115611.049515","107871.134163","108638.388007","109405.547203","110172.811563","110940.039566","111707.176226","112474.432474","116377.705425","102500.949483","103268.15435","104035.197565","104802.522018","105569.442341","106336.610251","107104.157352","115614.47847","Mapping"
"Blocked","Female","ball","2","F_dime.wav","space","312.170986212","422","115611.049515","107871.134163","108638.388007","109405.547203","110172.811563","110940.039566","111707.176226","112474.432474","116377.705425","117144.749541","103268.15435","104035.197565","104802.522018","105569.442341","106336.610251","107104.157352","116380.747375","Mapping"
"Blocked","Female","ball","2","F_ball.wav","None","729.828600342","422","115611.049515","107871.134163","108638.388007","109405.547203","110172.811563","110940.039566","111707.176226","112474.432474","116377.705425","117144.749541","117911.970633","104035.197565","104802.522018","105569.442341","106336.610251","107104.157352","117147.791491","Mapping"
"Blocked","Female","ball","2","F_lash.wav","space","354.636900985","422","115611.049515","107871.134163","108638.388007","109405.547203","110172.811563","110940.039566","111707.176226","112474.432474","116377.705425","117144.749541","117911.970633","118679.253622","104802.522018","105569.442341","106336.610251","107104.157352","117915.254461","Mapping"
"Blocked","Female","ball","2","F_knife.wav","None","729.874572132","422","115611.049515","107871.134163","108638.388007","109405.547203","110172.811563","110940.039566","111707.176226","112474.432474","116377.705425","117144.749541","117911.970633","118679.253622","119446.504461","105569.442341","106336.610251","107104.157352","118682.107179","Mapping"
"Blocked","Female","ball","2","F_gnash.wav","None","730.297031845","422","115611.049515","107871.134163","108638.388007","109405.547203","110172.811563","110940.039566","111707.176226","112474.432474","116377.705425","117144.749541","117911.970633","118679.253622","119446.504461","120213.87699","106336.610251","107104.157352","119449.304233","Mapping"
"Blocked","Female","ball","2","F_bluff.wav","None","730.147698646","422","115611.049515","107871.134163","108638.388007","109405.547203","110172.811563","110940.039566","111707.176226","112474.432474","116377.705425","117144.749541","117911.970633","118679.253622","119446.504461","120213.87699","120980.671717","107104.157352","120216.99526","Mapping"
"Blocked","Female","ball","2","F_ball.wav","None","730.402797008","422","115611.049515","107871.134163","108638.388007","109405.547203","110172.811563","110940.039566","111707.176226","112474.432474","116377.705425","117144.749541","117911.970633","118679.253622","119446.504461","120213.87699","120980.671717","121747.859457","120984.178493","Mapping"
"Blocked","Female","ball","2","F_park.wav","space","479.658835237","422","115611.049515","122515.434803","108638.388007","109405.547203","110172.811563","110940.039566","111707.176226","112474.432474","116377.705425","117144.749541","117911.970633","118679.253622","119446.504461","120213.87699","120980.671717","121747.859457","121750.285746","Mapping"
"Blocked","Female","ball","2","F_jolt.wav","None","730.562947098","422","115611.049515","122515.434803","123282.216609","109405.547203","110172.811563","110940.039566","111707.176226","112474.432474","116377.705425","117144.749541","117911.970633","118679.253622","119446.504461","120213.87699","120980.671717","121747.859457","122518.268829","Mapping"
"Blocked","Female","ball","2","F_priest.wav","None","731.722758259","422","115611.049515","122515.434803","123282.216609","124049.48758","110172.811563","110940.039566","111707.176226","112474.432474","116377.705425","117144.749541","117911.970633","118679.253622","119446.504461","120213.87699","120980.671717","121747.859457","123284.837903","Mapping"
"Blocked","Female","ball","2","F_ball.wav","None","731.801180724","422","115611.049515","122515.434803","123282.216609","124049.48758","124816.762456","110940.039566","111707.176226","112474.432474","116377.705425","117144.749541","117911.970633","118679.253622","119446.504461","120213.87699","120980.671717","121747.859457","124052.348347","Mapping"
"Blocked","Female","ball","2","F_lash.wav","space","420.375358159","422","115611.049515","122515.434803","123282.216609","124049.48758","124816.762456","125583.8886","111707.176226","112474.432474","116377.705425","117144.749541","117911.970633","118679.253622","119446.504461","120213.87699","120980.671717","121747.859457","124819.488313","Mapping"
"Blocked","Female","ball","2","F_gnash.wav","None","731.912053863","422","115611.049515","122515.434803","123282.216609","124049.48758","124816.762456","125583.8886","126351.219665","112474.432474","116377.705425","117144.749541","117911.970633","118679.253622","119446.504461","120213.87699","120980.671717","121747.859457","125586.671546","Mapping"
"Blocked","Female","ball","2","F_greet.wav","None","732.205011346","422","115611.049515","122515.434803","123282.216609","124049.48758","124816.762456","125583.8886","126351.219665","127118.414616","116377.705425","117144.749541","117911.970633","118679.253622","119446.504461","120213.87699","120980.671717","121747.859457","126353.884226","Mapping"
"Blocked","Female","tile","14","F_gnash.wav","None","731.311716376","422","130254.961949","122515.434803","123282.216609","124049.48758","124816.762456","125583.8886","126351.219665","127118.414616","116377.705425","117144.749541","117911.970633","118679.253622","119446.504461","120213.87699","120980.671717","121747.859457","127122.348359","Mapping"
"Blocked","Female","tile","14","F_tile.wav","None","728.28388812","422","130254.961949","122515.434803","123282.216609","124049.48758","124816.762456","125583.8886","126351.219665","127118.414616","131022.204074","117144.749541","117911.970633","118679.253622","119446.504461","120213.87699","120980.671717","121747.859457","130258.807053","Mapping"
"Blocked","Female","tile","14","F_gnash.wav","space","516.066990212","422","130254.961949","122515.434803","123282.216609","124049.48758","124816.762456","125583.8886","126351.219665","127118.414616","131022.204074","131788.874406","117911.970633","118679.253622","119446.504461","120213.87699","120980.671717","121747.859457","131025.815413","Mapping"
"Blocked","Female","tile","14","F_reek.wav","None","729.2492957","422","130254.961949","122515.434803","123282.216609","124049.48758","124816.762456","125583.8886","126351.219665","127118.414616","131022.204074","131788.874406","132556.121339","118679.253622","119446.504461","120213.87699","120980.671717","121747.859457","131792.220131","Mapping"
"Blocked","Female","tile","14","F_dime.wav","None","730.180750259","422","130254.961949","122515.434803","123282.216609","124049.48758","124816.762456","125583.8886","126351.219665","127118.414616","131022.204074","131788.874406","132556.121339","133323.240272","119446.504461","120213.87699","120980.671717","121747.859457","132558.948754","Mapping"
"Blocked","Female","tile","14","F_cad.wav","None","730.648280355","422","130254.961949","122515.434803","123282.216609","124049.48758","124816.762456","125583.8886","126351.219665","127118.414616","131022.204074","131788.874406","132556.121339","133323.240272","134090.12574","120213.87699","120980.671717","121747.859457","133325.965227","Mapping"
"Blocked","Female","tile","14","F_gnash.wav","None","731.511227933","422","130254.961949","122515.434803","123282.216609","124049.48758","124816.762456","125583.8886","126351.219665","127118.414616","131022.204074","131788.874406","132556.121339","133323.240272","134090.12574","134857.384391","120980.671717","121747.859457","134092.857907","Mapping"
"Blocked","Female","tile","14","F_tile.wav","None","732.281931464","422","130254.961949","122515.434803","123282.216609","124049.48758","124816.762456","125583.8886","126351.219665","127118.414616","131022.204074","131788.874406","132556.121339","133323.240272","134090.12574","134857.384391","135624.573033","121747.859457","134859.881591","Mapping"
"Blocked","Female","tile","14","F_reek.wav","space","433.424435599","422","130254.961949","122515.434803","123282.216609","124049.48758","124816.762456","125583.8886","126351.219665","127118.414616","131022.204074","131788.874406","132556.121339","133323.240272","134090.12574","134857.384391","135624.573033","136391.766483","135627.486984","Mapping"
"Blocked","Female","tile","14","F_tile.wav","None","732.084222722","422","130254.961949","137158.979162","123282.216609","124049.48758","124816.762456","125583.8886","126351.219665","127118.414616","131022.204074","131788.874406","132556.121339","133323.240272","134090.12574","134857.384391","135624.573033","136391.766483","136395.004038","Mapping"
"Blocked","Female","tile","14","F_lash.wav","None","732.850419215","422","130254.961949","137158.979162","137926.226996","124049.48758","124816.762456","125583.8886","126351.219665","127118.414616","131022.204074","131788.874406","132556.121339","133323.240272","134090.12574","134857.384391","135624.573033","136391.766483","137161.669563","Mapping"
"Blocked","Female","tile","14","F_depth.wav","j","0.030948328902","422","130254.961949","137158.979162","137926.226996","138693.412633","124816.762456","125583.8886","126351.219665","127118.414616","131022.204074","131788.874406","132556.121339","133323.240272","134090.12574","134857.384391","135624.573033","136391.766483","137929.037585","Mapping"
"Blocked","Female","tile","14","F_priest.wav","None","732.972109246","422","130254.961949","137158.979162","137926.226996","138693.412633","139460.641838","125583.8886","126351.219665","127118.414616","131022.204074","131788.874406","132556.121339","133323.240272","134090.12574","134857.384391","135624.573033","136391.766483","138695.980744","Mapping"
"Blocked","Female","tile","14","F_reek.wav","None","732.778006134","422","130254.961949","137158.979162","137926.226996","138693.412633","139460.641838","140227.908602","126351.219665","127118.414616","131022.204074","131788.874406","132556.121339","133323.240272","134090.12574","134857.384391","135624.573033","136391.766483","139463.598756","Mapping"
"Blocked","Female","tile","14","F_tile.wav","None","733.349498577","422","130254.961949","137158.979162","137926.226996","138693.412633","139460.641838","140227.908602","140995.127591","127118.414616","131022.204074","131788.874406","132556.121339","133323.240272","134090.12574","134857.384391","135624.573033","136391.766483","140230.651586","Mapping"
"Blocked","Female","tile","14","F_jaw.wav","space","566.731207454","422","130254.961949","137158.979162","137926.226996","138693.412633","139460.641838","140227.908602","140995.127591","141762.338768","131022.204074","131788.874406","132556.121339","133323.240272","134090.12574","134857.384391","135624.573033","136391.766483","140998.148208","Mapping"
"Blocked","Female","tile","15","F_greet.wav","None","733.48951723","422","144898.343453","137158.979162","137926.226996","138693.412633","139460.641838","140227.908602","140995.127591","141762.338768","131022.204074","131788.874406","132556.121339","133323.240272","134090.12574","134857.384391","135624.573033","136391.766483","141765.137939","Mapping"
"Blocked","Female","tile","15","F_dime.wav","None","731.354683474","422","144898.343453","137158.979162","137926.226996","138693.412633","139460.641838","140227.908602","140995.127591","141762.338768","145665.219306","131788.874406","132556.121339","133323.240272","134090.12574","134857.384391","135624.573033","136391.766483","144901.681366","Mapping"
"Blocked","Female","tile","15","F_depth.wav","None","732.721217453","422","144898.343453","137158.979162","137926.226996","138693.412633","139460.641838","140227.908602","140995.127591","141762.338768","145665.219306","146432.365883","132556.121339","133323.240272","134090.12574","134857.384391","135624.573033","136391.766483","145667.927435","Mapping"
"Blocked","Female","tile","15","F_tile.wav","None","733.949535595","422","144898.343453","137158.979162","137926.226996","138693.412633","139460.641838","140227.908602","140995.127591","141762.338768","145665.219306","146432.365883","147199.589078","133323.240272","134090.12574","134857.384391","135624.573033","136391.766483","146435.034951","Mapping"
"Blocked","Female","tile","15","F_reek.wav","space","542.58159542","422","144898.343453","137158.979162","137926.226996","138693.412633","139460.641838","140227.908602","140995.127591","141762.338768","145665.219306","146432.365883","147199.589078","147966.751579","134090.12574","134857.384391","135624.573033","136391.766483","147202.287292","Mapping"
"Blocked","Female","tile","15","F_tile.wav","None","733.839563863","422","144898.343453","137158.979162","137926.226996","138693.412633","139460.641838","140227.908602","140995.127591","141762.338768","145665.219306","146432.365883","147199.589078","147966.751579","148734.126812","134857.384391","135624.573033","136391.766483","147969.933248","Mapping"
"Blocked","Female","tile","15","F_cling.wav","space","601.391833487","422","144898.343453","137158.979162","137926.226996","138693.412633","139460.641838","140227.908602","140995.127591","141762.338768","145665.219306","146432.365883","147199.589078","147966.751579","148734.126812","149501.263774","135624.573033","136391.766483","148737.517007","Mapping"
"Blocked","Female","tile","15","F_tile.wav","None","733.788183628","422","144898.343453","137158.979162","137926.226996","138693.412633","139460.641838","140227.908602","140995.127591","141762.338768","145665.219306","146432.365883","147199.589078","147966.751579","148734.126812","149501.263774","150268.491176","136391.766483","149504.232409","Mapping"
"Blocked","Female","tile","15","F_romp.wav","space","501.059454444","422","144898.343453","137158.979162","137926.226996","138693.412633","139460.641838","140227.908602","140995.127591","141762.338768","145665.219306","146432.365883","147199.589078","147966.751579","148734.126812","149501.263774","150268.491176","151035.635048","150271.808656","Mapping"
"Blocked","Female","tile","15","F_reek.wav","None","733.756033422","422","144898.343453","151802.924647","137926.226996","138693.412633","139460.641838","140227.908602","140995.127591","141762.338768","145665.219306","146432.365883","147199.589078","147966.751579","148734.126812","149501.263774","150268.491176","151035.635048","151038.937805","Mapping"
"Blocked","Female","tile","15","F_knife.wav","None","734.071225626","422","144898.343453","151802.924647","152570.122303","138693.412633","139460.641838","140227.908602","140995.127591","141762.338768","145665.219306","146432.365883","147199.589078","147966.751579","148734.126812","149501.263774","150268.491176","151035.635048","151806.117133","Mapping"
"Blocked","Female","tile","15","F_cling.wav","None","735.073290451","422","144898.343453","151802.924647","152570.122303","153337.399583","139460.641838","140227.908602","140995.127591","141762.338768","145665.219306","146432.365883","147199.589078","147966.751579","148734.126812","149501.263774","150268.491176","151035.635048","152572.757418","Mapping"
"Blocked","Female","tile","15","F_greet.wav","None","735.409515499","422","144898.343453","151802.924647","152570.122303","153337.399583","154104.594535","140227.908602","140995.127591","141762.338768","145665.219306","146432.365883","147199.589078","147966.751579","148734.126812","149501.263774","150268.491176","151035.635048","153340.147975","Mapping"
"Blocked","Female","tile","15","F_tile.wav","None","736.227693166","422","144898.343453","151802.924647","152570.122303","153337.399583","154104.594535","154871.812923","140995.127591","141762.338768","145665.219306","146432.365883","147199.589078","147966.751579","148734.126812","149501.263774","150268.491176","151035.635048","154107.149124","Mapping"
"Blocked","Female","tile","15","F_cad.wav","space","375.475642764","422","144898.343453","151802.924647","152570.122303","153337.399583","154104.594535","154871.812923","155638.990447","141762.338768","145665.219306","146432.365883","147199.589078","147966.751579","148734.126812","149501.263774","150268.491176","151035.635048","154874.439925","Mapping"
"Blocked","Female","tile","15","F_romp.wav","None","736.035993808","422","144898.343453","151802.924647","152570.122303","153337.399583","154104.594535","154871.812923","155638.990447","156406.207333","145665.219306","146432.365883","147199.589078","147966.751579","148734.126812","149501.263774","150268.491176","151035.635048","155641.765281","Mapping"
"Blocked","Female","ball","1","F_gnash.wav","None","736.562716338","422","159542.877257","151802.924647","152570.122303","153337.399583","154104.594535","154871.812923","155638.990447","156406.207333","145665.219306","146432.365883","147199.589078","147966.751579","148734.126812","149501.263774","150268.491176","151035.635048","156409.109265","Mapping"
"Blocked","Female","ball","1","F_bluff.wav","space","0.0216337834718","422","159542.877257","151802.924647","152570.122303","153337.399583","154104.594535","154871.812923","155638.990447","156406.207333","160310.109467","146432.365883","147199.589078","147966.751579","148734.126812","149501.263774","150268.491176","151035.635048","159546.261442","Mapping"
"Blocked","Female","ball","1","F_ball.wav","None","727.819062248","422","159542.877257","151802.924647","152570.122303","153337.399583","154104.594535","154871.812923","155638.990447","156406.207333","160310.109467","161076.458297","147199.589078","147966.751579","148734.126812","149501.263774","150268.491176","151035.635048","160313.917013","Mapping"
"Blocked","Female","ball","1","F_romp.wav","space","350.625937464","422","159542.877257","151802.924647","152570.122303","153337.399583","154104.594535","154871.812923","155638.990447","156406.207333","160310.109467","161076.458297","161843.887615","147966.751579","148734.126812","149501.263774","150268.491176","151035.635048","161079.203684","Mapping"
"Blocked","Female","ball","1","F_ball.wav","None","729.318403619","422","159542.877257","151802.924647","152570.122303","153337.399583","154104.594535","154871.812923","155638.990447","156406.207333","160310.109467","161076.458297","161843.887615","162610.914003","148734.126812","149501.263774","150268.491176","151035.635048","161847.333095","Mapping"
"Blocked","Female","ball","1","F_priest.wav","space","640.96843631","422","159542.877257","151802.924647","152570.122303","153337.399583","154104.594535","154871.812923","155638.990447","156406.207333","160310.109467","161076.458297","161843.887615","162610.914003","163378.186776","149501.263774","150268.491176","151035.635048","162613.951146","Mapping"
"Blocked","Female","ball","1","F_ball.wav","None","730.212299527","422","159542.877257","151802.924647","152570.122303","153337.399583","154104.594535","154871.812923","155638.990447","156406.207333","160310.109467","161076.458297","161843.887615","162610.914003","163378.186776","164145.446329","150268.491176","151035.635048","163381.137685","Mapping"
"Blocked","Female","ball","1","F_romp.wav","space","506.64097054","422","159542.877257","151802.924647","152570.122303","153337.399583","154104.594535","154871.812923","155638.990447","156406.207333","160310.109467","161076.458297","161843.887615","162610.914003","163378.186776","164145.446329","164912.830276","151035.635048","164148.244599","Mapping"
"Blocked","Female","ball","1","F_jaw.wav","None","729.925952367","422","159542.877257","151802.924647","152570.122303","153337.399583","154104.594535","154871.812923","155638.990447","156406.207333","160310.109467","161076.458297","161843.887615","162610.914003","163378.186776","164145.446329","164912.830276","165679.954317","164915.658592","Mapping"
"Blocked","Female","ball","1","F_bluff.wav","None","730.223717357","422","159542.877257","166446.83047","152570.122303","153337.399583","154104.594535","154871.812923","155638.990447","156406.207333","160310.109467","161076.458297","161843.887615","162610.914003","163378.186776","164145.446329","164912.830276","165679.954317","165682.966821","Mapping"
"Blocked","Female","ball","1","F_depth.wav","None","731.605575266","422","159542.877257","166446.83047","167214.042248","153337.399583","154104.594535","154871.812923","155638.990447","156406.207333","160310.109467","161076.458297","161843.887615","162610.914003","163378.186776","164145.446329","164912.830276","165679.954317","166449.563839","Mapping"
"Blocked","Female","ball","1","F_jolt.wav","None","731.24170705","422","159542.877257","166446.83047","167214.042248","167981.306608","154104.594535","154871.812923","155638.990447","156406.207333","160310.109467","161076.458297","161843.887615","162610.914003","163378.186776","164145.446329","164912.830276","165679.954317","167217.262677","Mapping"
"Blocked","Female","ball","1","F_greet.wav","None","731.752805181","422","159542.877257","166446.83047","167214.042248","167981.306608","168748.485635","154871.812923","155638.990447","156406.207333","160310.109467","161076.458297","161843.887615","162610.914003","163378.186776","164145.446329","164912.830276","165679.954317","167984.499394","Mapping"
"Blocked","Female","ball","1","F_depth.wav","None","732.957085785","422","159542.877257","166446.83047","167214.042248","167981.306608","168748.485635","169515.777638","155638.990447","156406.207333","160310.109467","161076.458297","161843.887615","162610.914003","163378.186776","164145.446329","164912.830276","165679.954317","168750.993051","Mapping"
"Blocked","Female","ball","1","F_ball.wav","None","732.502175397","422","159542.877257","166446.83047","167214.042248","167981.306608","168748.485635","169515.777638","170282.980703","156406.207333","160310.109467","161076.458297","161843.887615","162610.914003","163378.186776","164145.446329","164912.830276","165679.954317","169518.770312","Mapping"
"Blocked","Female","ball","1","F_romp.wav","space","505.175582189","422","159542.877257","166446.83047","167214.042248","167981.306608","168748.485635","169515.777638","170282.980703","171050.072894","160310.109467","161076.458297","161843.887615","162610.914003","163378.186776","164145.446329","164912.830276","165679.954317","170285.678015","Mapping"
"Blocked","Female","done","23","F_reek.wav","None","732.780109419","422","174186.871118","166446.83047","167214.042248","167981.306608","168748.485635","169515.777638","170282.980703","171050.072894","160310.109467","161076.458297","161843.887615","162610.914003","163378.186776","164145.446329","164912.830276","165679.954317","171052.904816","Mapping"
"Blocked","Female","done","23","F_bluff.wav","None","728.038104304","422","174186.871118","166446.83047","167214.042248","167981.306608","168748.485635","169515.777638","170282.980703","171050.072894","174953.427572","161076.458297","161843.887615","162610.914003","163378.186776","164145.446329","164912.830276","165679.954317","174191.023002","Mapping"
"Blocked","Female","done","23","F_done.wav","None","730.527191262","422","174186.871118","166446.83047","167214.042248","167981.306608","168748.485635","169515.777638","170282.980703","171050.072894","174953.427572","175720.249942","161843.887615","162610.914003","163378.186776","164145.446329","164912.830276","165679.954317","174956.229448","Mapping"
"Blocked","Female","done","23","F_lash.wav","space","332.844169455","422","174186.871118","166446.83047","167214.042248","167981.306608","168748.485635","169515.777638","170282.980703","171050.072894","174953.427572","175720.249942","176487.479448","162610.914003","163378.186776","164145.446329","164912.830276","165679.954317","175722.99533","Mapping"
"Blocked","Female","done","23","F_lash.wav","None","731.260336141","422","174186.871118","166446.83047","167214.042248","167981.306608","168748.485635","169515.777638","170282.980703","171050.072894","174953.427572","175720.249942","176487.479448","177254.695132","163378.186776","164145.446329","164912.830276","165679.954317","176490.340516","Mapping"
"Blocked","Female","done","23","F_done.wav","None","731.476673974","422","174186.871118","166446.83047","167214.042248","167981.306608","168748.485635","169515.777638","170282.980703","171050.072894","174953.427572","175720.249942","176487.479448","177254.695132","178021.826985","164145.446329","164912.830276","165679.954317","177258.067598","Mapping"
"Blocked","Female","done","23","F_priest.wav","space","455.929579631","422","174186.871118","166446.83047","167214.042248","167981.306608","168748.485635","169515.777638","170282.980703","171050.072894","174953.427572","175720.249942","176487.479448","177254.695132","178021.826985","178789.091646","164912.830276","165679.954317","178024.887865","Mapping"
"Blocked","Female","done","23","F_romp.wav","None","732.215227299","422","174186.871118","166446.83047","167214.042248","167981.306608","168748.485635","169515.777638","170282.980703","171050.072894","174953.427572","175720.249942","176487.479448","177254.695132","178021.826985","178789.091646","179556.37193","165679.954317","178792.295248","Mapping"
"Blocked","Female","done","23","F_bluff.wav","None","732.853123438","422","174186.871118","166446.83047","167214.042248","167981.306608","168748.485635","169515.777638","170282.980703","171050.072894","174953.427572","175720.249942","176487.479448","177254.695132","178021.826985","178789.091646","179556.37193","180323.512197","179559.558707","Mapping"
"Blocked","Female","done","23","F_done.wav","None","733.024991827","422","174186.871118","181090.821627","167214.042248","167981.306608","168748.485635","169515.777638","170282.980703","171050.072894","174953.427572","175720.249942","176487.479448","177254.695132","178021.826985","178789.091646","179556.37193","180323.512197","180326.681846","Mapping"
"Blocked","Female","done","23","F_romp.wav","space","502.151660032","422","174186.871118","181090.821627","181858.02379","167981.306608","168748.485635","169515.777638","170282.980703","171050.072894","174953.427572","175720.249942","176487.479448","177254.695132","178021.826985","178789.091646","179556.37193","180323.512197","181093.693812","Mapping"
"Blocked","Female","done","23","F_done.wav","None","733.532183858","422","174186.871118","181090.821627","181858.02379","182625.220544","168748.485635","169515.777638","170282.980703","171050.072894","174953.427572","175720.249942","176487.479448","177254.695132","178021.826985","178789.091646","179556.37193","180323.512197","181860.971393","Mapping"
"Blocked","Female","done","23","F_knife.wav","space","453.666145052","422","174186.871118","181090.821627","181858.02379","182625.220544","183392.902857","169515.777638","170282.980703","171050.072894","174953.427572","175720.249942","176487.479448","177254.695132","178021.826985","178789.091646","179556.37193","180323.512197","182628.179265","Mapping"
"Blocked","Female","done","23","F_park.wav","None","733.341085439","422","174186.871118","181090.821627","181858.02379","182625.220544","183392.902857","184159.683762","170282.980703","171050.072894","174953.427572","175720.249942","176487.479448","177254.695132","178021.826985","178789.091646","179556.37193","180323.512197","183396.367568","Mapping"
"Blocked","Female","done","23","F_cad.wav","None","737.231260336","422","174186.871118","181090.821627","181858.02379","182625.220544","183392.902857","184159.683762","184927.29877","171050.072894","174953.427572","175720.249942","176487.479448","177254.695132","178021.826985","178789.091646","179556.37193","180323.512197","184163.054426","Mapping"
"Blocked","Female","done","23","F_jolt.wav","None","737.545250664","422","174186.871118","181090.821627","181858.02379","182625.220544","183392.902857","184159.683762","184927.29877","185694.583562","174953.427572","175720.249942","176487.479448","177254.695132","178021.826985","178789.091646","179556.37193","180323.512197","184930.626166","Mapping"
"Blocked","Female","ball","5","F_park.wav","None","738.152198473","422","188830.616491","181090.821627","181858.02379","182625.220544","183392.902857","184159.683762","184927.29877","185694.583562","174953.427572","175720.249942","176487.479448","177254.695132","178021.826985","178789.091646","179556.37193","180323.512197","185697.869793","Mapping"
"Blocked","Female","ball","5","F_lash.wav","space","0.0213333137217","422","188830.616491","181090.821627","181858.02379","182625.220544","183392.902857","184159.683762","184927.29877","185694.583562","189597.327086","175720.249942","176487.479448","177254.695132","178021.826985","178789.091646","179556.37193","180323.512197","188834.231736","Mapping"
"Blocked","Female","ball","5","F_depth.wav","None","728.861389946","422","188830.616491","181090.821627","181858.02379","182625.220544","183392.902857","184159.683762","184927.29877","185694.583562","189597.327086","190364.461944","176487.479448","177254.695132","178021.826985","178789.091646","179556.37193","180323.512197","189600.330576","Mapping"
"Blocked","Female","ball","5","F_bluff.wav","None","729.748675531","422","188830.616491","181090.821627","181858.02379","182625.220544","183392.902857","184159.683762","184927.29877","185694.583562","189597.327086","190364.461944","191131.60221","177254.695132","178021.826985","178789.091646","179556.37193","180323.512197","190367.223857","Mapping"
"Blocked","Female","ball","5","F_ball.wav","None","730.264280701","422","188830.616491","181090.821627","181858.02379","182625.220544","183392.902857","184159.683762","184927.29877","185694.583562","189597.327086","190364.461944","191131.60221","191898.605162","178021.826985","178789.091646","179556.37193","180323.512197","191134.731597","Mapping"
"Blocked","Female","ball","5","F_cling.wav","space","384.137869697","422","188830.616491","181090.821627","181858.02379","182625.220544","183392.902857","184159.683762","184927.29877","185694.583562","189597.327086","190364.461944","191131.60221","191898.605162","192665.786592","178789.091646","179556.37193","180323.512197","191901.688276","Mapping"
"Blocked","Female","ball","5","F_jolt.wav","None","731.389537902","422","188830.616491","181090.821627","181858.02379","182625.220544","183392.902857","184159.683762","184927.29877","185694.583562","189597.327086","190364.461944","191131.60221","191898.605162","192665.786592","193433.035328","179556.37193","180323.512197","192668.374834","Mapping"
"Blocked","Female","ball","5","F_priest.wav","None","731.534965001","422","188830.616491","181090.821627","181858.02379","182625.220544","183392.902857","184159.683762","184927.29877","185694.583562","189597.327086","190364.461944","191131.60221","191898.605162","192665.786592","193433.035328","194200.254618","180323.512197","193435.806856","Mapping"
"Blocked","Female","ball","5","F_cad.wav","None","731.68790383","422","188830.616491","181090.821627","181858.02379","182625.220544","183392.902857","184159.683762","184927.29877","185694.583562","189597.327086","190364.461944","191131.60221","191898.605162","192665.786592","193433.035328","194200.254618","194967.506658","194203.52192","Mapping"
"Blocked","Female","ball","5","F_ball.wav","None","732.305067594","422","188830.616491","195734.757798","181858.02379","182625.220544","183392.902857","184159.683762","184927.29877","185694.583562","189597.327086","190364.461944","191131.60221","191898.605162","192665.786592","193433.035328","194200.254618","194967.506658","194970.648064","Mapping"
"Blocked","Female","ball","5","F_romp.wav","space","323.175370659","422","188830.616491","195734.757798","196501.937425","182625.220544","183392.902857","184159.683762","184927.29877","185694.583562","189597.327086","190364.461944","191131.60221","191898.605162","192665.786592","193433.035328","194200.254618","194967.506658","195737.635692","Mapping"
"Blocked","Female","ball","5","F_ball.wav","None","732.768691589","422","188830.616491","195734.757798","196501.937425","197269.167832","183392.902857","184159.683762","184927.29877","185694.583562","189597.327086","190364.461944","191131.60221","191898.605162","192665.786592","193433.035328","194200.254618","194967.506658","196504.737198","Mapping"
"Blocked","Female","ball","5","F_knife.wav","space","567.563206703","422","188830.616491","195734.757798","196501.937425","197269.167832","198036.35377","184159.683762","184927.29877","185694.583562","189597.327086","190364.461944","191131.60221","191898.605162","192665.786592","193433.035328","194200.254618","194967.506658","197272.288806","Mapping"
"Blocked","Female","ball","5","F_park.wav","None","733.428221511","422","188830.616491","195734.757798","196501.937425","197269.167832","198036.35377","198803.588083","184927.29877","185694.583562","189597.327086","190364.461944","191131.60221","191898.605162","192665.786592","193433.035328","194200.254618","194967.506658","198038.92188","Mapping"
"Blocked","Female","ball","5","F_ball.wav","None","733.772859698","422","188830.616491","195734.757798","196501.937425","197269.167832","198036.35377","198803.588083","199570.748781","185694.583562","189597.327086","190364.461944","191131.60221","191898.605162","192665.786592","193433.035328","194200.254618","194967.506658","198806.312137","Mapping"
"Blocked","Female","ball","5","F_dime.wav","space","393.472546729","422","188830.616491","195734.757798","196501.937425","197269.167832","198036.35377","198803.588083","199570.748781","200338.030869","189597.327086","190364.461944","191131.60221","191898.605162","192665.786592","193433.035328","194200.254618","194967.506658","199573.382394","Mapping"
"Blocked","Female","cave","7","F_reek.wav","None","733.56974251","422","203474.695985","195734.757798","196501.937425","197269.167832","198036.35377","198803.588083","199570.748781","200338.030869","189597.327086","190364.461944","191131.60221","191898.605162","192665.786592","193433.035328","194200.254618","194967.506658","200341.111279","Mapping"
"Blocked","Female","cave","7","F_gnash.wav","None","729.59663811","422","203474.695985","195734.757798","196501.937425","197269.167832","198036.35377","198803.588083","199570.748781","200338.030869","204241.331463","190364.461944","191131.60221","191898.605162","192665.786592","193433.035328","194200.254618","194967.506658","203477.980114","Mapping"
"Blocked","Female","cave","7","F_cave.wav","None","731.043397369","422","203474.695985","195734.757798","196501.937425","197269.167832","198036.35377","198803.588083","199570.748781","200338.030869","204241.331463","205008.506283","191131.60221","191898.605162","192665.786592","193433.035328","194200.254618","194967.506658","204244.567817","Mapping"
"Blocked","Female","cave","7","F_reek.wav","space","433.192473367","422","203474.695985","195734.757798","196501.937425","197269.167832","198036.35377","198803.588083","199570.748781","200338.030869","204241.331463","205008.506283","205775.731582","191898.605162","192665.786592","193433.035328","194200.254618","194967.506658","205011.613736","Mapping"
"Blocked","Female","cave","7","F_priest.wav","None","731.460148167","422","203474.695985","195734.757798","196501.937425","197269.167832","198036.35377","198803.588083","199570.748781","200338.030869","204241.331463","205008.506283","205775.731582","206542.48184","192665.786592","193433.035328","194200.254618","194967.506658","205778.979054","Mapping"
"Blocked","Female","cave","7","F_cave.wav","None","732.914719626","422","203474.695985","195734.757798","196501.937425","197269.167832","198036.35377","198803.588083","199570.748781","200338.030869","204241.331463","205008.506283","205775.731582","206542.48184","207310.246781","193433.035328","194200.254618","194967.506658","206545.398494","Mapping"
"Blocked","Female","cave","7","F_bluff.wav","space","348.449338487","422","203474.695985","195734.757798","196501.937425","197269.167832","198036.35377","198803.588083","199570.748781","200338.030869","204241.331463","205008.506283","205775.731582","206542.48184","207310.246781","208077.164099","194200.254618","194967.506658","207313.368056","Mapping"
"Blocked","Female","cave","7","F_cave.wav","None","732.231753106","422","203474.695985","195734.757798","196501.937425","197269.167832","198036.35377","198803.588083","199570.748781","200338.030869","204241.331463","205008.506283","205775.731582","206542.48184","207310.246781","208077.164099","208844.271314","194967.506658","208080.364397","Mapping"
"Blocked","Female","cave","7","F_jolt.wav","space","400.848464963","422","203474.695985","195734.757798","196501.937425","197269.167832","198036.35377","198803.588083","199570.748781","200338.030869","204241.331463","205008.506283","205775.731582","206542.48184","207310.246781","208077.164099","208844.271314","209611.43712","208846.976438","Mapping"
"Blocked","Female","cave","7","F_knife.wav","None","732.816165724","422","203474.695985","210378.608034","196501.937425","197269.167832","198036.35377","198803.588083","199570.748781","200338.030869","204241.331463","205008.506283","205775.731582","206542.48184","207310.246781","208077.164099","208844.271314","209611.43712","209614.229982","Mapping"
"Blocked","Female","cave","7","F_cave.wav","None","733.468183916","422","203474.695985","210378.608034","211146.105859","197269.167832","198036.35377","198803.588083","199570.748781","200338.030869","204241.331463","205008.506283","205775.731582","206542.48184","207310.246781","208077.164099","208844.271314","209611.43712","210381.330886","Mapping"
"Blocked","Female","cave","7","F_jolt.wav","space","402.678622937","422","203474.695985","210378.608034","211146.105859","211913.466369","198036.35377","198803.588083","199570.748781","200338.030869","204241.331463","205008.506283","205775.731582","206542.48184","207310.246781","208077.164099","208844.271314","209611.43712","211149.1421","Mapping"
"Blocked","Female","cave","7","F_priest.wav","None","733.021686666","422","203474.695985","210378.608034","211146.105859","211913.466369","212680.354241","198803.588083","199570.748781","200338.030869","204241.331463","205008.506283","205775.731582","206542.48184","207310.246781","208077.164099","208844.271314","209611.43712","211916.695512","Mapping"
"Blocked","Female","cave","7","F_knife.wav","None","734.65383543","422","203474.695985","210378.608034","211146.105859","211913.466369","212680.354241","213447.557606","199570.748781","200338.030869","204241.331463","205008.506283","205775.731582","206542.48184","207310.246781","208077.164099","208844.271314","209611.43712","212683.047948","Mapping"
"Blocked","Female","cave","7","F_priest.wav","None","735.707881428","422","203474.695985","210378.608034","211146.105859","211913.466369","212680.354241","213447.557606","214214.817158","200338.030869","204241.331463","205008.506283","205775.731582","206542.48184","207310.246781","208077.164099","208844.271314","209611.43712","213450.232683","Mapping"
"Blocked","Female","cave","7","F_park.wav","None","736.387542787","422","203474.695985","210378.608034","211146.105859","211913.466369","212680.354241","213447.557606","214214.817158","214982.023828","204241.331463","205008.506283","205775.731582","206542.48184","207310.246781","208077.164099","208844.271314","209611.43712","214217.684536","Mapping"
"Blocked","Female","done","21","F_reek.wav","None","736.838547075","422","218118.667311","210378.608034","211146.105859","211913.466369","212680.354241","213447.557606","214214.817158","214982.023828","204241.331463","205008.506283","205775.731582","206542.48184","207310.246781","208077.164099","208844.271314","209611.43712","214984.985553","Mapping"
"Blocked","Female","done","21","F_reek.wav","None","727.850611515","422","218118.667311","210378.608034","211146.105859","211913.466369","212680.354241","213447.557606","214214.817158","214982.023828","218885.689793","205008.506283","205775.731582","206542.48184","207310.246781","208077.164099","208844.271314","209611.43712","218122.228172","Mapping"
"Blocked","Female","done","21","F_done.wav","None","728.868300739","422","218118.667311","210378.608034","211146.105859","211913.466369","212680.354241","213447.557606","214214.817158","214982.023828","218885.689793","219652.354116","205775.731582","206542.48184","207310.246781","208077.164099","208844.271314","209611.43712","218889.068569","Mapping"
"Blocked","Female","done","21","F_jolt.wav","space","662.728717165","422","218118.667311","210378.608034","211146.105859","211913.466369","212680.354241","213447.557606","214214.817158","214982.023828","218885.689793","219652.354116","220419.512411","206542.48184","207310.246781","208077.164099","208844.271314","209611.43712","219655.110621","Mapping"
"Blocked","Female","done","21","F_jolt.wav","None","729.60414984","422","218118.667311","210378.608034","211146.105859","211913.466369","212680.354241","213447.557606","214214.817158","214982.023828","218885.689793","219652.354116","220419.512411","221186.777672","207310.246781","208077.164099","208844.271314","209611.43712","220422.364765","Mapping"
"Blocked","Female","done","21","F_done.wav","None","729.61556767","422","218118.667311","210378.608034","211146.105859","211913.466369","212680.354241","213447.557606","214214.817158","214982.023828","218885.689793","219652.354116","220419.512411","221186.777672","221953.674558","208077.164099","208844.271314","209611.43712","221189.93951","Mapping"
"Blocked","Female","done","21","F_dime.wav","space","613.317156071","422","218118.667311","210378.608034","211146.105859","211913.466369","212680.354241","213447.557606","214214.817158","214982.023828","218885.689793","219652.354116","220419.512411","221186.777672","221953.674558","222721.307594","208844.271314","209611.43712","221956.489654","Mapping"
"Blocked","Female","done","21","F_lash.wav","None","730.458083343","422","218118.667311","210378.608034","211146.105859","211913.466369","212680.354241","213447.557606","214214.817158","214982.023828","218885.689793","219652.354116","220419.512411","221186.777672","221953.674558","222721.307594","223488.175034","209611.43712","222724.133807","Mapping"
"Blocked","Female","done","21","F_done.wav","None","731.239904234","422","218118.667311","210378.608034","211146.105859","211913.466369","212680.354241","213447.557606","214214.817158","214982.023828","218885.689793","219652.354116","220419.512411","221186.777672","221953.674558","222721.307594","223488.175034","224255.299976","223491.158092","Mapping"
"Blocked","Female","done","21","F_knife.wav","None","732.667733933","422","218118.667311","225022.571247","211146.105859","211913.466369","212680.354241","213447.557606","214214.817158","214982.023828","218885.689793","219652.354116","220419.512411","221186.777672","221953.674558","222721.307594","223488.175034","224255.299976","224257.930584","Mapping"
"Blocked","Female","done","21","F_jolt.wav","None","732.879865197","422","218118.667311","225022.571247","225789.740659","211913.466369","212680.354241","213447.557606","214214.817158","214982.023828","218885.689793","219652.354116","220419.512411","221186.777672","221953.674558","222721.307594","223488.175034","224255.299976","225025.389348","Mapping"
"Blocked","Female","done","21","F_cling.wav","None","733.997911138","422","218118.667311","225022.571247","225789.740659","226557.010127","212680.354241","213447.557606","214214.817158","214982.023828","218885.689793","219652.354116","220419.512411","221186.777672","221953.674558","222721.307594","223488.175034","224255.299976","225792.285333","Mapping"
"Blocked","Female","done","21","F_romp.wav","None","734.159263105","422","218118.667311","225022.571247","225789.740659","226557.010127","227324.170525","213447.557606","214214.817158","214982.023828","218885.689793","219652.354116","220419.512411","221186.777672","221953.674558","222721.307594","223488.175034","224255.299976","226560.101054","Mapping"
"Blocked","Female","done","21","F_done.wav","None","734.966924349","422","218118.667311","225022.571247","225789.740659","226557.010127","227324.170525","228091.441796","214214.817158","214982.023828","218885.689793","219652.354116","220419.512411","221186.777672","221953.674558","222721.307594","223488.175034","224255.299976","227327.000644","Mapping"
"Blocked","Female","done","21","F_bluff.wav","space","381.812838929","422","218118.667311","225022.571247","225789.740659","226557.010127","227324.170525","228091.441796","228858.624428","214982.023828","218885.689793","219652.354116","220419.512411","221186.777672","221953.674558","222721.307594","223488.175034","224255.299976","228093.989474","Mapping"
"Blocked","Female","done","21","F_cad.wav","None","736.086172166","422","218118.667311","225022.571247","225789.740659","226557.010127","227324.170525","228091.441796","228858.624428","229625.869257","218885.689793","219652.354116","220419.512411","221186.777672","221953.674558","222721.307594","223488.175034","224255.299976","228861.058229","Mapping"
"Blocked","Female","ball","4","F_knife.wav","None","736.647148186","422","232762.490205","225022.571247","225789.740659","226557.010127","227324.170525","228091.441796","228858.624428","229625.869257","218885.689793","219652.354116","220419.512411","221186.777672","221953.674558","222721.307594","223488.175034","224255.299976","229628.742344","Mapping"
"Blocked","Female","ball","4","F_ball.wav","None","729.221953002","422","232762.490205","225022.571247","225789.740659","226557.010127","227324.170525","228091.441796","228858.624428","229625.869257","233528.696012","219652.354116","220419.512411","221186.777672","221953.674558","222721.307594","223488.175034","224255.299976","232765.876793","Mapping"
"Blocked","Female","ball","4","F_jolt.wav","space","356.990776797","422","232762.490205","225022.571247","225789.740659","226557.010127","227324.170525","228091.441796","228858.624428","229625.869257","233528.696012","234295.941442","220419.512411","221186.777672","221953.674558","222721.307594","223488.175034","224255.299976","233531.771915","Mapping"
"Blocked","Female","ball","4","F_gnash.wav","None","731.332148282","422","232762.490205","225022.571247","225789.740659","226557.010127","227324.170525","228091.441796","228858.624428","229625.869257","233528.696012","234295.941442","235063.177558","221186.777672","221953.674558","222721.307594","223488.175034","224255.299976","234298.900162","Mapping"
"Blocked","Female","ball","4","F_romp.wav","None","732.686363025","422","232762.490205","225022.571247","225789.740659","226557.010127","227324.170525","228091.441796","228858.624428","229625.869257","233528.696012","234295.941442","235063.177558","235830.301899","221953.674558","222721.307594","223488.175034","224255.299976","235065.79795","Mapping"
"Blocked","Female","ball","4","F_dime.wav","None","733.530981981","422","232762.490205","225022.571247","225789.740659","226557.010127","227324.170525","228091.441796","228858.624428","229625.869257","233528.696012","234295.941442","235063.177558","235830.301899","236597.627856","222721.307594","223488.175034","224255.299976","235832.821033","Mapping"
"Blocked","Female","ball","4","F_ball.wav","None","733.856991077","422","232762.490205","225022.571247","225789.740659","226557.010127","227324.170525","228091.441796","228858.624428","229625.869257","233528.696012","234295.941442","235063.177558","235830.301899","236597.627856","237364.822807","223488.175034","224255.299976","236600.681825","Mapping"
"Blocked","Female","ball","4","F_cad.wav","space","485.211506289","422","232762.490205","225022.571247","225789.740659","226557.010127","227324.170525","228091.441796","228858.624428","229625.869257","233528.696012","234295.941442","235063.177558","235830.301899","236597.627856","237364.822807","238132.100688","224255.299976","237367.577509","Mapping"
"Blocked","Female","ball","4","F_jaw.wav","None","734.184802988","422","232762.490205","225022.571247","225789.740659","226557.010127","227324.170525","228091.441796","228858.624428","229625.869257","233528.696012","234295.941442","235063.177558","235830.301899","236597.627856","237364.822807","238132.100688","238899.279114","238134.853287","Mapping"
"Blocked","Female","ball","4","F_romp.wav","None","734.675769682","422","232762.490205","239666.461747","225789.740659","226557.010127","227324.170525","228091.441796","228858.624428","229625.869257","233528.696012","234295.941442","235063.177558","235830.301899","236597.627856","237364.822807","238132.100688","238899.279114","238902.160914","Mapping"
"Blocked","Female","ball","4","F_ball.wav","None","735.926623015","422","232762.490205","239666.461747","240433.711083","226557.010127","227324.170525","228091.441796","228858.624428","229625.869257","233528.696012","234295.941442","235063.177558","235830.301899","236597.627856","237364.822807","238132.100688","238899.279114","239669.177087","Mapping"
"Blocked","Female","ball","4","F_knife.wav","space","377.294983847","422","232762.490205","239666.461747","240433.711083","241200.920457","227324.170525","228091.441796","228858.624428","229625.869257","233528.696012","234295.941442","235063.177558","235830.301899","236597.627856","237364.822807","238132.100688","238899.279114","240436.489222","Mapping"
"Blocked","Female","ball","4","F_jolt.wav","None","736.11141158","422","232762.490205","239666.461747","240433.711083","241200.920457","241968.201644","228091.441796","228858.624428","229625.869257","233528.696012","234295.941442","235063.177558","235830.301899","236597.627856","237364.822807","238132.100688","238899.279114","241204.25837","Mapping"
"Blocked","Female","ball","4","F_reek.wav","None","737.392011365","422","232762.490205","239666.461747","240433.711083","241200.920457","241968.201644","242735.323581","228858.624428","229625.869257","233528.696012","234295.941442","235063.177558","235830.301899","236597.627856","237364.822807","238132.100688","238899.279114","241970.884233","Mapping"
"Blocked","Female","ball","4","F_ball.wav","None","738.314151379","422","232762.490205","239666.461747","240433.711083","241200.920457","241968.201644","242735.323581","243502.8818","229625.869257","233528.696012","234295.941442","235063.177558","235830.301899","236597.627856","237364.822807","238132.100688","238899.279114","242738.164217","Mapping"
"Blocked","Female","ball","4","F_cling.wav","space","463.882999692","422","232762.490205","239666.461747","240433.711083","241200.920457","241968.201644","242735.323581","243502.8818","244270.168094","233528.696012","234295.941442","235063.177558","235830.301899","236597.627856","237364.822807","238132.100688","238899.279114","243505.892201","Mapping"
"Blocked","Female","cave","11","F_greet.wav","None","737.329814238","422","247406.331728","239666.461747","240433.711083","241200.920457","241968.201644","242735.323581","243502.8818","244270.168094","233528.696012","234295.941442","235063.177558","235830.301899","236597.627856","237364.822807","238132.100688","238899.279114","244273.574213","Mapping"
"Blocked","Female","cave","11","F_priest.wav","None","728.983981385","422","247406.331728","239666.461747","240433.711083","241200.920457","241968.201644","242735.323581","243502.8818","244270.168094","248172.681159","234295.941442","235063.177558","235830.301899","236597.627856","237364.822807","238132.100688","238899.279114","247409.928945","Mapping"
"Blocked","Female","cave","11","F_knife.wav","None","731.786758201","422","247406.331728","239666.461747","240433.711083","241200.920457","241968.201644","242735.323581","243502.8818","244270.168094","248172.681159","248939.912167","235063.177558","235830.301899","236597.627856","237364.822807","238132.100688","238899.279114","248175.561156","Mapping"
"Blocked","Female","cave","11","F_cave.wav","None","733.403883504","422","247406.331728","239666.461747","240433.711083","241200.920457","241968.201644","242735.323581","243502.8818","244270.168094","248172.681159","248939.912167","249707.0954","235830.301899","236597.627856","237364.822807","238132.100688","238899.279114","248942.460747","Mapping"
"Blocked","Female","cave","11","F_gnash.wav","space","339.724313488","422","247406.331728","239666.461747","240433.711083","241200.920457","241968.201644","242735.323581","243502.8818","244270.168094","248172.681159","248939.912167","249707.0954","250474.346239","236597.627856","237364.822807","238132.100688","238899.279114","249710.056524","Mapping"
"Blocked","Female","cave","11","F_cave.wav","space","2.55188502342","422","247406.331728","239666.461747","240433.711083","241200.920457","241968.201644","242735.323581","243502.8818","244270.168094","248172.681159","248939.912167","249707.0954","250474.346239","251241.543895","237364.822807","238132.100688","238899.279114","250477.24156","Mapping"
"Blocked","Female","cave","11","F_lash.wav","space","341.490771989","422","247406.331728","239666.461747","240433.711083","241200.920457","241968.201644","242735.323581","243502.8818","244270.168094","248172.681159","248939.912167","249707.0954","250474.346239","251241.543895","252008.716011","238132.100688","238899.279114","251244.260137","Mapping"
"Blocked","Female","cave","11","F_greet.wav","None","732.914118688","422","247406.331728","239666.461747","240433.711083","241200.920457","241968.201644","242735.323581","243502.8818","244270.168094","248172.681159","248939.912167","249707.0954","250474.346239","251241.543895","252008.716011","252776.01793","238899.279114","252011.622149","Mapping"
"Blocked","Female","cave","11","F_cave.wav","None","733.801103804","422","247406.331728","239666.461747","240433.711083","241200.920457","241968.201644","242735.323581","243502.8818","244270.168094","248172.681159","248939.912167","249707.0954","250474.346239","251241.543895","252008.716011","252776.01793","253543.540393","252778.908443","Mapping"
"Blocked","Female","cave","11","F_greet.wav","space","372.16807767","422","247406.331728","254310.801448","240433.711083","241200.920457","241968.201644","242735.323581","243502.8818","244270.168094","248172.681159","248939.912167","249707.0954","250474.346239","251241.543895","252008.716011","252776.01793","253543.540393","253546.610287","Mapping"
"Blocked","Female","cave","11","F_bluff.wav","None","733.967263278","422","247406.331728","254310.801448","255077.677902","241200.920457","241968.201644","242735.323581","243502.8818","244270.168094","248172.681159","248939.912167","249707.0954","250474.346239","251241.543895","252008.716011","252776.01793","253543.540393","254314.390552","Mapping"
"Blocked","Female","cave","11","F_jolt.wav","None","735.489139841","422","247406.331728","254310.801448","255077.677902","255844.917924","241968.201644","242735.323581","243502.8818","244270.168094","248172.681159","248939.912167","249707.0954","250474.346239","251241.543895","252008.716011","252776.01793","253543.540393","255080.823814","Mapping"
"Blocked","Female","cave","11","F_jolt.wav","None","736.976161974","422","247406.331728","254310.801448","255077.677902","255844.917924","256612.113476","242735.323581","243502.8818","244270.168094","248172.681159","248939.912167","249707.0954","250474.346239","251241.543895","252008.716011","252776.01793","253543.540393","255847.751349","Mapping"
"Blocked","Female","cave","11","F_cave.wav","None","738.394076189","422","247406.331728","254310.801448","255077.677902","255844.917924","256612.113476","257379.317743","243502.8818","244270.168094","248172.681159","248939.912167","249707.0954","250474.346239","251241.543895","252008.716011","252776.01793","253543.540393","256614.711934","Mapping"
"Blocked","Female","cave","11","F_cling.wav","space","331.343926676","422","247406.331728","254310.801448","255077.677902","255844.917924","256612.113476","257379.317743","258146.570985","244270.168094","248172.681159","248939.912167","249707.0954","250474.346239","251241.543895","252008.716011","252776.01793","253543.540393","257382.416181","Mapping"
"Blocked","Female","cave","11","F_cad.wav","None","738.978188339","422","247406.331728","254310.801448","255077.677902","255844.917924","256612.113476","257379.317743","258146.570985","258913.771345","248172.681159","248939.912167","249707.0954","250474.346239","251241.543895","252008.716011","252776.01793","253543.540393","258149.058269","Mapping"
"Blocked","Female","cave","12","F_park.wav","None","739.350469693","422","262050.139298","254310.801448","255077.677902","255844.917924","256612.113476","257379.317743","258146.570985","258913.771345","248172.681159","248939.912167","249707.0954","250474.346239","251241.543895","252008.716011","252776.01793","253543.540393","258916.630009","Mapping"
"Blocked","Female","cave","12","F_romp.wav","None","729.182291066","422","262050.139298","254310.801448","255077.677902","255844.917924","256612.113476","257379.317743","258146.570985","258913.771345","262816.619132","248939.912167","249707.0954","250474.346239","251241.543895","252008.716011","252776.01793","253543.540393","262053.774074","Mapping"
"Blocked","Female","cave","12","F_knife.wav","None","731.92467357","422","262050.139298","254310.801448","255077.677902","255844.917924","256612.113476","257379.317743","258146.570985","258913.771345","262816.619132","263583.77923","249707.0954","250474.346239","251241.543895","252008.716011","252776.01793","253543.540393","262819.393966","Mapping"
"Blocked","Female","cave","12","F_cave.wav","space","637.89613861","422","262050.139298","254310.801448","255077.677902","255844.917924","256612.113476","257379.317743","258146.570985","258913.771345","262816.619132","263583.77923","264351.052303","250474.346239","251241.543895","252008.716011","252776.01793","253543.540393","263586.880673","Mapping"
"Blocked","Female","cave","12","F_romp.wav","None","733.082381447","422","262050.139298","254310.801448","255077.677902","255844.917924","256612.113476","257379.317743","258146.570985","258913.771345","262816.619132","263583.77923","264351.052303","265118.167631","251241.543895","252008.716011","252776.01793","253543.540393","264353.831944","Mapping"
"Blocked","Female","cave","12","F_knife.wav","None","734.391225337","422","262050.139298","254310.801448","255077.677902","255844.917924","256612.113476","257379.317743","258146.570985","258913.771345","262816.619132","263583.77923","264351.052303","265118.167631","265885.434094","252008.716011","252776.01793","253543.540393","265120.775403","Mapping"
"Blocked","Female","cave","12","F_priest.wav","None","735.582585766","422","262050.139298","254310.801448","255077.677902","255844.917924","256612.113476","257379.317743","258146.570985","258913.771345","262816.619132","263583.77923","264351.052303","265118.167631","265885.434094","266652.665102","252776.01793","253543.540393","265888.088739","Mapping"
"Blocked","Female","cave","12","F_cave.wav","None","735.990923426","422","262050.139298","254310.801448","255077.677902","255844.917924","256612.113476","257379.317743","258146.570985","258913.771345","262816.619132","263583.77923","264351.052303","265118.167631","265885.434094","266652.665102","267419.931866","253543.540393","266655.953737","Mapping"
"Blocked","Female","cave","12","F_bluff.wav","space","510.718037287","422","262050.139298","254310.801448","255077.677902","255844.917924","256612.113476","257379.317743","258146.570985","258913.771345","262816.619132","263583.77923","264351.052303","265118.167631","265885.434094","266652.665102","267419.931866","268187.528845","267423.034511","Mapping"
"Blocked","Female","cave","12","F_cave.wav","None","736.303711877","422","262050.139298","268954.729205","255077.677902","255844.917924","256612.113476","257379.317743","258146.570985","258913.771345","262816.619132","263583.77923","264351.052303","265118.167631","265885.434094","266652.665102","267419.931866","268187.528845","268190.729744","Mapping"
"Blocked","Female","cave","12","F_priest.wav","None","737.444593477","422","262050.139298","268954.729205","269721.616176","255844.917924","256612.113476","257379.317743","258146.570985","258913.771345","262816.619132","263583.77923","264351.052303","265118.167631","265885.434094","266652.665102","267419.931866","268187.528845","268957.979982","Mapping"
"Blocked","Female","cave","12","F_depth.wav","space","105.272693839","422","262050.139298","268954.729205","269721.616176","270488.843879","256612.113476","257379.317743","258146.570985","258913.771345","262816.619132","263583.77923","264351.052303","265118.167631","265885.434094","266652.665102","267419.931866","268187.528845","269724.515704","Mapping"
"Blocked","Female","cave","12","F_reek.wav","None","738.99681743","422","262050.139298","268954.729205","269721.616176","270488.843879","271255.979337","257379.317743","258146.570985","258913.771345","262816.619132","263583.77923","264351.052303","265118.167631","265885.434094","266652.665102","267419.931866","268187.528845","270491.43813","Mapping"
"Blocked","Female","cave","12","F_reek.wav","None","740.30235616","422","262050.139298","268954.729205","269721.616176","270488.843879","271255.979337","272023.277049","258146.570985","258913.771345","262816.619132","263583.77923","264351.052303","265118.167631","265885.434094","266652.665102","267419.931866","268187.528845","271258.506584","Mapping"
"Blocked","Female","cave","12","F_cave.wav","None","740.790017692","422","262050.139298","268954.729205","269721.616176","270488.843879","271255.979337","272023.277049","272790.50986","258913.771345","262816.619132","263583.77923","264351.052303","265118.167631","265885.434094","266652.665102","267419.931866","268187.528845","272026.089742","Mapping"
"Blocked","Female","cave","12","F_cad.wav","space","595.185942368","422","262050.139298","268954.729205","269721.616176","270488.843879","271255.979337","272023.277049","272790.50986","273557.720136","262816.619132","263583.77923","264351.052303","265118.167631","265885.434094","266652.665102","267419.931866","268187.528845","272793.559322","Mapping"
"Blocked","Female","cave","8","F_jolt.wav","None","741.816720992","422","276694.290003","268954.729205","269721.616176","270488.843879","271255.979337","272023.277049","272790.50986","273557.720136","262816.619132","263583.77923","264351.052303","265118.167631","265885.434094","266652.665102","267419.931866","268187.528845","273560.477241","Mapping"
"Blocked","Female","cave","8","F_depth.wav","None","728.007155974","422","276694.290003","268954.729205","269721.616176","270488.843879","271255.979337","272023.277049","272790.50986","273557.720136","277461.542645","263583.77923","264351.052303","265118.167631","265885.434094","266652.665102","267419.931866","268187.528845","276697.67539","Mapping"
"Blocked","Female","cave","8","F_jolt.wav","None","729.346647725","422","276694.290003","268954.729205","269721.616176","270488.843879","271255.979337","272023.277049","272790.50986","273557.720136","277461.542645","278227.756565","264351.052303","265118.167631","265885.434094","266652.665102","267419.931866","268187.528845","277464.941252","Mapping"
"Blocked","Female","cave","8","F_cave.wav","None","732.652109534","422","276694.290003","268954.729205","269721.616176","270488.843879","271255.979337","272023.277049","272790.50986","273557.720136","277461.542645","278227.756565","278995.224042","265118.167631","265885.434094","266652.665102","267419.931866","268187.528845","278230.45568","Mapping"
"Blocked","Female","cave","8","F_priest.wav","space","499.509033306","422","276694.290003","268954.729205","269721.616176","270488.843879","271255.979337","272023.277049","272790.50986","273557.720136","277461.542645","278227.756565","278995.224042","279762.502223","265885.434094","266652.665102","267419.931866","268187.528845","278998.220321","Mapping"
"Blocked","Female","cave","8","F_bluff.wav","None","732.337818737","422","276694.290003","268954.729205","269721.616176","270488.843879","271255.979337","272023.277049","272790.50986","273557.720136","277461.542645","278227.756565","278995.224042","279762.502223","280529.387692","266652.665102","267419.931866","268187.528845","279765.49039","Mapping"
"Blocked","Female","cave","8","F_greet.wav","None","734.27945079","422","276694.290003","268954.729205","269721.616176","270488.843879","271255.979337","272023.277049","272790.50986","273557.720136","277461.542645","278227.756565","278995.224042","279762.502223","280529.387692","281296.66347","267419.931866","268187.528845","280532.306149","Mapping"
"Blocked","Female","cave","8","F_park.wav","None","735.675430753","422","276694.290003","268954.729205","269721.616176","270488.843879","271255.979337","272023.277049","272790.50986","273557.720136","277461.542645","278227.756565","278995.224042","279762.502223","280529.387692","281296.66347","282064.233707","268187.528845","281299.618584","Mapping"
"Blocked","Female","cave","8","F_jaw.wav","None","735.792613746","422","276694.290003","268954.729205","269721.616176","270488.843879","271255.979337","272023.277049","272790.50986","273557.720136","277461.542645","278227.756565","278995.224042","279762.502223","280529.387692","281296.66347","282064.233707","282831.539232","282067.502512","Mapping"
"Blocked","Female","cave","8","F_cave.wav","None","737.187091362","422","276694.290003","283598.294296","269721.616176","270488.843879","271255.979337","272023.277049","272790.50986","273557.720136","277461.542645","278227.756565","278995.224042","279762.502223","280529.387692","281296.66347","282064.233707","282831.539232","282834.68905","Mapping"
"Blocked","Female","cave","8","F_depth.wav","space","519.648883697","422","276694.290003","283598.294296","284365.470919","270488.843879","271255.979337","272023.277049","272790.50986","273557.720136","277461.542645","278227.756565","278995.224042","279762.502223","280529.387692","281296.66347","282064.233707","282831.539232","283601.128022","Mapping"
"Blocked","Female","cave","8","F_depth.wav","None","739.117005116","422","276694.290003","283598.294296","284365.470919","285132.681495","271255.979337","272023.277049","272790.50986","273557.720136","277461.542645","278227.756565","278995.224042","279762.502223","280529.387692","281296.66347","282064.233707","282831.539232","284367.974128","Mapping"
"Blocked","Female","cave","8","F_cave.wav","None","740.254882024","422","276694.290003","283598.294296","284365.470919","285132.681495","285899.962381","272023.277049","272790.50986","273557.720136","277461.542645","278227.756565","278995.224042","279762.502223","280529.387692","281296.66347","282064.233707","282831.539232","285135.380009","Mapping"
"Blocked","Female","cave","8","F_gnash.wav","space","594.904102246","422","276694.290003","283598.294296","284365.470919","285132.681495","285899.962381","286667.157633","272790.50986","273557.720136","277461.542645","278227.756565","278995.224042","279762.502223","280529.387692","281296.66347","282064.233707","282831.539232","285902.828858","Mapping"
"Blocked","Female","cave","8","F_cave.wav","None","741.231406965","422","276694.290003","283598.294296","284365.470919","285132.681495","285899.962381","286667.157633","287434.434914","273557.720136","277461.542645","278227.756565","278995.224042","279762.502223","280529.387692","281296.66347","282064.233707","282831.539232","286669.846833","Mapping"
"Blocked","Female","cave","8","F_gnash.wav","None","742.358166513","422","276694.290003","283598.294296","284365.470919","285132.681495","285899.962381","286667.157633","287434.434914","288218.609981","277461.542645","278227.756565","278995.224042","279762.502223","280529.387692","281296.66347","282064.233707","282831.539232","287437.238892","Mapping"
"Blocked","Female","done","20","F_dime.wav","None","726.390030672","422","291338.192221","283598.294296","284365.470919","285132.681495","285899.962381","286667.157633","287434.434914","288218.609981","277461.542645","278227.756565","278995.224042","279762.502223","280529.387692","281296.66347","282064.233707","282831.539232","288221.483068","Mapping"
"Blocked","Female","done","20","F_done.wav","None","728.484301085","422","291338.192221","283598.294296","284365.470919","285132.681495","285899.962381","286667.157633","287434.434914","288218.609981","292104.741164","278227.756565","278995.224042","279762.502223","280529.387692","281296.66347","282064.233707","282831.539232","291341.736856","Mapping"
"Blocked","Female","done","20","F_priest.wav","space","414.625879774","422","291338.192221","283598.294296","284365.470919","285132.681495","285899.962381","286667.157633","287434.434914","288218.609981","292104.741164","292871.697843","278995.224042","279762.502223","280529.387692","281296.66347","282064.233707","282831.539232","292108.134062","Mapping"
"Blocked","Female","done","20","F_priest.wav","None","731.449631745","422","291338.192221","283598.294296","284365.470919","285132.681495","285899.962381","286667.157633","287434.434914","288218.609981","292104.741164","292871.697843","293638.850128","279762.502223","280529.387692","281296.66347","282064.233707","282831.539232","292874.26385","Mapping"
"Blocked","Female","done","20","F_jaw.wav","None","732.586006307","422","291338.192221","283598.294296","284365.470919","285132.681495","285899.962381","286667.157633","287434.434914","288218.609981","292104.741164","292871.697843","293638.850128","294406.072423","280529.387692","281296.66347","282064.233707","282831.539232","293641.523703","Mapping"
"Blocked","Female","done","20","F_lash.wav","None","733.705554594","422","291338.192221","283598.294296","284365.470919","285132.681495","285899.962381","286667.157633","287434.434914","288218.609981","292104.741164","292871.697843","293638.850128","294406.072423","295173.228914","281296.66347","282064.233707","282831.539232","294408.738186","Mapping"
"Blocked","Female","done","20","F_knife.wav","None","735.015299892","422","291338.192221","283598.294296","284365.470919","285132.681495","285899.962381","286667.157633","287434.434914","288218.609981","292104.741164","292871.697843","293638.850128","294406.072423","295173.228914","295940.48396","282064.233707","282831.539232","295176.016668","Mapping"
"Blocked","Female","done","20","F_jaw.wav","None","736.267355102","422","291338.192221","283598.294296","284365.470919","285132.681495","285899.962381","286667.157633","287434.434914","288218.609981","292104.741164","292871.697843","293638.850128","294406.072423","295173.228914","295940.48396","296707.766648","282831.539232","295943.174361","Mapping"
"Blocked","Female","done","20","F_done.wav","None","737.160349602","422","291338.192221","283598.294296","284365.470919","285132.681495","285899.962381","286667.157633","287434.434914","288218.609981","292104.741164","292871.697843","293638.850128","294406.072423","295173.228914","295940.48396","296707.766648","297474.927347","296710.804392","Mapping"
"Blocked","Female","done","20","F_park.wav","space","619.038089881","422","291338.192221","298242.242786","284365.470919","285132.681495","285899.962381","286667.157633","287434.434914","288218.609981","292104.741164","292871.697843","293638.850128","294406.072423","295173.228914","295940.48396","296707.766648","297474.927347","297477.703081","Mapping"
"Blocked","Female","done","20","F_park.wav","None","738.478808507","422","291338.192221","298242.242786","299009.430827","285132.681495","285899.962381","286667.157633","287434.434914","288218.609981","292104.741164","292871.697843","293638.850128","294406.072423","295173.228914","295940.48396","296707.766648","297474.927347","298245.044662","Mapping"
"Blocked","Female","done","20","F_done.wav","None","739.413868697","422","291338.192221","298242.242786","299009.430827","299776.713516","285899.962381","286667.157633","287434.434914","288218.609981","292104.741164","292871.697843","293638.850128","294406.072423","295173.228914","295940.48396","296707.766648","297474.927347","299012.440327","Mapping"
