"Condition","Talker","Target","Trial","current_stimulus","response_response","response_time_response","subject_nr","time_Audio1","time_Audio10","time_Audio11","time_Audio12","time_Audio13","time_Audio14","time_Audio15","time_Audio16","time_Audio2","time_Audio3","time_Audio4","time_Audio5","time_Audio6","time_Audio7","time_Audio8","time_Audio9","time_response"
"Blocked","Male","tile","13","M_knife.wav","NA","NA","329","80878.9830306","NA","NA","NA","NA","NA","NA","NA","NA","NA","NA","NA","NA","NA","NA","NA","NA"
"Blocked","Male","tile","13","M_reek.wav","None","716.028458439","329","80878.9830306","NA","NA","NA","NA","NA","NA","NA","81628.5232953","NA","NA","NA","NA","NA","NA","NA","80893.4518527"
"Blocked","Male","tile","13","M_tile.wav","None","736.745286267","329","80878.9830306","NA","NA","NA","NA","NA","NA","NA","81628.5232953","82395.032018","NA","NA","NA","NA","NA","NA","81637.605458"
"Blocked","Male","tile","13","M_jaw.wav","space","384.340937249","329","80878.9830306","NA","NA","NA","NA","NA","NA","NA","81628.5232953","82395.032018","83161.8975215","NA","NA","NA","NA","NA","82404.0511097"
"Blocked","Male","tile","13","M_jolt.wav","None","731.072954368","329","80878.9830306","NA","NA","NA","NA","NA","NA","NA","81628.5232953","82395.032018","83161.8975215","83928.4334509","NA","NA","NA","NA","83171.5395898"
"Blocked","Male","tile","13","M_tile.wav","None","729.035218246","329","80878.9830306","NA","NA","NA","NA","NA","NA","NA","81628.5232953","82395.032018","83161.8975215","83928.4334509","84695.1956921","NA","NA","NA","83937.4782038"
"Blocked","Male","tile","13","M_lash.wav","space","379.869109951","329","80878.9830306","NA","NA","NA","NA","NA","NA","NA","81628.5232953","82395.032018","83161.8975215","83928.4334509","84695.1956921","85462.2912179","NA","NA","84704.4336759"
"Blocked","Male","tile","13","M_reek.wav","None","723.080304917","329","80878.9830306","NA","NA","NA","NA","NA","NA","NA","81628.5232953","82395.032018","83161.8975215","83928.4334509","84695.1956921","85462.2912179","86229.0067747","NA","85471.837753"
"Blocked","Male","tile","13","M_jolt.wav","None","720.563665498","329","80878.9830306","NA","NA","NA","NA","NA","NA","NA","81628.5232953","82395.032018","83161.8975215","83928.4334509","84695.1956921","85462.2912179","86229.0067747","86978.5903236","86238.8906134"
"Blocked","Male","tile","13","M_romp.wav","None","735.212424304","329","80878.9830306","87744.8637676","NA","NA","NA","NA","NA","NA","81628.5232953","82395.032018","83161.8975215","83928.4334509","84695.1956921","85462.2912179","86229.0067747","86978.5903236","86988.0802804"
"Blocked","Male","tile","13","M_cling.wav","None","734.038507566","329","80878.9830306","87744.8637676","88512.2078657","NA","NA","NA","NA","NA","81628.5232953","82395.032018","83161.8975215","83928.4334509","84695.1956921","85462.2912179","86229.0067747","86978.5903236","87753.7298207"
"Blocked","Male","tile","13","M_tile.wav","None","730.417823885","329","80878.9830306","87744.8637676","88512.2078657","89278.6315666","NA","NA","NA","NA","81628.5232953","82395.032018","83161.8975215","83928.4334509","84695.1956921","85462.2912179","86229.0067747","86978.5903236","88521.634134"
"Blocked","Male","tile","13","M_lash.wav","space","484.523903579","329","80878.9830306","87744.8637676","88512.2078657","89278.6315666","90045.6615486","NA","NA","NA","81628.5232953","82395.032018","83161.8975215","83928.4334509","84695.1956921","85462.2912179","86229.0067747","86978.5903236","89287.6290167"
"Blocked","Male","tile","13","M_gnash.wav","None","725.961764343","329","80878.9830306","87744.8637676","88512.2078657","89278.6315666","90045.6615486","90812.8609555","NA","NA","81628.5232953","82395.032018","83161.8975215","83928.4334509","84695.1956921","85462.2912179","86229.0067747","86978.5903236","90054.7276344"
"Blocked","Male","tile","13","M_tile.wav","None","721.974096261","329","80878.9830306","87744.8637676","88512.2078657","89278.6315666","90045.6615486","90812.8609555","91579.1813936","NA","81628.5232953","82395.032018","83161.8975215","83928.4334509","84695.1956921","85462.2912179","86229.0067747","86978.5903236","90823.1179621"
"Blocked","Male","tile","13","M_lash.wav","None","720.742056146","329","80878.9830306","87744.8637676","88512.2078657","89278.6315666","90045.6615486","90812.8609555","91579.1813936","92329.3239209","81628.5232953","82395.032018","83161.8975215","83928.4334509","84695.1956921","85462.2912179","86229.0067747","86978.5903236","91589.1010961"
"Blocked","Male","ball","3","M_romp.wav","v","81.5069661476","329","95478.9443226","87744.8637676","88512.2078657","89278.6315666","90045.6615486","90812.8609555","91579.1813936","92329.3239209","81628.5232953","82395.032018","83161.8975215","83928.4334509","84695.1956921","85462.2912179","86229.0067747","86978.5903236","92338.5708705"
"Blocked","Male","ball","3","M_ball.wav","None","720.384656452","329","95478.9443226","87744.8637676","88512.2078657","89278.6315666","90045.6615486","90812.8609555","91579.1813936","92329.3239209","96228.8939278","82395.032018","83161.8975215","83928.4334509","84695.1956921","85462.2912179","86229.0067747","86978.5903236","95488.9728525"
"Blocked","Male","ball","3","M_cad.wav","space","413.914543111","329","95478.9443226","87744.8637676","88512.2078657","89278.6315666","90045.6615486","90812.8609555","91579.1813936","92329.3239209","96228.8939278","96995.2193126","83161.8975215","83928.4334509","84695.1956921","85462.2912179","86229.0067747","86978.5903236","96238.0493633"
"Blocked","Male","ball","3","M_ball.wav","None","733.880831394","329","95478.9443226","87744.8637676","88512.2078657","89278.6315666","90045.6615486","90812.8609555","91579.1813936","92329.3239209","96228.8939278","96995.2193126","97762.3692523","83928.4334509","84695.1956921","85462.2912179","86229.0067747","86978.5903236","97004.5107827"
"Blocked","Male","ball","3","M_greet.wav","space","344.609568827","329","95478.9443226","87744.8637676","88512.2078657","89278.6315666","90045.6615486","90812.8609555","91579.1813936","92329.3239209","96228.8939278","96995.2193126","97762.3692523","98528.1137079","84695.1956921","85462.2912179","86229.0067747","86978.5903236","97771.2668404"
"Blocked","Male","ball","3","M_bluff.wav","None","732.031070162","329","95478.9443226","87744.8637676","88512.2078657","89278.6315666","90045.6615486","90812.8609555","91579.1813936","92329.3239209","96228.8939278","96995.2193126","97762.3692523","98528.1137079","99294.9127401","85462.2912179","86229.0067747","86978.5903236","98536.8755707"
"Blocked","Male","ball","3","M_ball.wav","None","729.07819273","329","95478.9443226","87744.8637676","88512.2078657","89278.6315666","90045.6615486","90812.8609555","91579.1813936","92329.3239209","96228.8939278","96995.2193126","97762.3692523","98528.1137079","99294.9127401","100061.682402","86229.0067747","86978.5903236","99303.7110851"
"Blocked","Male","ball","3","M_knife.wav","space","476.875669323","329","95478.9443226","87744.8637676","88512.2078657","89278.6315666","90045.6615486","90812.8609555","91579.1813936","92329.3239209","96228.8939278","96995.2193126","97762.3692523","98528.1137079","99294.9127401","100061.682402","100828.370133","86978.5903236","100070.951302"
"Blocked","Male","ball","3","M_priest.wav","None","724.194551352","329","95478.9443226","87744.8637676","88512.2078657","89278.6315666","90045.6615486","90812.8609555","91579.1813936","92329.3239209","96228.8939278","96995.2193126","97762.3692523","98528.1137079","99294.9127401","100061.682402","100828.370133","101595.613133","100837.1827"
"Blocked","Male","ball","3","M_ball.wav","None","720.744838472","329","95478.9443226","102344.669238","88512.2078657","89278.6315666","90045.6615486","90812.8609555","91579.1813936","92329.3239209","96228.8939278","96995.2193126","97762.3692523","98528.1137079","99294.9127401","100061.682402","100828.370133","101595.613133","101604.927172"
"Blocked","Male","ball","3","M_greet.wav","space","307.296832092","329","95478.9443226","102344.669238","103111.32698","89278.6315666","90045.6615486","90812.8609555","91579.1813936","92329.3239209","96228.8939278","96995.2193126","97762.3692523","98528.1137079","99294.9127401","100061.682402","100828.370133","101595.613133","102352.492154"
"Blocked","Male","ball","3","M_park.wav","None","734.767838381","329","95478.9443226","102344.669238","103111.32698","103878.548029","90045.6615486","90812.8609555","91579.1813936","92329.3239209","96228.8939278","96995.2193126","97762.3692523","98528.1137079","99294.9127401","100061.682402","100828.370133","101595.613133","103120.161807"
"Blocked","Male","ball","3","M_depth.wav","None","731.333893258","329","95478.9443226","102344.669238","103111.32698","103878.548029","104644.653903","90812.8609555","91579.1813936","92329.3239209","96228.8939278","96995.2193126","97762.3692523","98528.1137079","99294.9127401","100061.682402","100828.370133","101595.613133","103887.859904"
"Blocked","Male","ball","3","M_park.wav","None","730.028270744","329","95478.9443226","102344.669238","103111.32698","103878.548029","104644.653903","105411.856402","91579.1813936","92329.3239209","96228.8939278","96995.2193126","97762.3692523","98528.1137079","99294.9127401","100061.682402","100828.370133","101595.613133","104653.571897"
"Blocked","Male","ball","3","M_cad.wav","None","727.221630048","329","95478.9443226","102344.669238","103111.32698","103878.548029","104644.653903","105411.856402","106178.427886","92329.3239209","96228.8939278","96995.2193126","97762.3692523","98528.1137079","99294.9127401","100061.682402","100828.370133","101595.613133","105421.228256"
"Blocked","Male","ball","3","M_gnash.wav","None","725.010759197","329","95478.9443226","102344.669238","103111.32698","103878.548029","104644.653903","105411.856402","106178.427886","106945.294317","96228.8939278","96995.2193126","97762.3692523","98528.1137079","99294.9127401","100061.682402","100828.370133","101595.613133","106187.896201"
"Blocked","Male","ball","1","M_priest.wav","None","722.289140336","329","110061.974566","102344.669238","103111.32698","103878.548029","104644.653903","105411.856402","106178.427886","106945.294317","96228.8939278","96995.2193126","97762.3692523","98528.1137079","99294.9127401","100061.682402","100828.370133","101595.613133","106955.167026"
"Blocked","Male","ball","1","M_jaw.wav","None","720.385584049","329","110061.974566","102344.669238","103111.32698","103878.548029","104644.653903","105411.856402","106178.427886","106945.294317","110811.433211","96995.2193126","97762.3692523","98528.1137079","99294.9127401","100061.682402","100828.370133","101595.613133","110071.388468"
"Blocked","Male","ball","1","M_lash.wav","None","735.207168385","329","110061.974566","102344.669238","103111.32698","103878.548029","104644.653903","105411.856402","106178.427886","106945.294317","110811.433211","111578.210602","97762.3692523","98528.1137079","99294.9127401","100061.682402","100828.370133","101595.613133","110820.742922"
"Blocked","Male","ball","1","M_ball.wav","None","732.318597846","329","110061.974566","102344.669238","103111.32698","103878.548029","104644.653903","105411.856402","106178.427886","106945.294317","110811.433211","111578.210602","112344.728599","98528.1137079","99294.9127401","100061.682402","100828.370133","101595.613133","111587.609663"
"Blocked","Male","ball","1","M_reek.wav","space","347.228542902","329","110061.974566","102344.669238","103111.32698","103878.548029","104644.653903","105411.856402","106178.427886","106945.294317","110811.433211","111578.210602","112344.728599","113111.940991","99294.9127401","100061.682402","100828.370133","101595.613133","112352.297068"
"Blocked","Male","ball","1","M_depth.wav","None","727.269242052","329","110061.974566","102344.669238","103111.32698","103878.548029","104644.653903","105411.856402","106178.427886","106945.294317","110811.433211","111578.210602","112344.728599","113111.940991","113878.072526","100061.682402","100828.370133","101595.613133","113121.222568"
"Blocked","Male","ball","1","M_dime.wav","None","725.411133841","329","110061.974566","102344.669238","103111.32698","103878.548029","104644.653903","105411.856402","106178.427886","106945.294317","110811.433211","111578.210602","112344.728599","113111.940991","113878.072526","114644.946687","100828.370133","101595.613133","113887.525074"
"Blocked","Male","ball","1","M_ball.wav","None","722.343863454","329","110061.974566","102344.669238","103111.32698","103878.548029","104644.653903","105411.856402","106178.427886","106945.294317","110811.433211","111578.210602","112344.728599","113111.940991","113878.072526","114644.946687","115412.116104","101595.613133","114654.572987"
"Blocked","Male","ball","1","M_knife.wav","space","277.382831089","329","110061.974566","102344.669238","103111.32698","103878.548029","104644.653903","105411.856402","106178.427886","106945.294317","110811.433211","111578.210602","112344.728599","113111.940991","113878.072526","114644.946687","115412.116104","116161.354929","115421.952949"
"Blocked","Male","ball","1","M_dime.wav","None","734.64107886","329","110061.974566","116928.059665","103111.32698","103878.548029","104644.653903","105411.856402","106178.427886","106945.294317","110811.433211","111578.210602","112344.728599","113111.940991","113878.072526","114644.946687","115412.116104","116161.354929","116170.35578"
"Blocked","Male","ball","1","M_ball.wav","None","731.849278789","329","110061.974566","116928.059665","117694.800883","103878.548029","104644.653903","105411.856402","106178.427886","106945.294317","110811.433211","111578.210602","112344.728599","113111.940991","113878.072526","114644.946687","115412.116104","116161.354929","116937.549931"
"Blocked","Male","ball","1","M_gnash.wav","space","291.433965322","329","110061.974566","116928.059665","117694.800883","118461.439765","104644.653903","105411.856402","106178.427886","106945.294317","110811.433211","111578.210602","112344.728599","113111.940991","113878.072526","114644.946687","115412.116104","116161.354929","117703.843471"
"Blocked","Male","ball","1","M_romp.wav","None","727.019433398","329","110061.974566","116928.059665","117694.800883","118461.439765","119227.522452","105411.856402","106178.427886","106945.294317","110811.433211","111578.210602","112344.728599","113111.940991","113878.072526","114644.946687","115412.116104","116161.354929","118471.045352"
"Blocked","Male","ball","1","M_dime.wav","None","726.318546105","329","110061.974566","116928.059665","117694.800883","118461.439765","119227.522452","119995.12718","106178.427886","106945.294317","110811.433211","111578.210602","112344.728599","113111.940991","113878.072526","114644.946687","115412.116104","116161.354929","119236.326362"
"Blocked","Male","ball","1","M_ball.wav","None","722.038403619","329","110061.974566","116928.059665","117694.800883","118461.439765","119227.522452","119995.12718","120761.903643","106945.294317","110811.433211","111578.210602","112344.728599","113111.940991","113878.072526","114644.946687","115412.116104","116161.354929","120004.754717"
"Blocked","Male","ball","1","M_depth.wav","space","295.517475344","329","110061.974566","116928.059665","117694.800883","118461.439765","119227.522452","119995.12718","120761.903643","121511.072286","110811.433211","111578.210602","112344.728599","113111.940991","113878.072526","114644.946687","115412.116104","116161.354929","120771.706789"
"Blocked","Male","cave","10","M_cling.wav","None","735.365154222","329","124644.969875","116928.059665","117694.800883","118461.439765","119227.522452","119995.12718","120761.903643","121511.072286","110811.433211","111578.210602","112344.728599","113111.940991","113878.072526","114644.946687","115412.116104","116161.354929","121520.411678"
"Blocked","Male","cave","10","M_jaw.wav","None","720.737109426","329","124644.969875","116928.059665","117694.800883","118461.439765","119227.522452","119995.12718","120761.903643","121511.072286","125394.369158","111578.210602","112344.728599","113111.940991","113878.072526","114644.946687","115412.116104","116161.354929","124654.389959"
"Blocked","Male","cave","10","M_cling.wav","None","735.95783161","329","124644.969875","116928.059665","117694.800883","118461.439765","119227.522452","119995.12718","120761.903643","121511.072286","125394.369158","126161.270526","112344.728599","113111.940991","113878.072526","114644.946687","115412.116104","116161.354929","125403.360425"
"Blocked","Male","cave","10","M_cave.wav","None","732.539962977","329","124644.969875","116928.059665","117694.800883","118461.439765","119227.522452","119995.12718","120761.903643","121511.072286","125394.369158","126161.270526","126927.794088","113111.940991","113878.072526","114644.946687","115412.116104","116161.354929","126170.784907"
"Blocked","Male","cave","10","M_cling.wav","None","730.560659897","329","124644.969875","116928.059665","117694.800883","118461.439765","119227.522452","119995.12718","120761.903643","121511.072286","125394.369158","126161.270526","126927.794088","127693.994878","113878.072526","114644.946687","115412.116104","116161.354929","126937.245708"
"Blocked","Male","cave","10","M_cling.wav","space","140.388600994","329","124644.969875","116928.059665","117694.800883","118461.439765","119227.522452","119995.12718","120761.903643","121511.072286","125394.369158","126161.270526","126927.794088","127693.994878","128461.137088","114644.946687","115412.116104","116161.354929","127702.631836"
"Blocked","Male","cave","10","M_cave.wav","None","725.621987134","329","124644.969875","116928.059665","117694.800883","118461.439765","119227.522452","119995.12718","120761.903643","121511.072286","125394.369158","126161.270526","126927.794088","127693.994878","128461.137088","129227.564808","115412.116104","116161.354929","128470.857995"
"Blocked","Male","cave","10","M_jaw.wav","space","470.252640545","329","124644.969875","116928.059665","117694.800883","118461.439765","119227.522452","119995.12718","120761.903643","121511.072286","125394.369158","126161.270526","126927.794088","127693.994878","128461.137088","129227.564808","129994.088371","116161.354929","129236.701694"
"Blocked","Male","cave","10","M_cave.wav","None","721.874544397","329","124644.969875","116928.059665","117694.800883","118461.439765","119227.522452","119995.12718","120761.903643","121511.072286","125394.369158","126161.270526","126927.794088","127693.994878","128461.137088","129227.564808","129994.088371","130761.234291","130003.16806"
"Blocked","Male","cave","10","M_knife.wav","space","608.518793713","329","124644.969875","131511.033022","117694.800883","118461.439765","119227.522452","119995.12718","120761.903643","121511.072286","125394.369158","126161.270526","126927.794088","127693.994878","128461.137088","129227.564808","129994.088371","130761.234291","130770.38478"
"Blocked","Male","cave","10","M_reek.wav","None","733.148408588","329","124644.969875","131511.033022","132277.247415","118461.439765","119227.522452","119995.12718","120761.903643","121511.072286","125394.369158","126161.270526","126927.794088","127693.994878","128461.137088","129227.564808","129994.088371","130761.234291","131520.940049"
"Blocked","Male","cave","10","M_romp.wav","space","356.301120948","329","124644.969875","131511.033022","132277.247415","133044.323154","119227.522452","119995.12718","120761.903643","121511.072286","125394.369158","126161.270526","126927.794088","127693.994878","128461.137088","129227.564808","129994.088371","130761.234291","132286.554653"
"Blocked","Male","cave","10","M_cling.wav","None","729.748781305","329","124644.969875","131511.033022","132277.247415","133044.323154","133810.874233","119995.12718","120761.903643","121511.072286","125394.369158","126161.270526","126927.794088","127693.994878","128461.137088","129227.564808","129994.088371","130761.234291","133053.451383"
"Blocked","Male","cave","10","M_cling.wav","None","727.717228699","329","124644.969875","131511.033022","132277.247415","133044.323154","133810.874233","134577.599992","120761.903643","121511.072286","125394.369158","126161.270526","126927.794088","127693.994878","128461.137088","129227.564808","129994.088371","130761.234291","133820.061821"
"Blocked","Male","cave","10","M_cave.wav","None","725.178947672","329","124644.969875","131511.033022","132277.247415","133044.323154","133810.874233","134577.599992","135344.641722","121511.072286","125394.369158","126161.270526","126927.794088","127693.994878","128461.137088","129227.564808","129994.088371","130761.234291","134587.028424"
"Blocked","Male","cave","10","M_knife.wav","space","496.553997044","329","124644.969875","131511.033022","132277.247415","133044.323154","133810.874233","134577.599992","135344.641722","136111.252161","125394.369158","126161.270526","126927.794088","127693.994878","128461.137088","129227.564808","129994.088371","130761.234291","135354.233705"
"Blocked","Male","cave","8","M_bluff.wav","None","719.821040053","329","139227.584286","131511.033022","132277.247415","133044.323154","133810.874233","134577.599992","135344.641722","136111.252161","125394.369158","126161.270526","126927.794088","127693.994878","128461.137088","129227.564808","129994.088371","130761.234291","136120.969358"
"Blocked","Male","cave","8","M_cave.wav","None","720.374453813","329","139227.584286","131511.033022","132277.247415","133044.323154","133810.874233","134577.599992","135344.641722","136111.252161","139994.568202","126161.270526","126927.794088","127693.994878","128461.137088","129227.564808","129994.088371","130761.234291","139237.832326"
"Blocked","Male","cave","8","M_greet.wav","space","446.554491762","329","139227.584286","131511.033022","132277.247415","133044.323154","133810.874233","134577.599992","135344.641722","136111.252161","139994.568202","140743.680267","126927.794088","127693.994878","128461.137088","129227.564808","129994.088371","130761.234291","140004.088766"
"Blocked","Male","cave","8","M_bluff.wav","None","734.039744362","329","139227.584286","131511.033022","132277.247415","133044.323154","133810.874233","134577.599992","135344.641722","136111.252161","139994.568202","140743.680267","141510.44189","127693.994878","128461.137088","129227.564808","129994.088371","130761.234291","140752.690702"
"Blocked","Male","cave","8","M_cave.wav","None","731.930590235","329","139227.584286","131511.033022","132277.247415","133044.323154","133810.874233","134577.599992","135344.641722","136111.252161","139994.568202","140743.680267","141510.44189","142277.289462","128461.137088","129227.564808","129994.088371","130761.234291","141519.431301"
"Blocked","Male","cave","8","M_depth.wav","space","356.516612228","329","139227.584286","131511.033022","132277.247415","133044.323154","133810.874233","134577.599992","135344.641722","136111.252161","139994.568202","140743.680267","141510.44189","142277.289462","143043.522714","129227.564808","129994.088371","130761.234291","142286.016698"
"Blocked","Male","cave","8","M_cling.wav","None","727.048804518","329","139227.584286","131511.033022","132277.247415","133044.323154","133810.874233","134577.599992","135344.641722","136111.252161","139994.568202","140743.680267","141510.44189","142277.289462","143043.522714","143811.067463","129994.088371","130761.234291","143052.640122"
"Blocked","Male","cave","8","M_knife.wav","None","723.726469092","329","139227.584286","131511.033022","132277.247415","133044.323154","133810.874233","134577.599992","135344.641722","136111.252161","139994.568202","140743.680267","141510.44189","142277.289462","143043.522714","143811.067463","144577.074713","130761.234291","143820.660683"
"Blocked","Male","cave","8","M_jolt.wav","None","723.290849477","329","139227.584286","131511.033022","132277.247415","133044.323154","133810.874233","134577.599992","135344.641722","136111.252161","139994.568202","140743.680267","141510.44189","142277.289462","143043.522714","143811.067463","144577.074713","145343.681442","144585.876149"
"Blocked","Male","cave","8","M_dime.wav","None","721.309691202","329","139227.584286","146093.580343","132277.247415","133044.323154","133810.874233","134577.599992","135344.641722","136111.252161","139994.568202","140743.680267","141510.44189","142277.289462","143043.522714","143811.067463","144577.074713","145343.681442","145352.518742"
"Blocked","Male","cave","8","M_cave.wav","None","736.271638889","329","139227.584286","146093.580343","146860.59734","133044.323154","133810.874233","134577.599992","135344.641722","136111.252161","139994.568202","140743.680267","141510.44189","142277.289462","143043.522714","143811.067463","144577.074713","145343.681442","146102.349626"
"Blocked","Male","cave","8","M_cad.wav","space","396.02970751","329","139227.584286","146093.580343","146860.59734","147627.171606","133810.874233","134577.599992","135344.641722","136111.252161","139994.568202","140743.680267","141510.44189","142277.289462","143043.522714","143811.067463","144577.074713","145343.681442","146870.399868"
"Blocked","Male","cave","8","M_depth.wav","None","730.644135736","329","139227.584286","146093.580343","146860.59734","147627.171606","148393.90695","134577.599992","135344.641722","136111.252161","139994.568202","140743.680267","141510.44189","142277.289462","143043.522714","143811.067463","144577.074713","145343.681442","147636.438652"
"Blocked","Male","cave","8","M_cave.wav","None","728.399875108","329","139227.584286","146093.580343","146860.59734","147627.171606","148393.90695","149160.138966","135344.641722","136111.252161","139994.568202","140743.680267","141510.44189","142277.289462","143043.522714","143811.067463","144577.074713","145343.681442","148403.285606"
"Blocked","Male","cave","8","M_romp.wav","space","521.349079907","329","139227.584286","146093.580343","146860.59734","147627.171606","148393.90695","149160.138966","149927.416283","136111.252161","139994.568202","140743.680267","141510.44189","142277.289462","143043.522714","143811.067463","144577.074713","145343.681442","149168.987705"
"Blocked","Male","cave","8","M_depth.wav","None","723.172128666","329","139227.584286","146093.580343","146860.59734","147627.171606","148393.90695","149160.138966","149927.416283","150694.183162","139994.568202","140743.680267","141510.44189","142277.289462","143043.522714","143811.067463","144577.074713","145343.681442","149937.295484"
"Blocked","Male","done","19","M_cling.wav","None","721.645140555","329","153810.779008","146093.580343","146860.59734","147627.171606","148393.90695","149160.138966","149927.416283","150694.183162","139994.568202","140743.680267","141510.44189","142277.289462","143043.522714","143811.067463","144577.074713","145343.681442","150703.455773"
"Blocked","Male","done","19","M_done.wav","None","720.15494341","329","153810.779008","146093.580343","146860.59734","147627.171606","148393.90695","149160.138966","149927.416283","150694.183162","154560.592579","140743.680267","141510.44189","142277.289462","143043.522714","143811.067463","144577.074713","145343.681442","153820.800118"
"Blocked","Male","done","19","M_jaw.wav","space","512.775501236","329","153810.779008","146093.580343","146860.59734","147627.171606","148393.90695","149160.138966","149927.416283","150694.183162","154560.592579","155327.000821","141510.44189","142277.289462","143043.522714","143811.067463","144577.074713","145343.681442","154569.425242"
"Blocked","Male","done","19","M_jaw.wav","None","733.423878904","329","153810.779008","146093.580343","146860.59734","147627.171606","148393.90695","149160.138966","149927.416283","150694.183162","154560.592579","155327.000821","156093.167911","142277.289462","143043.522714","143811.067463","144577.074713","145343.681442","155336.277451"
"Blocked","Male","done","19","M_depth.wav","None","732.611690648","329","153810.779008","146093.580343","146860.59734","147627.171606","148393.90695","149160.138966","149927.416283","150694.183162","154560.592579","155327.000821","156093.167911","156860.200676","143043.522714","143811.067463","144577.074713","145343.681442","156101.828367"
"Blocked","Male","done","19","M_depth.wav","None","729.792992584","329","153810.779008","146093.580343","146860.59734","147627.171606","148393.90695","149160.138966","149927.416283","150694.183162","154560.592579","155327.000821","156093.167911","156860.200676","157626.536572","143811.067463","144577.074713","145343.681442","156869.255631"
"Blocked","Male","done","19","M_done.wav","None","728.244980797","329","153810.779008","146093.580343","146860.59734","147627.171606","148393.90695","149160.138966","149927.416283","150694.183162","154560.592579","155327.000821","156093.167911","156860.200676","157626.536572","158393.613857","144577.074713","145343.681442","157635.664492"
"Blocked","Male","done","19","M_gnash.wav","space","615.188815631","329","153810.779008","146093.580343","146860.59734","147627.171606","148393.90695","149160.138966","149927.416283","150694.183162","154560.592579","155327.000821","156093.167911","156860.200676","157626.536572","158393.613857","159160.556344","145343.681442","158402.865754"
"Blocked","Male","done","19","M_done.wav","None","722.612840589","329","153810.779008","146093.580343","146860.59734","147627.171606","148393.90695","149160.138966","149927.416283","150694.183162","154560.592579","155327.000821","156093.167911","156860.200676","157626.536572","158393.613857","159160.556344","159926.801345","159170.159457"
"Blocked","Male","done","19","M_priest.wav","space","625.925962813","329","153810.779008","160676.256589","146860.59734","147627.171606","148393.90695","149160.138966","149927.416283","150694.183162","154560.592579","155327.000821","156093.167911","156860.200676","157626.536572","158393.613857","159160.556344","159926.801345","159936.125587"
"Blocked","Male","done","19","M_romp.wav","None","736.301628407","329","153810.779008","160676.256589","161443.289044","147627.171606","148393.90695","149160.138966","149927.416283","150694.183162","154560.592579","155327.000821","156093.167911","156860.200676","157626.536572","158393.613857","159160.556344","159926.801345","160685.273825"
"Blocked","Male","done","19","M_cad.wav","None","733.297737315","329","153810.779008","160676.256589","161443.289044","162209.460153","148393.90695","149160.138966","149927.416283","150694.183162","154560.592579","155327.000821","156093.167911","156860.200676","157626.536572","158393.613857","159160.556344","159926.801345","161452.617615"
"Blocked","Male","done","19","M_romp.wav","None","735.701221507","329","153810.779008","160676.256589","161443.289044","162209.460153","162976.540839","149160.138966","149927.416283","150694.183162","154560.592579","155327.000821","156093.167911","156860.200676","157626.536572","158393.613857","159160.556344","159926.801345","162218.219542"
"Blocked","Male","done","19","M_done.wav","None","732.791627292","329","153810.779008","160676.256589","161443.289044","162209.460153","162976.540839","163743.460757","149927.416283","150694.183162","154560.592579","155327.000821","156093.167911","156860.200676","157626.536572","158393.613857","159160.556344","159926.801345","162985.465943"
"Blocked","Male","done","19","M_jaw.wav","space","393.472258002","329","153810.779008","160676.256589","161443.289044","162209.460153","162976.540839","163743.460757","164510.079234","150694.183162","154560.592579","155327.000821","156093.167911","156860.200676","157626.536572","158393.613857","159160.556344","159926.801345","163752.488196"
"Blocked","Male","done","19","M_reek.wav","None","727.314999327","329","153810.779008","160676.256589","161443.289044","162209.460153","162976.540839","163743.460757","164510.079234","165276.946593","154560.592579","155327.000821","156093.167911","156860.200676","157626.536572","158393.613857","159160.556344","159926.801345","164520.044075"
"Blocked","Male","ball","2","M_knife.wav","None","726.1979701","329","168410.104339","160676.256589","161443.289044","162209.460153","162976.540839","163743.460757","164510.079234","165276.946593","154560.592579","155327.000821","156093.167911","156860.200676","157626.536572","158393.613857","159160.556344","159926.801345","165285.881281"
"Blocked","Male","ball","2","M_jaw.wav","None","720.162672456","329","168410.104339","160676.256589","161443.289044","162209.460153","162976.540839","163743.460757","164510.079234","165276.946593","169159.856385","155327.000821","156093.167911","156860.200676","157626.536572","158393.613857","159160.556344","159926.801345","168420.21418"
"Blocked","Male","ball","2","M_ball.wav","None","735.523139127","329","168410.104339","160676.256589","161443.289044","162209.460153","162976.540839","163743.460757","164510.079234","165276.946593","169159.856385","169926.597293","156093.167911","156860.200676","157626.536572","158393.613857","159160.556344","159926.801345","169169.244007"
"Blocked","Male","ball","2","M_romp.wav","space","273.473692127","329","168410.104339","160676.256589","161443.289044","162209.460153","162976.540839","163743.460757","164510.079234","165276.946593","169159.856385","169926.597293","170692.993169","156860.200676","157626.536572","158393.613857","159160.556344","159926.801345","169936.278936"
"Blocked","Male","ball","2","M_ball.wav","None","731.374084949","329","168410.104339","160676.256589","161443.289044","162209.460153","162976.540839","163743.460757","164510.079234","165276.946593","169159.856385","169926.597293","170692.993169","171459.328756","157626.536572","158393.613857","159160.556344","159926.801345","170701.941152"
"Blocked","Male","ball","2","M_greet.wav","space","413.763359189","329","168410.104339","160676.256589","161443.289044","162209.460153","162976.540839","163743.460757","164510.079234","165276.946593","169159.856385","169926.597293","170692.993169","171459.328756","172225.940123","158393.613857","159160.556344","159926.801345","171467.940981"
"Blocked","Male","ball","2","M_cad.wav","None","727.649829816","329","168410.104339","160676.256589","161443.289044","162209.460153","162976.540839","163743.460757","164510.079234","165276.946593","169159.856385","169926.597293","170692.993169","171459.328756","172225.940123","172992.656607","159160.556344","159926.801345","172234.662721"
"Blocked","Male","ball","2","M_bluff.wav","None","725.549023133","329","168410.104339","160676.256589","161443.289044","162209.460153","162976.540839","163743.460757","164510.079234","165276.946593","169159.856385","169926.597293","170692.993169","171459.328756","172225.940123","172992.656607","173760.020801","159926.801345","173001.549867"
"Blocked","Male","ball","2","M_jaw.wav","None","722.848737147","329","168410.104339","160676.256589","161443.289044","162209.460153","162976.540839","163743.460757","164510.079234","165276.946593","169159.856385","169926.597293","170692.993169","171459.328756","172225.940123","172992.656607","173760.020801","174526.659993","173769.221375"
"Blocked","Male","ball","2","M_jaw.wav","None","720.258206129","329","168410.104339","175293.475102","161443.289044","162209.460153","162976.540839","163743.460757","164510.079234","165276.946593","169159.856385","169926.597293","170692.993169","171459.328756","172225.940123","172992.656607","173760.020801","174526.659993","174536.617723"
"Blocked","Male","ball","2","M_gnash.wav","space","90.4079554603","329","168410.104339","175293.475102","176042.86913","162209.460153","162976.540839","163743.460757","164510.079234","165276.946593","169159.856385","169926.597293","170692.993169","171459.328756","172225.940123","172992.656607","173760.020801","174526.659993","175303.177767"
"Blocked","Male","ball","2","M_ball.wav","None","733.757472597","329","168410.104339","175293.475102","176042.86913","176809.582832","162976.540839","163743.460757","164510.079234","165276.946593","169159.856385","169926.597293","170692.993169","171459.328756","172225.940123","172992.656607","173760.020801","174526.659993","176052.129683"
"Blocked","Male","ball","2","M_romp.wav","space","582.844433375","329","168410.104339","175293.475102","176042.86913","176809.582832","177576.183377","163743.460757","164510.079234","165276.946593","169159.856385","169926.597293","170692.993169","171459.328756","172225.940123","172992.656607","173760.020801","174526.659993","176818.654482"
"Blocked","Male","ball","2","M_cad.wav","None","735.136677977","329","168410.104339","175293.475102","176042.86913","176809.582832","177576.183377","178342.917484","164510.079234","165276.946593","169159.856385","169926.597293","170692.993169","171459.328756","172225.940123","172992.656607","173760.020801","174526.659993","177579.898357"
"Blocked","Male","ball","2","M_ball.wav","None","727.318090852","329","168410.104339","175293.475102","176042.86913","176809.582832","177576.183377","178342.917484","179109.536889","165276.946593","169159.856385","169926.597293","170692.993169","171459.328756","172225.940123","172992.656607","173760.020801","174526.659993","178352.217611"
"Blocked","Male","ball","2","M_depth.wav","None","725.732051767","329","168410.104339","175293.475102","176042.86913","176809.582832","177576.183377","178342.917484","179109.536889","179876.205452","169159.856385","169926.597293","170692.993169","171459.328756","172225.940123","172992.656607","173760.020801","174526.659993","179118.98789"
"Blocked","Male","tile","17","M_priest.wav","space","0.0287531875074","329","182993.024519","175293.475102","176042.86913","176809.582832","177576.183377","178342.917484","179109.536889","179876.205452","169159.856385","169926.597293","170692.993169","171459.328756","172225.940123","172992.656607","173760.020801","174526.659993","179885.05481"
"Blocked","Male","tile","17","M_priest.wav","None","721.294541843","329","182993.024519","175293.475102","176042.86913","176809.582832","177576.183377","178342.917484","179109.536889","179876.205452","183759.728945","169926.597293","170692.993169","171459.328756","172225.940123","172992.656607","173760.020801","174526.659993","183002.820862"
"Blocked","Male","tile","17","M_tile.wav","None","724.832986481","329","182993.024519","175293.475102","176042.86913","176809.582832","177576.183377","178342.917484","179109.536889","179876.205452","183759.728945","184509.165329","170692.993169","171459.328756","172225.940123","172992.656607","173760.020801","174526.659993","183764.08267"
"Blocked","Male","tile","17","M_greet.wav","space","594.991701655","329","182993.024519","175293.475102","176042.86913","176809.582832","177576.183377","178342.917484","179109.536889","179876.205452","183759.728945","184509.165329","185276.086793","171459.328756","172225.940123","172992.656607","173760.020801","174526.659993","184518.310871"
"Blocked","Male","tile","17","M_tile.wav","None","732.169269118","329","182993.024519","175293.475102","176042.86913","176809.582832","177576.183377","178342.917484","179109.536889","179876.205452","183759.728945","184509.165329","185276.086793","186042.793383","172225.940123","172992.656607","173760.020801","174526.659993","185285.492965"
"Blocked","Male","tile","17","M_greet.wav","space","493.338015862","329","182993.024519","175293.475102","176042.86913","176809.582832","177576.183377","178342.917484","179109.536889","179876.205452","183759.728945","184509.165329","185276.086793","186042.793383","186809.317564","172992.656607","173760.020801","174526.659993","186051.933361"
"Blocked","Male","tile","17","M_tile.wav","None","728.140481748","329","182993.024519","175293.475102","176042.86913","176809.582832","177576.183377","178342.917484","179109.536889","179876.205452","183759.728945","184509.165329","185276.086793","186042.793383","186809.317564","187575.997876","173760.020801","174526.659993","186818.675197"
"Blocked","Male","tile","17","M_bluff.wav","space","359.897380229","329","182993.024519","175293.475102","176042.86913","176809.582832","177576.183377","178342.917484","179109.536889","179876.205452","183759.728945","184509.165329","185276.086793","186042.793383","186809.317564","187575.997876","188343.050118","174526.659993","187585.330775"
"Blocked","Male","tile","17","M_jolt.wav","None","722.941178828","329","182993.024519","175293.475102","176042.86913","176809.582832","177576.183377","178342.917484","179109.536889","179876.205452","183759.728945","184509.165329","185276.086793","186042.793383","186809.317564","187575.997876","188343.050118","189109.336547","188352.726813"
"Blocked","Male","tile","17","M_dime.wav","None","721.011033747","329","182993.024519","189876.22122","176042.86913","176809.582832","177576.183377","178342.917484","179109.536889","179876.205452","183759.728945","184509.165329","185276.086793","186042.793383","186809.317564","187575.997876","188343.050118","189109.336547","189119.25594"
"Blocked","Male","tile","17","M_tile.wav","None","718.854576349","329","182993.024519","189876.22122","190625.676154","176809.582832","177576.183377","178342.917484","179109.536889","179876.205452","183759.728945","184509.165329","185276.086793","186042.793383","186809.317564","187575.997876","188343.050118","189109.336547","189886.371563"
"Blocked","Male","tile","17","M_cad.wav","space","438.446213491","329","182993.024519","189876.22122","190625.676154","191392.546604","177576.183377","178342.917484","179109.536889","179876.205452","183759.728945","184509.165329","185276.086793","186042.793383","186809.317564","187575.997876","188343.050118","189109.336547","190634.690608"
"Blocked","Male","tile","17","M_romp.wav","None","732.865518425","329","182993.024519","189876.22122","190625.676154","191392.546604","192158.777383","178342.917484","179109.536889","179876.205452","183759.728945","184509.165329","185276.086793","186042.793383","186809.317564","187575.997876","188343.050118","189109.336547","191401.684108"
"Blocked","Male","tile","17","M_greet.wav","None","731.989332475","329","182993.024519","189876.22122","190625.676154","191392.546604","192158.777383","192925.819114","179109.536889","179876.205452","183759.728945","184509.165329","185276.086793","186042.793383","186809.317564","187575.997876","188343.050118","189109.336547","192167.829247"
"Blocked","Male","tile","17","M_depth.wav","None","735.029705334","329","182993.024519","189876.22122","190625.676154","191392.546604","192158.777383","192925.819114","193692.012792","179876.205452","183759.728945","184509.165329","185276.086793","186042.793383","186809.317564","187575.997876","188343.050118","189109.336547","192929.607367"
"Blocked","Male","tile","17","M_jaw.wav","None","728.958853055","329","182993.024519","189876.22122","190625.676154","191392.546604","192158.777383","192925.819114","193692.012792","194458.622613","183759.728945","184509.165329","185276.086793","186042.793383","186809.317564","187575.997876","188343.050118","189109.336547","193700.761361"
"Blocked","Male","tile","18","M_cad.wav","None","729.292138014","329","197592.761354","189876.22122","190625.676154","191392.546604","192158.777383","192925.819114","193692.012792","194458.622613","183759.728945","184509.165329","185276.086793","186042.793383","186809.317564","187575.997876","188343.050118","189109.336547","194467.366853"
"Blocked","Male","tile","18","M_tile.wav","None","720.90251511","329","197592.761354","189876.22122","190625.676154","191392.546604","192158.777383","192925.819114","193692.012792","194458.622613","198358.859808","184509.165329","185276.086793","186042.793383","186809.317564","187575.997876","188343.050118","189109.336547","197602.637154"
"Blocked","Male","tile","18","M_cad.wav","None","720.665690955","329","197592.761354","189876.22122","190625.676154","191392.546604","192158.777383","192925.819114","193692.012792","194458.622613","198358.859808","199109.107452","185276.086793","186042.793383","186809.317564","187575.997876","188343.050118","189109.336547","198367.956192"
"Blocked","Male","tile","18","M_priest.wav","space","73.8559495658","329","197592.761354","189876.22122","190625.676154","191392.546604","192158.777383","192925.819114","193692.012792","194458.622613","198358.859808","199109.107452","199875.529916","186042.793383","186809.317564","187575.997876","188343.050118","189109.336547","199119.01788"
"Blocked","Male","tile","18","M_tile.wav","None","733.124602586","329","197592.761354","189876.22122","190625.676154","191392.546604","192158.777383","192925.819114","193692.012792","194458.622613","198358.859808","199109.107452","199875.529916","200642.347499","186809.317564","187575.997876","188343.050118","189109.336547","199885.024202"
"Blocked","Male","tile","18","M_knife.wav","None","731.93862848","329","197592.761354","189876.22122","190625.676154","191392.546604","192158.777383","192925.819114","193692.012792","194458.622613","198358.859808","199109.107452","199875.529916","200642.347499","201408.957011","187575.997876","188343.050118","189109.336547","200651.300429"
"Blocked","Male","tile","18","M_tile.wav","space","54.6317915432","329","197592.761354","189876.22122","190625.676154","191392.546604","192158.777383","192925.819114","193692.012792","194458.622613","198358.859808","199109.107452","199875.529916","200642.347499","201408.957011","202175.398025","188343.050118","189109.336547","201418.184174"
"Blocked","Male","tile","18","M_park.wav","space","599.751366302","329","197592.761354","189876.22122","190625.676154","191392.546604","192158.777383","192925.819114","193692.012792","194458.622613","198358.859808","199109.107452","199875.529916","200642.347499","201408.957011","202175.398025","202942.273422","189109.336547","202184.981969"
"Blocked","Male","tile","18","M_romp.wav","None","725.630334578","329","197592.761354","189876.22122","190625.676154","191392.546604","192158.777383","192925.819114","193692.012792","194458.622613","198358.859808","199109.107452","199875.529916","200642.347499","201408.957011","202175.398025","202942.273422","203709.313916","202951.276128"
"Blocked","Male","tile","18","M_priest.wav","None","723.224996589","329","197592.761354","204475.651977","190625.676154","191392.546604","192158.777383","192925.819114","193692.012792","194458.622613","198358.859808","199109.107452","199875.529916","200642.347499","201408.957011","202175.398025","202942.273422","203709.313916","203718.793361"
"Blocked","Male","tile","18","M_depth.wav","None","722.187114414","329","197592.761354","204475.651977","205242.240774","191392.546604","192158.777383","192925.819114","193692.012792","194458.622613","198358.859808","199109.107452","199875.529916","200642.347499","201408.957011","202175.398025","202942.273422","203709.313916","204485.056603"
"Blocked","Male","tile","18","M_tile.wav","None","720.753804781","329","197592.761354","204475.651977","205242.240774","205992.505114","192158.777383","192925.819114","193692.012792","194458.622613","198358.859808","199109.107452","199875.529916","200642.347499","201408.957011","202175.398025","202942.273422","203709.313916","205251.588513"
"Blocked","Male","tile","18","M_park.wav","space","430.784684606","329","197592.761354","204475.651977","205242.240774","205992.505114","206758.775157","192925.819114","193692.012792","194458.622613","198358.859808","199109.107452","199875.529916","200642.347499","201408.957011","202175.398025","202942.273422","203709.313916","206001.875422"
"Blocked","Male","tile","18","M_gnash.wav","None","733.523431234","329","197592.761354","204475.651977","205242.240774","205992.505114","206758.775157","207525.372921","193692.012792","194458.622613","198358.859808","199109.107452","199875.529916","200642.347499","201408.957011","202175.398025","202942.273422","203709.313916","206768.204517"
"Blocked","Male","tile","18","M_jaw.wav","None","731.526814867","329","197592.761354","204475.651977","205242.240774","205992.505114","206758.775157","207525.372921","208291.823828","194458.622613","198358.859808","199109.107452","199875.529916","200642.347499","201408.957011","202175.398025","202942.273422","203709.313916","207534.791459"
"Blocked","Male","tile","18","M_gnash.wav","None","730.38505204","329","197592.761354","204475.651977","205242.240774","205992.505114","206758.775157","207525.372921","208291.823828","209058.674801","198358.859808","199109.107452","199875.529916","200642.347499","201408.957011","202175.398025","202942.273422","203709.313916","208301.121172"
"Blocked","Male","cave","12","M_cling.wav","None","728.097507264","329","212192.310214","204475.651977","205242.240774","205992.505114","206758.775157","207525.372921","208291.823828","209058.674801","198358.859808","199109.107452","199875.529916","200642.347499","201408.957011","202175.398025","202942.273422","203709.313916","209068.124566"
"Blocked","Male","cave","12","M_greet.wav","None","720.356521662","329","212192.310214","204475.651977","205242.240774","205992.505114","206758.775157","207525.372921","208291.823828","209058.674801","212958.771942","199109.107452","199875.529916","200642.347499","201408.957011","202175.398025","202942.273422","203709.313916","212202.147059"
"Blocked","Male","cave","12","M_depth.wav","None","718.814693857","329","212192.310214","204475.651977","205242.240774","205992.505114","206758.775157","207525.372921","208291.823828","209058.674801","212958.771942","213708.594479","199875.529916","200642.347499","201408.957011","202175.398025","202942.273422","203709.313916","212968.698137"
"Blocked","Male","cave","12","M_cave.wav","None","734.447848052","329","212192.310214","204475.651977","205242.240774","205992.505114","206758.775157","207525.372921","208291.823828","209058.674801","212958.771942","213708.594479","214475.201208","200642.347499","201408.957011","202175.398025","202942.273422","203709.313916","213717.987047"
"Blocked","Male","cave","12","M_lash.wav","None","732.304994483","329","212192.310214","204475.651977","205242.240774","205992.505114","206758.775157","207525.372921","208291.823828","209058.674801","212958.771942","213708.594479","214475.201208","215241.859568","201408.957011","202175.398025","202942.273422","203709.313916","214484.62593"
"Blocked","Male","cave","12","M_greet.wav","space","620.921745431","329","212192.310214","204475.651977","205242.240774","205992.505114","206758.775157","207525.372921","208291.823828","209058.674801","212958.771942","213708.594479","214475.201208","215241.859568","216008.453621","202175.398025","202942.273422","203709.313916","215251.471338"
"Blocked","Male","cave","12","M_lash.wav","None","728.035982233","329","212192.310214","204475.651977","205242.240774","205992.505114","206758.775157","207525.372921","208291.823828","209058.674801","212958.771942","213708.594479","214475.201208","215241.859568","216008.453621","216774.978111","202942.273422","203709.313916","216017.907714"
"Blocked","Male","cave","12","M_cave.wav","None","726.631425321","329","212192.310214","204475.651977","205242.240774","205992.505114","206758.775157","207525.372921","208291.823828","209058.674801","212958.771942","213708.594479","214475.201208","215241.859568","216008.453621","216774.978111","217542.194522","203709.313916","216783.97958"
"Blocked","Male","cave","12","M_lash.wav","space","520.560079254","329","212192.310214","204475.651977","205242.240774","205992.505114","206758.775157","207525.372921","208291.823828","209058.674801","212958.771942","213708.594479","214475.201208","215241.859568","216008.453621","216774.978111","217542.194522","218308.431484","217551.768882"
"Blocked","Male","cave","12","M_cave.wav","None","720.943325665","329","212192.310214","219074.823341","205242.240774","205992.505114","206758.775157","207525.372921","208291.823828","209058.674801","212958.771942","213708.594479","214475.201208","215241.859568","216008.453621","216774.978111","217542.194522","218308.431484","218319.454922"
"Blocked","Male","cave","12","M_knife.wav","space","444.321979303","329","212192.310214","219074.823341","219824.720078","205992.505114","206758.775157","207525.372921","208291.823828","209058.674801","212958.771942","213708.594479","214475.201208","215241.859568","216008.453621","216774.978111","217542.194522","218308.431484","219083.976921"
"Blocked","Male","cave","12","M_cave.wav","None","735.82086945","329","212192.310214","219074.823341","219824.720078","220591.737693","206758.775157","207525.372921","208291.823828","209058.674801","212958.771942","213708.594479","214475.201208","215241.859568","216008.453621","216774.978111","217542.194522","218308.431484","219833.725876"
"Blocked","Male","cave","12","M_lash.wav","space","479.407148901","329","212192.310214","219074.823341","219824.720078","220591.737693","221358.340712","207525.372921","208291.823828","209058.674801","212958.771942","213708.594479","214475.201208","215241.859568","216008.453621","216774.978111","217542.194522","218308.431484","220600.82202"
"Blocked","Male","cave","12","M_priest.wav","None","730.005082674","329","212192.310214","219074.823341","219824.720078","220591.737693","221358.340712","222124.81388","208291.823828","209058.674801","212958.771942","213708.594479","214475.201208","215241.859568","216008.453621","216774.978111","217542.194522","218308.431484","221367.757087"
"Blocked","Male","cave","12","M_romp.wav","None","728.883106727","329","212192.310214","219074.823341","219824.720078","220591.737693","221358.340712","222124.81388","222891.431121","209058.674801","212958.771942","213708.594479","214475.201208","215241.859568","216008.453621","216774.978111","217542.194522","218308.431484","222133.959732"
"Blocked","Male","cave","12","M_lash.wav","None","728.302177507","329","212192.310214","219074.823341","219824.720078","220591.737693","221358.340712","222124.81388","222891.431121","223657.8406","212958.771942","213708.594479","214475.201208","215241.859568","216008.453621","216774.978111","217542.194522","218308.431484","222900.643134"
"Blocked","Male","tile","14","M_jaw.wav","None","727.443613578","329","226791.917815","219074.823341","219824.720078","220591.737693","221358.340712","222124.81388","222891.431121","223657.8406","212958.771942","213708.594479","214475.201208","215241.859568","216008.453621","216774.978111","217542.194522","218308.431484","223666.594115"
"Blocked","Male","tile","14","M_tile.wav","None","721.342772711","329","226791.917815","219074.823341","219824.720078","220591.737693","221358.340712","222124.81388","222891.431121","223657.8406","227558.657178","213708.594479","214475.201208","215241.859568","216008.453621","216774.978111","217542.194522","218308.431484","226801.443018"
"Blocked","Male","tile","14","M_greet.wav","space","431.435795501","329","226791.917815","219074.823341","219824.720078","220591.737693","221358.340712","222124.81388","222891.431121","223657.8406","227558.657178","228308.147976","214475.201208","215241.859568","216008.453621","216774.978111","217542.194522","218308.431484","227568.571625"
"Blocked","Male","tile","14","M_tile.wav","None","733.793645632","329","226791.917815","219074.823341","219824.720078","220591.737693","221358.340712","222124.81388","222891.431121","223657.8406","227558.657178","228308.147976","229074.696581","215241.859568","216008.453621","216774.978111","217542.194522","218308.431484","228317.598978"
"Blocked","Male","tile","14","M_depth.wav","space","539.403649513","329","226791.917815","219074.823341","219824.720078","220591.737693","221358.340712","222124.81388","222891.431121","223657.8406","227558.657178","228308.147976","229074.696581","229841.506125","216008.453621","216774.978111","217542.194522","218308.431484","229084.55445"
"Blocked","Male","tile","14","M_knife.wav","None","730.68030877","329","226791.917815","219074.823341","219824.720078","220591.737693","221358.340712","222124.81388","222891.431121","223657.8406","227558.657178","228308.147976","229074.696581","229841.506125","230608.110072","216774.978111","217542.194522","218308.431484","229850.507595"
"Blocked","Male","tile","14","M_bluff.wav","None","728.649683762","329","226791.917815","219074.823341","219824.720078","220591.737693","221358.340712","222124.81388","222891.431121","223657.8406","227558.657178","228308.147976","229074.696581","229841.506125","230608.110072","231374.52728","217542.194522","218308.431484","230617.496148"
"Blocked","Male","tile","14","M_cad.wav","None","728.328765836","329","226791.917815","219074.823341","219824.720078","220591.737693","221358.340712","222124.81388","222891.431121","223657.8406","227558.657178","228308.147976","229074.696581","229841.506125","230608.110072","231374.52728","232140.860703","218308.431484","231383.739912"
"Blocked","Male","tile","14","M_tile.wav","None","727.465255186","329","226791.917815","219074.823341","219824.720078","220591.737693","221358.340712","222124.81388","222891.431121","223657.8406","227558.657178","228308.147976","229074.696581","229841.506125","230608.110072","231374.52728","232140.860703","232907.971997","232149.852898"
"Blocked","Male","tile","14","M_romp.wav","space","522.398091387","329","226791.917815","233674.933343","219824.720078","220591.737693","221358.340712","222124.81388","222891.431121","223657.8406","227558.657178","228308.147976","229074.696581","229841.506125","230608.110072","231374.52728","232140.860703","232907.971997","232917.463809"
"Blocked","Male","tile","14","M_park.wav","None","722.189278342","329","226791.917815","233674.933343","234441.576554","220591.737693","221358.340712","222124.81388","222891.431121","223657.8406","227558.657178","228308.147976","229074.696581","229841.506125","230608.110072","231374.52728","232140.860703","232907.971997","233684.73247"
"Blocked","Male","tile","14","M_cling.wav","None","721.008869819","329","226791.917815","233674.933343","234441.576554","235208.34838","221358.340712","222124.81388","222891.431121","223657.8406","227558.657178","228308.147976","229074.696581","229841.506125","230608.110072","231374.52728","232140.860703","232907.971997","234451.389284"
"Blocked","Male","tile","14","M_romp.wav","None","718.825824093","329","226791.917815","233674.933343","234441.576554","235208.34838","235958.010148","222124.81388","222891.431121","223657.8406","227558.657178","228308.147976","229074.696581","229841.506125","230608.110072","231374.52728","232140.860703","232907.971997","235218.82366"
"Blocked","Male","tile","14","M_tile.wav","None","735.31816015","329","226791.917815","233674.933343","234441.576554","235208.34838","235958.010148","236724.273699","222891.431121","223657.8406","227558.657178","228308.147976","229074.696581","229841.506125","230608.110072","231374.52728","232140.860703","232907.971997","235967.704466"
"Blocked","Male","tile","14","M_reek.wav","space","650.469690096","329","226791.917815","233674.933343","234441.576554","235208.34838","235958.010148","236724.273699","237491.214331","223657.8406","227558.657178","228308.147976","229074.696581","229841.506125","230608.110072","231374.52728","232140.860703","232907.971997","236733.216736"
"Blocked","Male","tile","14","M_park.wav","None","732.031689025","329","226791.917815","233674.933343","234441.576554","235208.34838","235958.010148","236724.273699","237491.214331","238257.791689","227558.657178","228308.147976","229074.696581","229841.506125","230608.110072","231374.52728","232140.860703","232907.971997","237500.407794"
"Blocked","Male","ball","5","M_romp.wav","None","730.174507946","329","241391.53191","233674.933343","234441.576554","235208.34838","235958.010148","236724.273699","237491.214331","238257.791689","227558.657178","228308.147976","229074.696581","229841.506125","230608.110072","231374.52728","232140.860703","232907.971997","238267.579067"
"Blocked","Male","ball","5","M_bluff.wav","None","720.590253826","329","241391.53191","233674.933343","234441.576554","235208.34838","235958.010148","236724.273699","237491.214331","238257.791689","242158.077733","228308.147976","229074.696581","229841.506125","230608.110072","231374.52728","232140.860703","232907.971997","241401.60156"
"Blocked","Male","ball","5","M_ball.wav","None","719.816711731","329","241391.53191","233674.933343","234441.576554","235208.34838","235958.010148","236724.273699","237491.214331","238257.791689","242158.077733","242924.575016","229074.696581","229841.506125","230608.110072","231374.52728","232140.860703","232907.971997","242167.663223"
"Blocked","Male","ball","5","M_gnash.wav","space","336.932272185","329","241391.53191","233674.933343","234441.576554","235208.34838","235958.010148","236724.273699","237491.214331","238257.791689","242158.077733","242924.575016","243674.069833","229841.506125","230608.110072","231374.52728","232140.860703","232907.971997","242934.638482"
"Blocked","Male","ball","5","M_ball.wav","None","728.275897913","329","241391.53191","233674.933343","234441.576554","235208.34838","235958.010148","236724.273699","237491.214331","238257.791689","242158.077733","242924.575016","243674.069833","244440.794047","230608.110072","231374.52728","232140.860703","232907.971997","243689.525524"
"Blocked","Male","ball","5","M_lash.wav","space","541.431800928","329","241391.53191","233674.933343","234441.576554","235208.34838","235958.010148","236724.273699","237491.214331","238257.791689","242158.077733","242924.575016","243674.069833","244440.794047","245207.569273","231374.52728","232140.860703","232907.971997","244450.058928"
"Blocked","Male","ball","5","M_cling.wav","None","729.907694273","329","241391.53191","233674.933343","234441.576554","235208.34838","235958.010148","236724.273699","237491.214331","238257.791689","242158.077733","242924.575016","243674.069833","244440.794047","245207.569273","245974.239072","232140.860703","232907.971997","245216.779741"
"Blocked","Male","ball","5","M_bluff.wav","None","727.922207676","329","241391.53191","233674.933343","234441.576554","235208.34838","235958.010148","236724.273699","237491.214331","238257.791689","242158.077733","242924.575016","243674.069833","244440.794047","245207.569273","245974.239072","246740.739756","232907.971997","245984.028924"
"Blocked","Male","ball","5","M_jolt.wav","None","727.813380305","329","241391.53191","233674.933343","234441.576554","235208.34838","235958.010148","236724.273699","237491.214331","238257.791689","242158.077733","242924.575016","243674.069833","244440.794047","245207.569273","245974.239072","246740.739756","247507.252498","246749.836759"
"Blocked","Male","ball","5","M_ball.wav","None","726.899475791","329","241391.53191","248274.562278","234441.576554","235208.34838","235958.010148","236724.273699","237491.214331","238257.791689","242158.077733","242924.575016","243674.069833","244440.794047","245207.569273","245974.239072","246740.739756","247507.252498","247516.042185"
"Blocked","Male","ball","5","M_lash.wav","space","411.580931861","329","241391.53191","248274.562278","249041.303805","235208.34838","235958.010148","236724.273699","237491.214331","238257.791689","242158.077733","242924.575016","243674.069833","244440.794047","245207.569273","245974.239072","246740.739756","247507.252498","248283.802735"
"Blocked","Male","ball","5","M_jaw.wav","None","720.770808868","329","241391.53191","248274.562278","249041.303805","249807.854574","235958.010148","236724.273699","237491.214331","238257.791689","242158.077733","242924.575016","243674.069833","244440.794047","245207.569273","245974.239072","246740.739756","247507.252498","249051.181151"
"Blocked","Male","ball","5","M_ball.wav","None","719.892149325","329","241391.53191","248274.562278","249041.303805","249807.854574","250557.69999","236724.273699","237491.214331","238257.791689","242158.077733","242924.575016","243674.069833","244440.794047","245207.569273","245974.239072","246740.739756","247507.252498","249817.343913"
"Blocked","Male","ball","5","M_knife.wav","space","576.605084352","329","241391.53191","248274.562278","249041.303805","249807.854574","250557.69999","251323.951483","237491.214331","238257.791689","242158.077733","242924.575016","243674.069833","244440.794047","245207.569273","245974.239072","246740.739756","247507.252498","250566.718463"
"Blocked","Male","ball","5","M_park.wav","None","733.140988741","329","241391.53191","248274.562278","249041.303805","249807.854574","250557.69999","251323.951483","252090.124138","238257.791689","242158.077733","242924.575016","243674.069833","244440.794047","245207.569273","245974.239072","246740.739756","247507.252498","251333.330448"
"Blocked","Male","ball","5","M_knife.wav","None","733.026595786","329","241391.53191","248274.562278","249041.303805","249807.854574","250557.69999","251323.951483","252090.124138","252857.456797","242158.077733","242924.575016","243674.069833","244440.794047","245207.569273","245974.239072","246740.739756","247507.252498","252098.787994"
"Blocked","Male","tile","15","M_jaw.wav","None","730.078046676","329","255990.873317","248274.562278","249041.303805","249807.854574","250557.69999","251323.951483","252090.124138","252857.456797","242158.077733","242924.575016","243674.069833","244440.794047","245207.569273","245974.239072","246740.739756","247507.252498","252866.808864"
"Blocked","Male","tile","15","M_gnash.wav","None","721.677294001","329","255990.873317","248274.562278","249041.303805","249807.854574","250557.69999","251323.951483","252090.124138","252857.456797","256757.529823","242924.575016","243674.069833","244440.794047","245207.569273","245974.239072","246740.739756","247507.252498","256000.118103"
"Blocked","Male","tile","15","M_knife.wav","None","719.878545497","329","255990.873317","248274.562278","249041.303805","249807.854574","250557.69999","251323.951483","252090.124138","252857.456797","256757.529823","257507.261773","243674.069833","244440.794047","245207.569273","245974.239072","246740.739756","247507.252498","256767.397585"
"Blocked","Male","tile","15","M_depth.wav","None","735.491294879","329","255990.873317","248274.562278","249041.303805","249807.854574","250557.69999","251323.951483","252090.124138","252857.456797","256757.529823","257507.261773","258273.41495","244440.794047","245207.569273","245974.239072","246740.739756","247507.252498","257516.71432"
"Blocked","Male","tile","15","M_tile.wav","None","734.866772778","329","255990.873317","248274.562278","249041.303805","249807.854574","250557.69999","251323.951483","252090.124138","252857.456797","256757.529823","257507.261773","258273.41495","259040.412779","245207.569273","245974.239072","246740.739756","247507.252498","258282.622326"
"Blocked","Male","tile","15","M_lash.wav","space","461.348250974","329","255990.873317","248274.562278","249041.303805","249807.854574","250557.69999","251323.951483","252090.124138","252857.456797","256757.529823","257507.261773","258273.41495","259040.412779","259807.196971","245974.239072","246740.739756","247507.252498","259049.71878"
"Blocked","Male","tile","15","M_tile.wav","None","730.679381639","329","255990.873317","248274.562278","249041.303805","249807.854574","250557.69999","251323.951483","252090.124138","252857.456797","256757.529823","257507.261773","258273.41495","259040.412779","259807.196971","260573.735064","246740.739756","247507.252498","259816.727429"
"Blocked","Male","tile","15","M_cad.wav","space","479.838749394","329","255990.873317","248274.562278","249041.303805","249807.854574","250557.69999","251323.951483","252090.124138","252857.456797","256757.529823","257507.261773","258273.41495","259040.412779","259807.196971","260573.735064","261340.359416","247507.252498","260583.192868"
"Blocked","Male","tile","15","M_reek.wav","None","726.75911244","329","255990.873317","248274.562278","249041.303805","249807.854574","250557.69999","251323.951483","252090.124138","252857.456797","256757.529823","257507.261773","258273.41495","259040.412779","259807.196971","260573.735064","261340.359416","262107.006028","261349.487335"
"Blocked","Male","tile","15","M_tile.wav","None","725.855410099","329","255990.873317","262874.082694","249041.303805","249807.854574","250557.69999","251323.951483","252090.124138","252857.456797","256757.529823","257507.261773","258273.41495","259040.412779","259807.196971","260573.735064","261340.359416","262107.006028","262116.081079"
"Blocked","Male","tile","15","M_priest.wav","space","498.874932528","329","255990.873317","262874.082694","263640.993955","249807.854574","250557.69999","251323.951483","252090.124138","252857.456797","256757.529823","257507.261773","258273.41495","259040.412779","259807.196971","260573.735064","261340.359416","262107.006028","262884.074433"
"Blocked","Male","tile","15","M_lash.wav","None","720.586234704","329","255990.873317","262874.082694","263640.993955","264407.183615","250557.69999","251323.951483","252090.124138","252857.456797","256757.529823","257507.261773","258273.41495","259040.412779","259807.196971","260573.735064","261340.359416","262107.006028","263650.474946"
"Blocked","Male","tile","15","M_lash.wav","None","719.520527869","329","255990.873317","262874.082694","263640.993955","264407.183615","265156.445936","251323.951483","252090.124138","252857.456797","256757.529823","257507.261773","258273.41495","259040.412779","259807.196971","260573.735064","261340.359416","262107.006028","264417.064362"
"Blocked","Male","tile","15","M_depth.wav","None","736.628110986","329","255990.873317","262874.082694","263640.993955","264407.183615","265156.445936","265923.124393","252090.124138","252857.456797","256757.529823","257507.261773","258273.41495","259040.412779","259807.196971","260573.735064","261340.359416","262107.006028","265165.471521"
"Blocked","Male","tile","15","M_tile.wav","None","735.188927501","329","255990.873317","262874.082694","263640.993955","264407.183615","265156.445936","265923.124393","266690.016485","252857.456797","256757.529823","257507.261773","258273.41495","259040.412779","259807.196971","260573.735064","261340.359416","262107.006028","265932.368251"
"Blocked","Male","tile","15","M_cling.wav","space","395.466091577","329","255990.873317","262874.082694","263640.993955","264407.183615","265156.445936","265923.124393","266690.016485","267456.919089","256757.529823","257507.261773","258273.41495","259040.412779","259807.196971","260573.735064","261340.359416","262107.006028","266699.337636"
"Blocked","Male","done","23","M_gnash.wav","None","731.079755817","329","270590.572434","262874.082694","263640.993955","264407.183615","265156.445936","265923.124393","266690.016485","267456.919089","256757.529823","257507.261773","258273.41495","259040.412779","259807.196971","260573.735064","261340.359416","262107.006028","267466.345666"
"Blocked","Male","done","23","M_park.wav","None","720.012725331","329","270590.572434","262874.082694","263640.993955","264407.183615","265156.445936","265923.124393","266690.016485","267456.919089","271357.241924","257507.261773","258273.41495","259040.412779","259807.196971","260573.735064","261340.359416","262107.006028","270600.892202"
"Blocked","Male","done","23","M_done.wav","None","719.602766447","329","270590.572434","262874.082694","263640.993955","264407.183615","265156.445936","265923.124393","266690.016485","267456.919089","271357.241924","272106.36512","258273.41495","259040.412779","259807.196971","260573.735064","261340.359416","262107.006028","271366.789696"
"Blocked","Male","done","23","M_bluff.wav","space","643.534091767","329","270590.572434","262874.082694","263640.993955","264407.183615","265156.445936","265923.124393","266690.016485","267456.919089","271357.241924","272106.36512","272872.882189","259040.412779","259807.196971","260573.735064","261340.359416","262107.006028","272115.143368"
"Blocked","Male","done","23","M_greet.wav","None","734.195565805","329","270590.572434","262874.082694","263640.993955","264407.183615","265156.445936","265923.124393","266690.016485","267456.919089","271357.241924","272106.36512","272872.882189","273639.662053","259807.196971","260573.735064","261340.359416","262107.006028","272882.091111"
"Blocked","Male","done","23","M_done.wav","None","732.617873698","329","270590.572434","262874.082694","263640.993955","264407.183615","265156.445936","265923.124393","266690.016485","267456.919089","271357.241924","272106.36512","272872.882189","273639.662053","274406.347311","260573.735064","261340.359416","262107.006028","273648.679908"
"Blocked","Male","done","23","M_reek.wav","space","502.876821905","329","270590.572434","262874.082694","263640.993955","264407.183615","265156.445936","265923.124393","266690.016485","267456.919089","271357.241924","272106.36512","272872.882189","273639.662053","274406.347311","275173.342666","261340.359416","262107.006028","274415.738025"
"Blocked","Male","done","23","M_romp.wav","None","727.491225582","329","270590.572434","262874.082694","263640.993955","264407.183615","265156.445936","265923.124393","266690.016485","267456.919089","271357.241924","272106.36512","272872.882189","273639.662053","274406.347311","275173.342666","275939.989587","262107.006028","275182.903732"
"Blocked","Male","done","23","M_depth.wav","None","726.085741073","329","270590.572434","262874.082694","263640.993955","264407.183615","265156.445936","265923.124393","266690.016485","267456.919089","271357.241924","272106.36512","272872.882189","273639.662053","274406.347311","275173.342666","275939.989587","276706.239844","275949.638148"
"Blocked","Male","done","23","M_knife.wav","None","726.221466903","329","270590.572434","277473.077523","263640.993955","264407.183615","265156.445936","265923.124393","266690.016485","267456.919089","271357.241924","272106.36512","272872.882189","273639.662053","274406.347311","275173.342666","275939.989587","276706.239844","276715.008199"
"Blocked","Male","done","23","M_knife.wav","None","724.607911427","329","270590.572434","277473.077523","278240.385139","264407.183615","265156.445936","265923.124393","266690.016485","267456.919089","271357.241924","272106.36512","272872.882189","273639.662053","274406.347311","275173.342666","275939.989587","276706.239844","277482.019631"
"Blocked","Male","done","23","M_done.wav","None","722.064683214","329","270590.572434","277473.077523","278240.385139","279007.014746","265156.445936","265923.124393","266690.016485","267456.919089","271357.241924","272106.36512","272872.882189","273639.662053","274406.347311","275173.342666","275939.989587","276706.239844","278250.176845"
"Blocked","Male","done","23","M_priest.wav","None","721.151087433","329","270590.572434","277473.077523","278240.385139","279007.014746","279773.51914","265923.124393","266690.016485","267456.919089","271357.241924","272106.36512","272872.882189","273639.662053","274406.347311","275173.342666","275939.989587","276706.239844","279016.966602"
"Blocked","Male","done","23","M_done.wav","space","215.430524666","329","270590.572434","277473.077523","278240.385139","279007.014746","279773.51914","280523.258511","266690.016485","267456.919089","271357.241924","272106.36512","272872.882189","273639.662053","274406.347311","275173.342666","275939.989587","276706.239844","279783.00817"
"Blocked","Male","done","23","M_park.wav","space","633.852449711","329","270590.572434","277473.077523","278240.385139","279007.014746","279773.51914","280523.258511","281289.277199","267456.919089","271357.241924","272106.36512","272872.882189","273639.662053","274406.347311","275173.342666","275939.989587","276706.239844","280532.558637"
"Blocked","Male","done","23","M_jaw.wav","None","734.052729793","329","270590.572434","277473.077523","278240.385139","279007.014746","279773.51914","280523.258511","281289.277199","282056.46022","271357.241924","272106.36512","272872.882189","273639.662053","274406.347311","275173.342666","275939.989587","276706.239844","281298.27434"
"Blocked","Male","tile","16","M_gnash.wav","None","731.993969996","329","285190.278352","277473.077523","278240.385139","279007.014746","279773.51914","280523.258511","281289.277199","282056.46022","271357.241924","272106.36512","272872.882189","273639.662053","274406.347311","275173.342666","275939.989587","276706.239844","282065.897927"
"Blocked","Male","tile","16","M_romp.wav","None","721.341535915","329","285190.278352","277473.077523","278240.385139","279007.014746","279773.51914","280523.258511","281289.277199","282056.46022","285956.746263","272106.36512","272872.882189","273639.662053","274406.347311","275173.342666","275939.989587","276706.239844","285199.52963"
"Blocked","Male","tile","16","M_depth.wav","None","719.638011884","329","285190.278352","277473.077523","278240.385139","279007.014746","279773.51914","280523.258511","281289.277199","282056.46022","285956.746263","286723.310946","272872.882189","273639.662053","274406.347311","275173.342666","275939.989587","276706.239844","285966.831062"
"Blocked","Male","tile","16","M_cad.wav","None","718.945472036","329","285190.278352","277473.077523","278240.385139","279007.014746","279773.51914","280523.258511","281289.277199","282056.46022","285956.746263","286723.310946","287472.826786","273639.662053","274406.347311","275173.342666","275939.989587","276706.239844","286733.197258"
"Blocked","Male","tile","16","M_romp.wav","None","735.031250864","329","285190.278352","277473.077523","278240.385139","279007.014746","279773.51914","280523.258511","281289.277199","282056.46022","285956.746263","286723.310946","287472.826786","288239.4802","274406.347311","275173.342666","275939.989587","276706.239844","287482.430208"
"Blocked","Male","tile","16","M_tile.wav","None","733.645553235","329","285190.278352","277473.077523","278240.385139","279007.014746","279773.51914","280523.258511","281289.277199","282056.46022","285956.746263","286723.310946","287472.826786","288239.4802","289006.281706","275173.342666","275939.989587","276706.239844","288249.068782"
"Blocked","Male","tile","16","M_greet.wav","space","718.490993138","329","285190.278352","277473.077523","278240.385139","279007.014746","279773.51914","280523.258511","281289.277199","282056.46022","285956.746263","286723.310946","287472.826786","288239.4802","289006.281706","289772.312761","275939.989587","276706.239844","289015.666236"
"Blocked","Male","tile","16","M_tile.wav","None","732.612926979","329","285190.278352","277473.077523","278240.385139","279007.014746","279773.51914","280523.258511","281289.277199","282056.46022","285956.746263","286723.310946","287472.826786","288239.4802","289006.281706","289772.312761","290539.680665","276706.239844","289781.135839"
"Blocked","Male","tile","16","M_lash.wav","space","657.268635929","329","285190.278352","277473.077523","278240.385139","279007.014746","279773.51914","280523.258511","281289.277199","282056.46022","285956.746263","286723.310946","287472.826786","288239.4802","289006.281706","289772.312761","290539.680665","291306.190624","290548.880312"
"Blocked","Male","tile","16","M_tile.wav","None","728.222411592","329","285190.278352","292072.797662","278240.385139","279007.014746","279773.51914","280523.258511","281289.277199","282056.46022","285956.746263","286723.310946","287472.826786","288239.4802","289006.281706","289772.312761","290539.680665","291306.190624","291315.732831"
"Blocked","Male","tile","16","M_cad.wav","space","403.890959918","329","285190.278352","292072.797662","292839.941728","279007.014746","279773.51914","280523.258511","281289.277199","282056.46022","285956.746263","286723.310946","287472.826786","288239.4802","289006.281706","289772.312761","290539.680665","291306.190624","292082.154058"
"Blocked","Male","tile","16","M_tile.wav","None","723.544368055","329","285190.278352","292072.797662","292839.941728","293606.37996","279773.51914","280523.258511","281289.277199","282056.46022","285956.746263","286723.310946","287472.826786","288239.4802","289006.281706","289772.312761","290539.680665","291306.190624","292849.613477"
"Blocked","Male","tile","16","M_lash.wav","space","349.740235601","329","285190.278352","292072.797662","292839.941728","293606.37996","294373.158587","280523.258511","281289.277199","282056.46022","285956.746263","286723.310946","287472.826786","288239.4802","289006.281706","289772.312761","290539.680665","291306.190624","293616.265654"
"Blocked","Male","tile","16","M_park.wav","None","719.512489159","329","285190.278352","292072.797662","292839.941728","293606.37996","294373.158587","295139.943398","281289.277199","282056.46022","285956.746263","286723.310946","287472.826786","288239.4802","289006.281706","289772.312761","290539.680665","291306.190624","294383.224217"
"Blocked","Male","tile","16","M_cling.wav","None","719.078415073","329","285190.278352","292072.797662","292839.941728","293606.37996","294373.158587","295139.943398","295888.842445","282056.46022","285956.746263","286723.310946","287472.826786","288239.4802","289006.281706","289772.312761","290539.680665","291306.190624","295149.206424"
"Blocked","Male","tile","16","M_priest.wav","None","735.237776302","329","285190.278352","292072.797662","292839.941728","293606.37996","294373.158587","295139.943398","295888.842445","296656.029485","285956.746263","286723.310946","287472.826786","288239.4802","289006.281706","289772.312761","290539.680665","291306.190624","295898.081047"
"Blocked","Male","cave","9","M_jolt.wav","None","739.693835843","329","299789.744354","292072.797662","292839.941728","293606.37996","294373.158587","295139.943398","295888.842445","296656.029485","285956.746263","286723.310946","287472.826786","288239.4802","289006.281706","289772.312761","290539.680665","291306.190624","296659.933059"
"Blocked","Male","cave","9","M_lash.wav","None","720.909934957","329","299789.744354","292072.797662","292839.941728","293606.37996","294373.158587","295139.943398","295888.842445","296656.029485","300556.173001","286723.310946","287472.826786","288239.4802","289006.281706","289772.312761","290539.680665","291306.190624","299799.468662"
"Blocked","Male","cave","9","M_bluff.wav","None","725.344043691","329","299789.744354","292072.797662","292839.941728","293606.37996","294373.158587","295139.943398","295888.842445","296656.029485","300556.173001","301305.705846","287472.826786","288239.4802","289006.281706","289772.312761","290539.680665","291306.190624","300560.169017"
"Blocked","Male","cave","9","M_romp.wav","None","736.720243469","329","299789.744354","292072.797662","292839.941728","293606.37996","294373.158587","295139.943398","295888.842445","296656.029485","300556.173001","301305.705846","302072.304846","288239.4802","289006.281706","289772.312761","290539.680665","291306.190624","301314.54933"
"Blocked","Male","cave","9","M_cave.wav","None","734.831527341","329","299789.744354","292072.797662","292839.941728","293606.37996","294373.158587","295139.943398","295888.842445","296656.029485","300556.173001","301305.705846","302072.304846","302838.74215","289006.281706","289772.312761","290539.680665","291306.190624","302081.997927"
"Blocked","Male","cave","9","M_priest.wav","space","542.140108068","329","299789.744354","292072.797662","292839.941728","293606.37996","294373.158587","295139.943398","295888.842445","296656.029485","300556.173001","301305.705846","302072.304846","302838.74215","303605.848806","289772.312761","290539.680665","291306.190624","302847.619643"
"Blocked","Male","cave","9","M_cave.wav","None","731.25629127","329","299789.744354","292072.797662","292839.941728","293606.37996","294373.158587","295139.943398","295888.842445","296656.029485","300556.173001","301305.705846","302072.304846","302838.74215","303605.848806","304371.994564","290539.680665","291306.190624","303615.185415"
"Blocked","Male","cave","9","M_dime.wav","space","392.975422554","329","299789.744354","292072.797662","292839.941728","293606.37996","294373.158587","295139.943398","295888.842445","296656.029485","300556.173001","301305.705846","302072.304846","302838.74215","303605.848806","304371.994564","305139.210047","291306.190624","304380.753644"
"Blocked","Male","cave","9","M_lash.wav","space","0.0636889599264","329","299789.744354","292072.797662","292839.941728","293606.37996","294373.158587","295139.943398","295888.842445","296656.029485","300556.173001","301305.705846","302072.304846","302838.74215","303605.848806","304371.994564","305139.210047","305906.19891","305148.65301"
"Blocked","Male","cave","9","M_cave.wav","None","722.790613305","329","299789.744354","306672.348996","292839.941728","293606.37996","294373.158587","295139.943398","295888.842445","296656.029485","300556.173001","301305.705846","302072.304846","302838.74215","303605.848806","304371.994564","305139.210047","305906.19891","305916.567217"
"Blocked","Male","cave","9","M_knife.wav","space","380.136541557","329","299789.744354","306672.348996","307438.654903","293606.37996","294373.158587","295139.943398","295888.842445","296656.029485","300556.173001","301305.705846","302072.304846","302838.74215","303605.848806","304371.994564","305139.210047","305906.19891","306681.496702"
"Blocked","Male","cave","9","M_cave.wav","None","721.426248085","329","299789.744354","306672.348996","307438.654903","308205.770215","294373.158587","295139.943398","295888.842445","296656.029485","300556.173001","301305.705846","302072.304846","302838.74215","303605.848806","304371.994564","305139.210047","305906.19891","307447.683888"
"Blocked","Male","cave","9","M_jaw.wav","space","422.544390429","329","299789.744354","306672.348996","307438.654903","308205.770215","308955.263487","295139.943398","295888.842445","296656.029485","300556.173001","301305.705846","302072.304846","302838.74215","303605.848806","304371.994564","305139.210047","305906.19891","308215.064159"
"Blocked","Male","cave","9","M_depth.wav","None","733.67647035","329","299789.744354","306672.348996","307438.654903","308205.770215","308955.263487","309722.286358","295888.842445","296656.029485","300556.173001","301305.705846","302072.304846","302838.74215","303605.848806","304371.994564","305139.210047","305906.19891","308964.702431"
"Blocked","Male","cave","9","M_lash.wav","None","732.525741681","329","299789.744354","306672.348996","307438.654903","308205.770215","308955.263487","309722.286358","310488.432733","296656.029485","300556.173001","301305.705846","302072.304846","302838.74215","303605.848806","304371.994564","305139.210047","305906.19891","309731.769513"
"Blocked","Male","cave","9","M_depth.wav","None","732.667032164","329","299789.744354","306672.348996","307438.654903","308205.770215","308955.263487","309722.286358","310488.432733","311255.316478","300556.173001","301305.705846","302072.304846","302838.74215","303605.848806","304371.994564","305139.210047","305906.19891","310497.210364"
"Blocked","Male","ball","6","M_depth.wav","None","731.620493345","329","314389.254568","306672.348996","307438.654903","308205.770215","308955.263487","309722.286358","310488.432733","311255.316478","300556.173001","301305.705846","302072.304846","302838.74215","303605.848806","304371.994564","305139.210047","305906.19891","311264.264152"
"Blocked","Male","ball","6","M_bluff.wav","None","721.415427513","329","314389.254568","306672.348996","307438.654903","308205.770215","308955.263487","309722.286358","310488.432733","311255.316478","315155.761126","301305.705846","302072.304846","302838.74215","303605.848806","304371.994564","305139.210047","305906.19891","314398.629204"
"Blocked","Male","ball","6","M_ball.wav","None","719.986136537","329","314389.254568","306672.348996","307438.654903","308205.770215","308955.263487","309722.286358","310488.432733","311255.316478","315155.761126","315905.110633","302072.304846","302838.74215","303605.848806","304371.994564","305139.210047","305906.19891","315165.26345"
"Blocked","Male","ball","6","M_dime.wav","space","440.448085312","329","314389.254568","306672.348996","307438.654903","308205.770215","308955.263487","309722.286358","310488.432733","311255.316478","315155.761126","315905.110633","316672.132886","302838.74215","303605.848806","304371.994564","305139.210047","305906.19891","315908.912181"
"Blocked","Male","ball","6","M_priest.wav","None","732.814506162","329","314389.254568","306672.348996","307438.654903","308205.770215","308955.263487","309722.286358","310488.432733","311255.316478","315155.761126","315905.110633","316672.132886","317438.303377","303605.848806","304371.994564","305139.210047","305906.19891","316681.569975"
"Blocked","Male","ball","6","M_cad.wav","None","733.074826188","329","314389.254568","306672.348996","307438.654903","308205.770215","308955.263487","309722.286358","310488.432733","311255.316478","315155.761126","315905.110633","316672.132886","317438.303377","318205.10612","304371.994564","305139.210047","305906.19891","317447.048236"
"Blocked","Male","ball","6","M_depth.wav","None","731.541036628","329","314389.254568","306672.348996","307438.654903","308205.770215","308955.263487","309722.286358","310488.432733","311255.316478","315155.761126","315905.110633","316672.132886","317438.303377","318205.10612","318971.697699","305139.210047","305906.19891","318214.150873"
"Blocked","Male","ball","6","M_ball.wav","None","729.873685632","329","314389.254568","306672.348996","307438.654903","308205.770215","308955.263487","309722.286358","310488.432733","311255.316478","315155.761126","315905.110633","316672.132886","317438.303377","318205.10612","318971.697699","319738.81394","305906.19891","318980.999681"
"Blocked","Male","ball","6","M_dime.wav","space","401.41482139","329","314389.254568","306672.348996","307438.654903","308205.770215","308955.263487","309722.286358","310488.432733","311255.316478","315155.761126","315905.110633","316672.132886","317438.303377","318205.10612","318971.697699","319738.81394","320505.264847","319747.846325"
"Blocked","Male","ball","6","M_cad.wav","None","726.179110352","329","314389.254568","321272.211972","307438.654903","308205.770215","308955.263487","309722.286358","310488.432733","311255.316478","315155.761126","315905.110633","316672.132886","317438.303377","318205.10612","318971.697699","319738.81394","320505.264847","320514.554153"
"Blocked","Male","ball","6","M_ball.wav","None","724.804543424","329","314389.254568","321272.211972","322038.435331","308205.770215","308955.263487","309722.286358","310488.432733","311255.316478","315155.761126","315905.110633","316672.132886","317438.303377","318205.10612","318971.697699","319738.81394","320505.264847","321281.492312"
"Blocked","Male","ball","6","M_jolt.wav","space","445.838146377","329","314389.254568","321272.211972","322038.435331","322805.62237","308955.263487","309722.286358","310488.432733","311255.316478","315155.761126","315905.110633","316672.132886","317438.303377","318205.10612","318971.697699","319738.81394","320505.264847","322047.342194"
"Blocked","Male","ball","6","M_ball.wav","None","720.281393733","329","314389.254568","321272.211972","322038.435331","322805.62237","323572.242085","309722.286358","310488.432733","311255.316478","315155.761126","315905.110633","316672.132886","317438.303377","318205.10612","318971.697699","319738.81394","320505.264847","322815.082338"
"Blocked","Male","ball","6","M_dime.wav","space","494.883245323","329","314389.254568","321272.211972","322038.435331","322805.62237","323572.242085","324321.731955","310488.432733","311255.316478","315155.761126","315905.110633","316672.132886","317438.303377","318205.10612","318971.697699","319738.81394","320505.264847","323582.224858"
"Blocked","Male","ball","6","M_cad.wav","None","734.749288298","329","314389.254568","321272.211972","322038.435331","322805.62237","323572.242085","324321.731955","325088.290454","311255.316478","315155.761126","315905.110633","316672.132886","317438.303377","318205.10612","318971.697699","319738.81394","320505.264847","324330.854001"
"Blocked","Male","ball","6","M_depth.wav","None","734.171450604","329","314389.254568","321272.211972","322038.435331","322805.62237","323572.242085","324321.731955","325088.290454","325855.101544","315155.761126","315905.110633","316672.132886","317438.303377","318205.10612","318971.697699","319738.81394","320505.264847","325097.119097"
"Blocked","Male","done","20","M_gnash.wav","None","732.651264407","329","328988.901434","321272.211972","322038.435331","322805.62237","323572.242085","324321.731955","325088.290454","325855.101544","315155.761126","315905.110633","316672.132886","317438.303377","318205.10612","318971.697699","319738.81394","320505.264847","325864.565221"
"Blocked","Male","done","20","M_done.wav","None","720.35744926","329","328988.901434","321272.211972","322038.435331","322805.62237","323572.242085","324321.731955","325088.290454","325855.101544","329755.503526","315905.110633","316672.132886","317438.303377","318205.10612","318971.697699","319738.81394","320505.264847","328999.060743"
"Blocked","Male","done","20","M_lash.wav","None","719.716541003","329","328988.901434","321272.211972","322038.435331","322805.62237","323572.242085","324321.731955","325088.290454","325855.101544","329755.503526","330522.126023","316672.132886","317438.303377","318205.10612","318971.697699","319738.81394","320505.264847","329765.498975"
"Blocked","Male","done","20","M_depth.wav","space","73.579242453","329","328988.901434","321272.211972","322038.435331","322805.62237","323572.242085","324321.731955","325088.290454","325855.101544","329755.503526","330522.126023","331271.551895","317438.303377","318205.10612","318971.697699","319738.81394","320505.264847","330531.363079"
"Blocked","Male","done","20","M_done.wav","None","733.946375083","329","328988.901434","321272.211972","322038.435331","322805.62237","323572.242085","324321.731955","325088.290454","325855.101544","329755.503526","330522.126023","331271.551895","332038.622687","318205.10612","318971.697699","319738.81394","320505.264847","331280.874591"
"Blocked","Male","done","20","M_priest.wav","space","548.86083398","329","328988.901434","321272.211972","322038.435331","322805.62237","323572.242085","324321.731955","325088.290454","325855.101544","329755.503526","330522.126023","331271.551895","332038.622687","332804.978989","318971.697699","319738.81394","320505.264847","332048.014947"
"Blocked","Male","done","20","M_bluff.wav","None","729.586467613","329","328988.901434","321272.211972","322038.435331","322805.62237","323572.242085","324321.731955","325088.290454","325855.101544","329755.503526","330522.126023","331271.551895","332038.622687","332804.978989","333571.493586","319738.81394","320505.264847","332814.429372"
"Blocked","Male","done","20","M_done.wav","None","729.235250503","329","328988.901434","321272.211972","322038.435331","322805.62237","323572.242085","324321.731955","325088.290454","325855.101544","329755.503526","330522.126023","331271.551895","332038.622687","332804.978989","333571.493586","334337.792382","320505.264847","333580.670045"
"Blocked","Male","done","20","M_cling.wav","space","459.310824051","329","328988.901434","321272.211972","322038.435331","322805.62237","323572.242085","324321.731955","325088.290454","325855.101544","329755.503526","330522.126023","331271.551895","332038.622687","332804.978989","333571.493586","334337.792382","335104.805669","334345.512962"
"Blocked","Male","done","20","M_cling.wav","None","725.422882009","329","328988.901434","335871.448261","322038.435331","322805.62237","323572.242085","324321.731955","325088.290454","325855.101544","329755.503526","330522.126023","331271.551895","332038.622687","332804.978989","333571.493586","334337.792382","335104.805669","335114.28666"
"Blocked","Male","done","20","M_bluff.wav","None","724.484861828","329","328988.901434","335871.448261","336637.964713","322805.62237","323572.242085","324321.731955","325088.290454","325855.101544","329755.503526","330522.126023","331271.551895","332038.622687","332804.978989","333571.493586","334337.792382","335104.805669","335880.919668"
"Blocked","Male","done","20","M_done.wav","None","723.988953978","329","328988.901434","335871.448261","336637.964713","337404.542998","323572.242085","324321.731955","325088.290454","325855.101544","329755.503526","330522.126023","331271.551895","332038.622687","332804.978989","333571.493586","334337.792382","335104.805669","336647.252473"
"Blocked","Male","done","20","M_depth.wav","space","423.257026356","329","328988.901434","335871.448261","336637.964713","337404.542998","338171.85587","324321.731955","325088.290454","325855.101544","329755.503526","330522.126023","331271.551895","332038.622687","332804.978989","333571.493586","334337.792382","335104.805669","337413.43935"
"Blocked","Male","done","20","M_jolt.wav","None","719.350175466","329","328988.901434","335871.448261","336637.964713","337404.542998","338171.85587","338938.456416","325088.290454","325855.101544","329755.503526","330522.126023","331271.551895","332038.622687","332804.978989","333571.493586","334337.792382","335104.805669","338181.804635"
"Blocked","Male","done","20","M_dime.wav","None","718.368562404","329","328988.901434","335871.448261","336637.964713","337404.542998","338171.85587","338938.456416","339687.564153","325855.101544","329755.503526","330522.126023","331271.551895","332038.622687","332804.978989","333571.493586","334337.792382","335104.805669","338948.429605"
"Blocked","Male","done","20","M_depth.wav","None","736.770329531","329","328988.901434","335871.448261","336637.964713","337404.542998","338171.85587","338938.456416","339687.564153","340454.13038","329755.503526","330522.126023","331271.551895","332038.622687","332804.978989","333571.493586","334337.792382","335104.805669","339696.476272"
"Blocked","Male","done","22","M_priest.wav","None","736.410456244","329","343588.467917","335871.448261","336637.964713","337404.542998","338171.85587","338938.456416","339687.564153","340454.13038","329755.503526","330522.126023","331271.551895","332038.622687","332804.978989","333571.493586","334337.792382","335104.805669","340462.835356"
"Blocked","Male","done","22","M_greet.wav","None","720.650542062","329","343588.467917","335871.448261","336637.964713","337404.542998","338171.85587","338938.456416","339687.564153","340454.13038","344354.244217","330522.126023","331271.551895","332038.622687","332804.978989","333571.493586","334337.792382","335104.805669","343598.097928"
"Blocked","Male","done","22","M_gnash.wav","None","721.589799039","329","343588.467917","335871.448261","336637.964713","337404.542998","338171.85587","338938.456416","339687.564153","340454.13038","344354.244217","345121.468048","331271.551895","332038.622687","332804.978989","333571.493586","334337.792382","335104.805669","344363.224044"
"Blocked","Male","done","22","M_done.wav","None","719.55113532","329","343588.467917","335871.448261","336637.964713","337404.542998","338171.85587","338938.456416","339687.564153","340454.13038","344354.244217","345121.468048","345887.636375","332038.622687","332804.978989","333571.493586","334337.792382","335104.805669","345131.501216"
"Blocked","Male","done","22","M_cad.wav","space","475.493063685","329","343588.467917","335871.448261","336637.964713","337404.542998","338171.85587","338938.456416","339687.564153","340454.13038","344354.244217","345121.468048","345887.636375","346637.281448","332804.978989","333571.493586","334337.792382","335104.805669","345896.99277"
"Blocked","Male","done","22","M_gnash.wav","None","735.623929184","329","343588.467917","335871.448261","336637.964713","337404.542998","338171.85587","338938.456416","339687.564153","340454.13038","344354.244217","345121.468048","345887.636375","346637.281448","347404.530322","333571.493586","334337.792382","335104.805669","346645.532872"
