"Condition","Talker","Target","Trial","current_stimulus","response_response","response_time_response","subject_nr","time_Audio1","time_Audio10","time_Audio11","time_Audio12","time_Audio13","time_Audio14","time_Audio15","time_Audio16","time_Audio2","time_Audio3","time_Audio4","time_Audio5","time_Audio6","time_Audio7","time_Audio8","time_Audio9","time_response"
"Mixed","Male","cave","13","M_gnash.wav","NA","NA","408","149373.793362","NA","NA","NA","NA","NA","NA","NA","NA","NA","NA","NA","NA","NA","NA","NA","NA"
"Mixed","Male","cave","13","M_cave.wav","None","739.022193492","408","149373.793362","NA","NA","NA","NA","NA","NA","NA","150140.477933","NA","NA","NA","NA","NA","NA","NA","149380.864571"
"Mixed","Male","cave","13","F_dime.wav","space","671.576408923","408","149373.793362","NA","NA","NA","NA","NA","NA","NA","150140.477933","150907.21306","NA","NA","NA","NA","NA","NA","150145.619515"
"Mixed","Male","cave","13","F_jolt.wav","None","732.222178062","408","149373.793362","NA","NA","NA","NA","NA","NA","NA","150140.477933","150907.21306","151674.220843","NA","NA","NA","NA","NA","150912.611225"
"Mixed","Male","cave","13","F_reek.wav","None","727.341854126","408","149373.793362","NA","NA","NA","NA","NA","NA","NA","150140.477933","150907.21306","151674.220843","152423.844737","NA","NA","NA","NA","151679.880265"
"Mixed","Male","cave","13","F_park.wav","None","740.564317409","408","149373.793362","NA","NA","NA","NA","NA","NA","NA","150140.477933","150907.21306","151674.220843","152423.844737","153190.545381","NA","NA","NA","152429.071944"
"Mixed","Male","cave","13","M_cave.wav","None","736.542872039","408","149373.793362","NA","NA","NA","NA","NA","NA","NA","150140.477933","150907.21306","151674.220843","152423.844737","153190.545381","153957.286061","NA","NA","153195.597246"
"Mixed","Male","cave","13","F_reek.wav","space","502.647941029","408","149373.793362","NA","NA","NA","NA","NA","NA","NA","150140.477933","150907.21306","151674.220843","152423.844737","153190.545381","153957.286061","154724.23978","NA","153962.534308"
"Mixed","Male","cave","13","M_cave.wav","None","726.808817547","408","149373.793362","NA","NA","NA","NA","NA","NA","NA","150140.477933","150907.21306","151674.220843","152423.844737","153190.545381","153957.286061","154724.23978","155473.946961","154730.128022"
"Mixed","Male","cave","13","F_cling.wav","space","546.035189766","408","149373.793362","156240.68238","NA","NA","NA","NA","NA","NA","150140.477933","150907.21306","151674.220843","152423.844737","153190.545381","153957.286061","154724.23978","155473.946961","155479.154295"
"Mixed","Male","cave","13","F_dime.wav","None","735.927132965","408","149373.793362","156240.68238","157007.298568","NA","NA","NA","NA","NA","150140.477933","150907.21306","151674.220843","152423.844737","153190.545381","153957.286061","154724.23978","155473.946961","156245.868967"
"Mixed","Male","cave","13","M_cave.wav","None","731.808081115","408","149373.793362","156240.68238","157007.298568","157774.286771","NA","NA","NA","NA","150140.477933","150907.21306","151674.220843","152423.844737","153190.545381","153957.286061","154724.23978","155473.946961","157012.425539"
"Mixed","Male","cave","13","M_dime.wav","space","405.339249728","408","149373.793362","156240.68238","157007.298568","157774.286771","158524.019376","NA","NA","NA","150140.477933","150907.21306","151674.220843","152423.844737","153190.545381","153957.286061","154724.23978","155473.946961","157779.813519"
"Mixed","Male","cave","13","M_gnash.wav","None","740.117197911","408","149373.793362","156240.68238","157007.298568","157774.286771","158524.019376","159290.703071","NA","NA","150140.477933","150907.21306","151674.220843","152423.844737","153190.545381","153957.286061","154724.23978","155473.946961","158529.419002"
"Mixed","Male","cave","13","M_depth.wav","None","736.179623975","408","149373.793362","156240.68238","157007.298568","157774.286771","158524.019376","159290.703071","160057.423002","NA","150140.477933","150907.21306","151674.220843","152423.844737","153190.545381","153957.286061","154724.23978","155473.946961","159295.856342"
"Mixed","Male","cave","13","F_jolt.wav","None","732.083366453","408","149373.793362","156240.68238","157007.298568","157774.286771","158524.019376","159290.703071","160057.423002","160824.522547","150140.477933","150907.21306","151674.220843","152423.844737","153190.545381","153957.286061","154724.23978","155473.946961","160062.484804"
"Mixed","Female","done","47","M_priest.wav","None","726.732251986","408","163940.808392","156240.68238","157007.298568","157774.286771","158524.019376","159290.703071","160057.423002","160824.522547","150140.477933","150907.21306","151674.220843","152423.844737","153190.545381","153957.286061","154724.23978","155473.946961","160830.242754"
"Mixed","Female","done","47","M_priest.wav","None","740.77911011","408","163940.808392","156240.68238","157007.298568","157774.286771","158524.019376","159290.703071","160057.423002","160824.522547","164707.585601","150907.21306","151674.220843","152423.844737","153190.545381","153957.286061","154724.23978","155473.946961","163945.878669"
"Mixed","Female","done","47","F_done.wav","None","736.476826936","408","163940.808392","156240.68238","157007.298568","157774.286771","158524.019376","159290.703071","160057.423002","160824.522547","164707.585601","165474.152694","151674.220843","152423.844737","153190.545381","153957.286061","154724.23978","155473.946961","164712.709357"
"Mixed","Female","done","47","M_cling.wav","space","473.872732841","408","163940.808392","156240.68238","157007.298568","157774.286771","158524.019376","159290.703071","160057.423002","160824.522547","164707.585601","165474.152694","166241.160477","152423.844737","153190.545381","153957.286061","154724.23978","155473.946961","165479.196669"
"Mixed","Female","done","47","F_cad.wav","None","727.118294376","408","163940.808392","156240.68238","157007.298568","157774.286771","158524.019376","159290.703071","160057.423002","160824.522547","164707.585601","165474.152694","166241.160477","166990.92815","153190.545381","153957.286061","154724.23978","155473.946961","166246.843278"
"Mixed","Female","done","47","F_knife.wav","None","740.440994253","408","163940.808392","156240.68238","157007.298568","157774.286771","158524.019376","159290.703071","160057.423002","160824.522547","164707.585601","165474.152694","166241.160477","166990.92815","167757.566548","153957.286061","154724.23978","155473.946961","166996.003687"
"Mixed","Female","done","47","F_done.wav","None","736.549008973","408","163940.808392","156240.68238","157007.298568","157774.286771","158524.019376","159290.703071","160057.423002","160824.522547","164707.585601","165474.152694","166241.160477","166990.92815","167757.566548","168524.28268","154724.23978","155473.946961","167762.47931"
"Mixed","Female","done","47","M_jaw.wav","space","463.669056759","408","163940.808392","156240.68238","157007.298568","157774.286771","158524.019376","159290.703071","160057.423002","160824.522547","164707.585601","165474.152694","166241.160477","166990.92815","167757.566548","168524.28268","169291.311796","155473.946961","168529.409943"
"Mixed","Female","done","47","F_done.wav","None","726.875154885","408","163940.808392","156240.68238","157007.298568","157774.286771","158524.019376","159290.703071","160057.423002","160824.522547","164707.585601","165474.152694","166241.160477","166990.92815","167757.566548","168524.28268","169291.311796","170040.961114","169296.941118"
"Mixed","Female","done","47","M_knife.wav","space","675.142552216","408","163940.808392","170807.624352","157007.298568","157774.286771","158524.019376","159290.703071","160057.423002","160824.522547","164707.585601","165474.152694","166241.160477","166990.92815","167757.566548","168524.28268","169291.311796","170040.961114","170045.875045"
"Mixed","Female","done","47","F_romp.wav","None","736.011296635","408","163940.808392","170807.624352","171574.352174","157774.286771","158524.019376","159290.703071","160057.423002","160824.522547","164707.585601","165474.152694","166241.160477","166990.92815","167757.566548","168524.28268","169291.311796","170040.961114","170812.690245"
"Mixed","Female","done","47","F_done.wav","None","731.856884354","408","163940.808392","170807.624352","171574.352174","172341.483572","158524.019376","159290.703071","160057.423002","160824.522547","164707.585601","165474.152694","166241.160477","166990.92815","167757.566548","168524.28268","169291.311796","170040.961114","171579.438815"
"Mixed","Female","done","47","M_cling.wav","space","581.707143158","408","163940.808392","170807.624352","171574.352174","172341.483572","173091.06363","159290.703071","160057.423002","160824.522547","164707.585601","165474.152694","166241.160477","166990.92815","167757.566548","168524.28268","169291.311796","170040.961114","172347.323595"
"Mixed","Female","done","47","M_jaw.wav","None","740.267698919","408","163940.808392","170807.624352","171574.352174","172341.483572","173091.06363","173857.704658","160057.423002","160824.522547","164707.585601","165474.152694","166241.160477","166990.92815","167757.566548","168524.28268","169291.311796","170040.961114","173096.152025"
"Mixed","Female","done","47","M_greet.wav","None","736.197158073","408","163940.808392","170807.624352","171574.352174","172341.483572","173091.06363","173857.704658","174624.368188","160824.522547","164707.585601","165474.152694","166241.160477","166990.92815","167757.566548","168524.28268","169291.311796","170040.961114","173862.858514"
"Mixed","Female","done","47","F_bluff.wav","None","732.260753078","408","163940.808392","170807.624352","171574.352174","172341.483572","173091.06363","173857.704658","174624.368188","175391.494618","164707.585601","165474.152694","166241.160477","166990.92815","167757.566548","168524.28268","169291.311796","170040.961114","174629.339105"
"Mixed","Male","tile","29","F_lash.wav","None","727.100760279","408","178474.489349","170807.624352","171574.352174","172341.483572","173091.06363","173857.704658","174624.368188","175391.494618","164707.585601","165474.152694","166241.160477","166990.92815","167757.566548","168524.28268","169291.311796","170040.961114","175397.202259"
"Mixed","Male","tile","29","M_greet.wav","None","739.920523779","408","178474.489349","170807.624352","171574.352174","172341.483572","173091.06363","173857.704658","174624.368188","175391.494618","179241.24201","165474.152694","166241.160477","166990.92815","167757.566548","168524.28268","169291.311796","170040.961114","178479.778509"
"Mixed","Male","tile","29","F_priest.wav","None","736.047241536","408","178474.489349","170807.624352","171574.352174","172341.483572","173091.06363","173857.704658","174624.368188","175391.494618","179241.24201","180007.864627","166241.160477","166990.92815","167757.566548","168524.28268","169291.311796","170040.961114","179246.412816"
"Mixed","Male","tile","29","M_tile.wav","None","732.182141872","408","178474.489349","170807.624352","171574.352174","172341.483572","173091.06363","173857.704658","174624.368188","175391.494618","179241.24201","180007.864627","180775.052427","166990.92815","167757.566548","168524.28268","169291.311796","170040.961114","180013.059981"
"Mixed","Male","tile","29","F_priest.wav","space","484.328607699","408","178474.489349","170807.624352","171574.352174","172341.483572","173091.06363","173857.704658","174624.368188","175391.494618","179241.24201","180007.864627","180775.052427","181524.573162","167757.566548","168524.28268","169291.311796","170040.961114","180780.524819"
"Mixed","Male","tile","29","M_tile.wav","None","740.822653119","408","178474.489349","170807.624352","171574.352174","172341.483572","173091.06363","173857.704658","174624.368188","175391.494618","179241.24201","180007.864627","180775.052427","181524.573162","182291.2665","168524.28268","169291.311796","170040.961114","181529.845665"
"Mixed","Male","tile","29","F_jaw.wav","space","656.475751511","408","178474.489349","170807.624352","171574.352174","172341.483572","173091.06363","173857.704658","174624.368188","175391.494618","179241.24201","180007.864627","180775.052427","181524.573162","182291.2665","183057.944934","169291.311796","170040.961114","182296.472958"
"Mixed","Male","tile","29","M_tile.wav","None","736.373667993","408","178474.489349","170807.624352","171574.352174","172341.483572","173091.06363","173857.704658","174624.368188","175391.494618","179241.24201","180007.864627","180775.052427","181524.573162","182291.2665","183057.944934","183824.660189","170040.961114","183059.660353"
"Mixed","Male","tile","29","F_knife.wav","space","659.095345749","408","178474.489349","170807.624352","171574.352174","172341.483572","173091.06363","173857.704658","174624.368188","175391.494618","179241.24201","180007.864627","180775.052427","181524.573162","182291.2665","183057.944934","183824.660189","184574.648792","183829.844145"
"Mixed","Male","tile","29","F_depth.wav","None","741.692928849","408","178474.489349","185341.408175","171574.352174","172341.483572","173091.06363","173857.704658","174624.368188","175391.494618","179241.24201","180007.864627","180775.052427","181524.573162","182291.2665","183057.944934","183824.660189","184574.648792","184579.765242"
"Mixed","Male","tile","29","F_cad.wav","None","738.014275094","408","178474.489349","185341.408175","186107.981989","172341.483572","173091.06363","173857.704658","174624.368188","175391.494618","179241.24201","180007.864627","180775.052427","181524.573162","182291.2665","183057.944934","183824.660189","184574.648792","185346.327074"
"Mixed","Male","tile","29","F_bluff.wav","None","733.967989751","408","178474.489349","185341.408175","186107.981989","186874.704258","173091.06363","173857.704658","174624.368188","175391.494618","179241.24201","180007.864627","180775.052427","181524.573162","182291.2665","183057.944934","183824.660189","184574.648792","186113.220593"
"Mixed","Male","tile","29","M_reek.wav","None","730.137958283","408","178474.489349","185341.408175","186107.981989","186874.704258","187624.755692","173857.704658","174624.368188","175391.494618","179241.24201","180007.864627","180775.052427","181524.573162","182291.2665","183057.944934","183824.660189","184574.648792","186879.847594"
"Mixed","Male","tile","29","M_lash.wav","None","742.531935437","408","178474.489349","185341.408175","186107.981989","186874.704258","187624.755692","188391.390875","174624.368188","175391.494618","179241.24201","180007.864627","180775.052427","181524.573162","182291.2665","183057.944934","183824.660189","184574.648792","187630.219901"
"Mixed","Male","tile","29","M_tile.wav","None","739.262995104","408","178474.489349","185341.408175","186107.981989","186874.704258","187624.755692","188391.390875","189158.06814","175391.494618","179241.24201","180007.864627","180775.052427","181524.573162","182291.2665","183057.944934","183824.660189","184574.648792","188396.298084"
"Mixed","Male","tile","29","M_dime.wav","space","685.646645844","408","178474.489349","185341.408175","186107.981989","186874.704258","187624.755692","188391.390875","189158.06814","189924.781642","179241.24201","180007.864627","180775.052427","181524.573162","182291.2665","183057.944934","183824.660189","184574.648792","189163.252973"
"Mixed","Male","ball","2","F_jaw.wav","None","730.795779192","408","193008.143712","185341.408175","186107.981989","186874.704258","187624.755692","188391.390875","189158.06814","189924.781642","179241.24201","180007.864627","180775.052427","181524.573162","182291.2665","183057.944934","183824.660189","184574.648792","189929.958877"
"Mixed","Male","ball","2","F_jaw.wav","None","740.305104994","408","193008.143712","185341.408175","186107.981989","186874.704258","187624.755692","188391.390875","189158.06814","189924.781642","193774.908647","180007.864627","180775.052427","181524.573162","182291.2665","183057.944934","183824.660189","184574.648792","193013.275066"
"Mixed","Male","ball","2","M_ball.wav","None","735.92859414","408","193008.143712","185341.408175","186107.981989","186874.704258","187624.755692","188391.390875","189158.06814","189924.781642","193774.908647","194541.558442","180775.052427","181524.573162","182291.2665","183057.944934","183824.660189","184574.648792","193780.384838"
"Mixed","Male","ball","2","F_gnash.wav","space","566.232424989","408","193008.143712","185341.408175","186107.981989","186874.704258","187624.755692","188391.390875","189158.06814","189924.781642","193774.908647","194541.558442","195308.546353","181524.573162","182291.2665","183057.944934","183824.660189","184574.648792","194546.582254"
"Mixed","Male","ball","2","M_romp.wav","None","727.879858699","408","193008.143712","185341.408175","186107.981989","186874.704258","187624.755692","188391.390875","189158.06814","189924.781642","193774.908647","194541.558442","195308.546353","196058.296784","182291.2665","183057.944934","183824.660189","184574.648792","195313.571333"
"Mixed","Male","ball","2","M_knife.wav","None","740.590618556","408","193008.143712","185341.408175","186107.981989","186874.704258","187624.755692","188391.390875","189158.06814","189924.781642","193774.908647","194541.558442","195308.546353","196058.296784","196824.980771","183057.944934","183824.660189","184574.648792","196063.619844"
"Mixed","Male","ball","2","M_ball.wav","None","736.908750216","408","193008.143712","185341.408175","186107.981989","186874.704258","187624.755692","188391.390875","189158.06814","189924.781642","193774.908647","194541.558442","195308.546353","196058.296784","196824.980771","197591.614785","183824.660189","184574.648792","196830.173494"
"Mixed","Male","ball","2","F_depth.wav","space","524.109384717","408","193008.143712","185341.408175","186107.981989","186874.704258","187624.755692","188391.390875","189158.06814","189924.781642","193774.908647","194541.558442","195308.546353","196058.296784","196824.980771","197591.614785","198358.325073","184574.648792","197596.694998"
"Mixed","Male","ball","2","M_ball.wav","None","729.414384507","408","193008.143712","185341.408175","186107.981989","186874.704258","187624.755692","188391.390875","189158.06814","189924.781642","193774.908647","194541.558442","195308.546353","196058.296784","196824.980771","197591.614785","198358.325073","199108.37183","198363.15484"
"Mixed","Male","ball","2","F_jolt.wav","space","671.16786444","408","193008.143712","199875.039159","186107.981989","186874.704258","187624.755692","188391.390875","189158.06814","189924.781642","193774.908647","194541.558442","195308.546353","196058.296784","196824.980771","197591.614785","198358.325073","199108.37183","199113.629137"
"Mixed","Male","ball","2","F_park.wav","None","737.600178147","408","193008.143712","199875.039159","200641.689539","186874.704258","187624.755692","188391.390875","189158.06814","189924.781642","193774.908647","194541.558442","195308.546353","196058.296784","196824.980771","197591.614785","198358.325073","199108.37183","199880.086934"
"Mixed","Male","ball","2","F_reek.wav","None","737.255633121","408","193008.143712","199875.039159","200641.689539","201408.387553","187624.755692","188391.390875","189158.06814","189924.781642","193774.908647","194541.558442","195308.546353","196058.296784","196824.980771","197591.614785","198358.325073","199108.37183","200643.173508"
"Mixed","Male","ball","2","M_reek.wav","None","730.094707508","408","193008.143712","199875.039159","200641.689539","201408.387553","202158.460904","188391.390875","189158.06814","189924.781642","193774.908647","194541.558442","195308.546353","196058.296784","196824.980771","197591.614785","198358.325073","199108.37183","201413.266708"
"Mixed","Male","ball","2","M_gnash.wav","None","742.426730849","408","193008.143712","199875.039159","200641.689539","201408.387553","202158.460904","202925.095502","189158.06814","189924.781642","193774.908647","194541.558442","195308.546353","196058.296784","196824.980771","197591.614785","198358.325073","199108.37183","202163.646905"
"Mixed","Male","ball","2","M_ball.wav","None","738.203058882","408","193008.143712","199875.039159","200641.689539","201408.387553","202158.460904","202925.095502","203691.759032","189924.781642","193774.908647","194541.558442","195308.546353","196058.296784","196824.980771","197591.614785","198358.325073","199108.37183","202930.567018"
"Mixed","Male","ball","2","F_greet.wav","space","575.977292174","408","193008.143712","199875.039159","200641.689539","201408.387553","202158.460904","202925.095502","203691.759032","204458.447987","193774.908647","194541.558442","195308.546353","196058.296784","196824.980771","197591.614785","198358.325073","199108.37183","203696.818496"
"Mixed","Male","done","40","F_cling.wav","None","730.391033764","408","207541.854476","199875.039159","200641.689539","201408.387553","202158.460904","202925.095502","203691.759032","204458.447987","193774.908647","194541.558442","195308.546353","196058.296784","196824.980771","197591.614785","198358.325073","199108.37183","204463.592783"
"Mixed","Male","done","40","M_knife.wav","None","740.260685279","408","207541.854476","199875.039159","200641.689539","201408.387553","202158.460904","202925.095502","203691.759032","204458.447987","208308.566517","194541.558442","195308.546353","196058.296784","196824.980771","197591.614785","198358.325073","199108.37183","207547.156203"
"Mixed","Male","done","40","F_cling.wav","None","736.577355765","408","207541.854476","199875.039159","200641.689539","201408.387553","202158.460904","202925.095502","203691.759032","204458.447987","208308.566517","209075.253718","195308.546353","196058.296784","196824.980771","197591.614785","198358.325073","199108.37183","208313.578639"
"Mixed","Male","done","40","F_bluff.wav","None","732.737388308","408","207541.854476","199875.039159","200641.689539","201408.387553","202158.460904","202925.095502","203691.759032","204458.447987","208308.566517","209075.253718","209842.340989","196058.296784","196824.980771","197591.614785","198358.325073","199108.37183","209080.245384"
"Mixed","Male","done","40","M_done.wav","None","727.830763224","408","207541.854476","199875.039159","200641.689539","201408.387553","202158.460904","202925.095502","203691.759032","204458.447987","208308.566517","209075.253718","209842.340989","210591.965467","196824.980771","197591.614785","198358.325073","199108.37183","209847.970311"
"Mixed","Male","done","40","F_knife.wav","space","499.588533168","408","207541.854476","199875.039159","200641.689539","201408.387553","202158.460904","202925.095502","203691.759032","204458.447987","208308.566517","209075.253718","209842.340989","210591.965467","211358.623445","197591.614785","198358.325073","199108.37183","210597.112602"
"Mixed","Male","done","40","M_dime.wav","None","737.099871884","408","207541.854476","199875.039159","200641.689539","201408.387553","202158.460904","202925.095502","203691.759032","204458.447987","208308.566517","209075.253718","209842.340989","210591.965467","211358.623445","212125.289605","198358.325073","199108.37183","211364.023655"
"Mixed","Male","done","40","M_depth.wav","None","733.464468904","408","207541.854476","199875.039159","200641.689539","201408.387553","202158.460904","202925.095502","203691.759032","204458.447987","208308.566517","209075.253718","209842.340989","210591.965467","211358.623445","212125.289605","212892.042851","199108.37183","212130.453397"
"Mixed","Male","done","40","F_gnash.wav","None","729.578912792","408","207541.854476","199875.039159","200641.689539","201408.387553","202158.460904","202925.095502","203691.759032","204458.447987","208308.566517","209075.253718","209842.340989","210591.965467","211358.623445","212125.289605","212892.042851","213642.020933","212897.091795"
"Mixed","Male","done","40","M_done.wav","None","742.458584461","408","207541.854476","214408.687678","200641.689539","201408.387553","202158.460904","202925.095502","203691.759032","204458.447987","208308.566517","209075.253718","209842.340989","210591.965467","211358.623445","212125.289605","212892.042851","213642.020933","213647.074845"
"Mixed","Male","done","40","F_cling.wav","space","634.927514039","408","207541.854476","214408.687678","215175.432742","201408.387553","202158.460904","202925.095502","203691.759032","204458.447987","208308.566517","209075.253718","209842.340989","210591.965467","211358.623445","212125.289605","212892.042851","213642.020933","214413.715873"
"Mixed","Male","done","40","M_done.wav","None","734.255548958","408","207541.854476","214408.687678","215175.432742","215942.11702","202158.460904","202925.095502","203691.759032","204458.447987","208308.566517","209075.253718","209842.340989","210591.965467","211358.623445","212125.289605","212892.042851","213642.020933","215180.838212"
"Mixed","Male","done","40","M_greet.wav","space","653.573273827","408","207541.854476","214408.687678","215175.432742","215942.11702","216692.093641","202925.095502","203691.759032","204458.447987","208308.566517","209075.253718","209842.340989","210591.965467","211358.623445","212125.289605","212892.042851","213642.020933","215947.059882"
"Mixed","Male","done","40","M_done.wav","None","743.28940847","408","207541.854476","214408.687678","215175.432742","215942.11702","216692.093641","217458.773244","203691.759032","204458.447987","208308.566517","209075.253718","209842.340989","210591.965467","211358.623445","212125.289605","212892.042851","213642.020933","216697.00202"
"Mixed","Male","done","40","F_reek.wav","None","739.246922181","408","207541.854476","214408.687678","215175.432742","215942.11702","216692.093641","217458.773244","218225.436774","204458.447987","208308.566517","209075.253718","209842.340989","210591.965467","211358.623445","212125.289605","212892.042851","213642.020933","217464.055976"
"Mixed","Male","done","40","F_cad.wav","space","0.0204564475862","408","207541.854476","214408.687678","215175.432742","215942.11702","216692.093641","217458.773244","218225.436774","218992.149692","208308.566517","209075.253718","209842.340989","210591.965467","211358.623445","212125.289605","212892.042851","213642.020933","218230.636803"
"Mixed","Male","ball","6","F_reek.wav","None","731.225072357","408","222092.258579","214408.687678","215175.432742","215942.11702","216692.093641","217458.773244","218225.436774","218992.149692","208308.566517","209075.253718","209842.340989","210591.965467","211358.623445","212125.289605","212892.042851","213642.020933","218997.267019"
"Mixed","Male","ball","6","M_ball.wav","None","739.902405211","408","222092.258579","214408.687678","215175.432742","215942.11702","216692.093641","217458.773244","218225.436774","218992.149692","222858.882657","209075.253718","209842.340989","210591.965467","211358.623445","212125.289605","212892.042851","213642.020933","222097.356326"
"Mixed","Male","ball","6","F_jaw.wav","None","736.167057872","408","222092.258579","214408.687678","215175.432742","215942.11702","216692.093641","217458.773244","218225.436774","218992.149692","222858.882657","223625.586223","209842.340989","210591.965467","211358.623445","212125.289605","212892.042851","213642.020933","222864.073919"
"Mixed","Male","ball","6","M_ball.wav","space","41.6315010591","408","222092.258579","214408.687678","215175.432742","215942.11702","216692.093641","217458.773244","218225.436774","218992.149692","222858.882657","223625.586223","224392.704179","210591.965467","211358.623445","212125.289605","212892.042851","213642.020933","223631.001337"
"Mixed","Male","ball","6","F_depth.wav","space","706.407602317","408","222092.258579","214408.687678","215175.432742","215942.11702","216692.093641","217458.773244","218225.436774","218992.149692","222858.882657","223625.586223","224392.704179","225142.252676","211358.623445","212125.289605","212892.042851","213642.020933","224398.192351"
"Mixed","Male","ball","6","M_ball.wav","None","740.811255956","408","222092.258579","214408.687678","215175.432742","215942.11702","216692.093641","217458.773244","218225.436774","218992.149692","222858.882657","223625.586223","224392.704179","225142.252676","225908.950105","212125.289605","212892.042851","213642.020933","225147.272103"
"Mixed","Male","ball","6","M_greet.wav","space","598.591895038","408","222092.258579","214408.687678","215175.432742","215942.11702","216692.093641","217458.773244","218225.436774","218992.149692","222858.882657","223625.586223","224392.704179","225142.252676","225908.950105","226675.646365","212892.042851","213642.020933","225913.969241"
"Mixed","Male","ball","6","M_bluff.wav","None","732.346085688","408","222092.258579","214408.687678","215175.432742","215942.11702","216692.093641","217458.773244","218225.436774","218992.149692","222858.882657","223625.586223","224392.704179","225142.252676","225908.950105","226675.646365","227442.306973","213642.020933","226680.960074"
"Mixed","Male","ball","6","M_jaw.wav","None","728.905311195","408","222092.258579","214408.687678","215175.432742","215942.11702","216692.093641","217458.773244","218225.436774","218992.149692","222858.882657","223625.586223","224392.704179","225142.252676","225908.950105","226675.646365","227442.306973","228192.36279","227447.348026"
"Mixed","Male","ball","6","F_priest.wav","None","741.643833375","408","222092.258579","228959.039178","215175.432742","215942.11702","216692.093641","217458.773244","218225.436774","218992.149692","222858.882657","223625.586223","224392.704179","225142.252676","225908.950105","226675.646365","227442.306973","228192.36279","228197.481578"
"Mixed","Male","ball","6","F_reek.wav","None","737.971901023","408","222092.258579","228959.039178","229725.798269","215942.11702","216692.093641","217458.773244","218225.436774","218992.149692","222858.882657","223625.586223","224392.704179","225142.252676","225908.950105","226675.646365","227442.306973","228192.36279","228964.137802"
"Mixed","Male","ball","6","F_romp.wav","None","734.103586775","408","222092.258579","228959.039178","229725.798269","230492.427315","216692.093641","217458.773244","218225.436774","218992.149692","222858.882657","223625.586223","224392.704179","225142.252676","225908.950105","226675.646365","227442.306973","228192.36279","229731.053238"
"Mixed","Male","ball","6","F_lash.wav","None","730.745222543","408","222092.258579","228959.039178","229725.798269","230492.427315","231242.439589","217458.773244","218225.436774","218992.149692","222858.882657","223625.586223","224392.704179","225142.252676","225908.950105","226675.646365","227442.306973","228192.36279","230497.465446"
"Mixed","Male","ball","6","M_ball.wav","None","743.656747822","408","222092.258579","228959.039178","229725.798269","230492.427315","231242.439589","232009.084416","218225.436774","218992.149692","222858.882657","223625.586223","224392.704179","225142.252676","225908.950105","226675.646365","227442.306973","228192.36279","231247.525939"
"Mixed","Male","ball","6","M_reek.wav","space","538.321063361","408","222092.258579","228959.039178","229725.798269","230492.427315","231242.439589","232009.084416","232775.836786","218992.149692","222858.882657","223625.586223","224392.704179","225142.252676","225908.950105","226675.646365","227442.306973","228192.36279","232014.199405"
"Mixed","Male","ball","6","F_jolt.wav","None","735.870439381","408","222092.258579","228959.039178","229725.798269","230492.427315","231242.439589","232009.084416","232775.836786","233542.515512","222858.882657","223625.586223","224392.704179","225142.252676","225908.950105","226675.646365","227442.306973","228192.36279","232780.93687"
"Mixed","Female","cave","24","F_dime.wav","None","732.162854364","408","236643.115938","228959.039178","229725.798269","230492.427315","231242.439589","232009.084416","232775.836786","233542.515512","222858.882657","223625.586223","224392.704179","225142.252676","225908.950105","226675.646365","227442.306973","228192.36279","233547.659139"
"Mixed","Female","cave","24","F_cave.wav","None","722.470005003","408","236643.115938","228959.039178","229725.798269","230492.427315","231242.439589","232009.084416","232775.836786","233542.515512","237392.566536","223625.586223","224392.704179","225142.252676","225908.950105","226675.646365","227442.306973","228192.36279","236648.621645"
"Mixed","Female","cave","24","M_dime.wav","space","722.645345983","408","236643.115938","228959.039178","229725.798269","230492.427315","231242.439589","232009.084416","232775.836786","233542.515512","237392.566536","238159.255491","224392.704179","225142.252676","225908.950105","226675.646365","227442.306973","228192.36279","237397.793451"
"Mixed","Female","cave","24","F_cave.wav","None","732.086288803","408","236643.115938","228959.039178","229725.798269","230492.427315","231242.439589","232009.084416","232775.836786","233542.515512","237392.566536","238159.255491","238926.393318","225142.252676","225908.950105","226675.646365","227442.306973","228192.36279","238164.345639"
"Mixed","Female","cave","24","F_priest.wav","space","652.561264138","408","236643.115938","228959.039178","229725.798269","230492.427315","231242.439589","232009.084416","232775.836786","233542.515512","237392.566536","238159.255491","238926.393318","239675.950874","225908.950105","226675.646365","227442.306973","228192.36279","238931.903993"
"Mixed","Female","cave","24","F_cave.wav","None","740.756315782","408","236643.115938","228959.039178","229725.798269","230492.427315","231242.439589","232009.084416","232775.836786","233542.515512","237392.566536","238159.255491","238926.393318","239675.950874","240442.669637","226675.646365","227442.306973","228192.36279","239681.035763"
"Mixed","Female","cave","24","F_lash.wav","space","528.706532971","408","236643.115938","228959.039178","229725.798269","230492.427315","231242.439589","232009.084416","232775.836786","233542.515512","237392.566536","238159.255491","238926.393318","239675.950874","240442.669637","241209.386353","227442.306973","228192.36279","240447.751895"
"Mixed","Female","cave","24","M_reek.wav","None","732.391382108","408","236643.115938","228959.039178","229725.798269","230492.427315","231242.439589","232009.084416","232775.836786","233542.515512","237392.566536","238159.255491","238926.393318","239675.950874","240442.669637","241209.386353","241976.044915","228192.36279","241214.579953"
"Mixed","Female","cave","24","M_jaw.wav","None","728.835759273","408","236643.115938","228959.039178","229725.798269","230492.427315","231242.439589","232009.084416","232775.836786","233542.515512","237392.566536","238159.255491","238926.393318","239675.950874","240442.669637","241209.386353","241976.044915","242726.0756","241981.174223"
"Mixed","Female","cave","24","M_jaw.wav","None","741.801055786","408","236643.115938","243492.717797","229725.798269","230492.427315","231242.439589","232009.084416","232775.836786","233542.515512","237392.566536","238159.255491","238926.393318","239675.950874","240442.669637","241209.386353","241976.044915","242726.0756","242731.129512"
"Mixed","Female","cave","24","F_cave.wav","None","738.068046328","408","236643.115938","243492.717797","244259.43276","230492.427315","231242.439589","232009.084416","232775.836786","233542.515512","237392.566536","238159.255491","238926.393318","239675.950874","240442.669637","241209.386353","241976.044915","242726.0756","243498.057222"
"Mixed","Female","cave","24","M_lash.wav","None","734.738613357","408","236643.115938","243492.717797","244259.43276","245026.114993","231242.439589","232009.084416","232775.836786","233542.515512","237392.566536","238159.255491","238926.393318","239675.950874","240442.669637","241209.386353","241976.044915","242726.0756","244264.511512"
"Mixed","Female","cave","24","F_romp.wav","space","0.0219176224782","408","236643.115938","243492.717797","244259.43276","245026.114993","245776.123176","232009.084416","232775.836786","233542.515512","237392.566536","238159.255491","238926.393318","239675.950874","240442.669637","241209.386353","241976.044915","242726.0756","245031.301579"
"Mixed","Female","cave","24","M_lash.wav","None","743.600054239","408","236643.115938","243492.717797","244259.43276","245026.114993","245776.123176","246542.766834","232775.836786","233542.515512","237392.566536","238159.255491","238926.393318","239675.950874","240442.669637","241209.386353","241976.044915","242726.0756","245781.273525"
"Mixed","Female","cave","24","M_romp.wav","None","740.829082289","408","236643.115938","243492.717797","244259.43276","245026.114993","245776.123176","246542.766834","247309.469523","233542.515512","237392.566536","238159.255491","238926.393318","239675.950874","240442.669637","241209.386353","241976.044915","242726.0756","246548.180194"
"Mixed","Female","cave","24","M_gnash.wav","None","738.445321669","408","236643.115938","243492.717797","244259.43276","245026.114993","245776.123176","246542.766834","247309.469523","248076.201144","237392.566536","238159.255491","238926.393318","239675.950874","240442.669637","241209.386353","241976.044915","242726.0756","247314.516421"
"Mixed","Male","tile","28","M_lash.wav","None","735.191577554","408","251159.594483","243492.717797","244259.43276","245026.114993","245776.123176","246542.766834","247309.469523","248076.201144","237392.566536","238159.255491","238926.393318","239675.950874","240442.669637","241209.386353","241976.044915","242726.0756","248081.413447"
"Mixed","Male","tile","28","M_park.wav","None","740.214512155","408","251159.594483","243492.717797","244259.43276","245026.114993","245776.123176","246542.766834","247309.469523","248076.201144","251926.292789","238159.255491","238926.393318","239675.950874","240442.669637","241209.386353","241976.044915","242726.0756","251164.847991"
"Mixed","Male","tile","28","M_cad.wav","None","736.730779122","408","251159.594483","243492.717797","244259.43276","245026.114993","245776.123176","246542.766834","247309.469523","248076.201144","251926.292789","252692.96684","238926.393318","239675.950874","240442.669637","241209.386353","241976.044915","242726.0756","251931.397549"
"Mixed","Male","tile","28","F_jaw.wav","None","733.500413805","408","251159.594483","243492.717797","244259.43276","245026.114993","245776.123176","246542.766834","247309.469523","248076.201144","251926.292789","252692.96684","253459.66573","239675.950874","240442.669637","241209.386353","241976.044915","242726.0756","252697.839565"
"Mixed","Male","tile","28","M_tile.wav","None","729.455005167","408","251159.594483","243492.717797","244259.43276","245026.114993","245776.123176","246542.766834","247309.469523","248076.201144","251926.292789","252692.96684","253459.66573","254209.689985","240442.669637","241209.386353","241976.044915","242726.0756","253465.04899"
"Mixed","Male","tile","28","F_cad.wav","space","569.672030542","408","251159.594483","243492.717797","244259.43276","245026.114993","245776.123176","246542.766834","247309.469523","248076.201144","251926.292789","252692.96684","253459.66573","254209.689985","254976.415177","241209.386353","241976.044915","242726.0756","254214.661779"
"Mixed","Male","tile","28","F_cad.wav","None","738.863509905","408","251159.594483","243492.717797","244259.43276","245026.114993","245776.123176","246542.766834","247309.469523","248076.201144","251926.292789","252692.96684","253459.66573","254209.689985","254976.415177","255743.030781","241976.044915","242726.0756","254981.706968"
"Mixed","Male","tile","28","M_tile.wav","None","735.722276253","408","251159.594483","243492.717797","244259.43276","245026.114993","245776.123176","246542.766834","247309.469523","248076.201144","251926.292789","252692.96684","253459.66573","254209.689985","254976.415177","255743.030781","256509.758018","242726.0756","255748.067158"
"Mixed","Male","tile","28","F_greet.wav","space","589.601870771","408","251159.594483","243492.717797","244259.43276","245026.114993","245776.123176","246542.766834","247309.469523","248076.201144","251926.292789","252692.96684","253459.66573","254209.689985","254976.415177","255743.030781","256509.758018","257276.96715","256514.705848"
"Mixed","Male","tile","28","F_greet.wav","None","726.839794454","408","251159.594483","258026.398461","244259.43276","245026.114993","245776.123176","246542.766834","247309.469523","248076.201144","251926.292789","252692.96684","253459.66573","254209.689985","254976.415177","255743.030781","256509.758018","257276.96715","257282.617221"
"Mixed","Male","tile","28","M_tile.wav","None","741.313607863","408","251159.594483","258026.398461","258793.102612","245026.114993","245776.123176","246542.766834","247309.469523","248076.201144","251926.292789","252692.96684","253459.66573","254209.689985","254976.415177","255743.030781","256509.758018","257276.96715","258031.542381"
"Mixed","Male","tile","28","F_greet.wav","space","530.115689978","408","251159.594483","258026.398461","258793.102612","259559.753284","245776.123176","246542.766834","247309.469523","248076.201144","251926.292789","252692.96684","253459.66573","254209.689985","254976.415177","255743.030781","256509.758018","257276.96715","258798.192468"
"Mixed","Male","tile","28","F_jaw.wav","None","733.966820811","408","251159.594483","258026.398461","258793.102612","259559.753284","260326.487242","246542.766834","247309.469523","248076.201144","251926.292789","252692.96684","253459.66573","254209.689985","254976.415177","255743.030781","256509.758018","257276.96715","259564.695854"
"Mixed","Male","tile","28","M_tile.wav","None","730.260989204","408","251159.594483","258026.398461","258793.102612","259559.753284","260326.487242","261076.555333","247309.469523","248076.201144","251926.292789","252692.96684","253459.66573","254209.689985","254976.415177","255743.030781","256509.758018","257276.96715","260331.586158"
"Mixed","Male","tile","28","F_bluff.wav","None","743.131309353","408","251159.594483","258026.398461","258793.102612","259559.753284","260326.487242","261076.555333","261843.212726","248076.201144","251926.292789","252692.96684","253459.66573","254209.689985","254976.415177","255743.030781","256509.758018","257276.96715","261081.912877"
"Mixed","Male","tile","28","M_jaw.wav","None","739.686151336","408","251159.594483","258026.398461","258793.102612","259559.753284","260326.487242","261076.555333","261843.212726","262609.84937","251926.292789","252692.96684","253459.66573","254209.689985","254976.415177","255743.030781","256509.758018","257276.96715","261848.464481"
"Mixed","Female","ball","9","F_gnash.wav","None","736.710907144","408","265709.962933","258026.398461","258793.102612","259559.753284","260326.487242","261076.555333","261843.212726","262609.84937","251926.292789","252692.96684","253459.66573","254209.689985","254976.415177","255743.030781","256509.758018","257276.96715","262615.006441"
"Mixed","Female","ball","9","F_ball.wav","None","740.615458529","408","265709.962933","258026.398461","258793.102612","259559.753284","260326.487242","261076.555333","261843.212726","262609.84937","266476.691924","252692.96684","253459.66573","254209.689985","254976.415177","255743.030781","256509.758018","257276.96715","265715.183711"
"Mixed","Female","ball","9","F_priest.wav","space","630.711732416","408","265709.962933","258026.398461","258793.102612","259559.753284","260326.487242","261076.555333","261843.212726","262609.84937","266476.691924","267243.285025","253459.66573","254209.689985","254976.415177","255743.030781","256509.758018","257276.96715","266481.547992"
"Mixed","Female","ball","9","F_knife.wav","None","733.296141563","408","265709.962933","258026.398461","258793.102612","259559.753284","260326.487242","261076.555333","261843.212726","262609.84937","266476.691924","267243.285025","268009.950893","254209.689985","254976.415177","255743.030781","256509.758018","257276.96715","267248.378973"
"Mixed","Female","ball","9","M_jaw.wav","None","729.930471457","408","265709.962933","258026.398461","258793.102612","259559.753284","260326.487242","261076.555333","261843.212726","262609.84937","266476.691924","267243.285025","268009.950893","268759.985377","254976.415177","255743.030781","256509.758018","257276.96715","268014.904276"
"Mixed","Female","ball","9","F_ball.wav","None","743.258431563","408","265709.962933","258026.398461","258793.102612","259559.753284","260326.487242","261076.555333","261843.212726","262609.84937","266476.691924","267243.285025","268009.950893","268759.985377","269526.749728","255743.030781","256509.758018","257276.96715","268764.736533"
"Mixed","Female","ball","9","M_park.wav","space","572.309743347","408","265709.962933","258026.398461","258793.102612","259559.753284","260326.487242","261076.555333","261843.212726","262609.84937","266476.691924","267243.285025","268009.950893","268759.985377","269526.749728","270293.39397","256509.758018","257276.96715","269531.930469"
"Mixed","Female","ball","9","F_ball.wav","None","735.23015257","408","265709.962933","258026.398461","258793.102612","259559.753284","260326.487242","261076.555333","261843.212726","262609.84937","266476.691924","267243.285025","268009.950893","268759.985377","269526.749728","270293.39397","271060.03792","257276.96715","270298.370732"
"Mixed","Female","ball","9","M_jaw.wav","space","679.22712034","408","265709.962933","258026.398461","258793.102612","259559.753284","260326.487242","261076.555333","261843.212726","262609.84937","266476.691924","267243.285025","268009.950893","268759.985377","269526.749728","270293.39397","271060.03792","271827.087201","271064.972016"
"Mixed","Female","ball","9","M_dime.wav","None","726.702736254","408","265709.962933","272576.752299","258793.102612","259559.753284","260326.487242","261076.555333","261843.212726","262609.84937","266476.691924","267243.285025","268009.950893","268759.985377","269526.749728","270293.39397","271060.03792","271827.087201","271832.604597"
"Mixed","Female","ball","9","M_romp.wav","None","741.088586939","408","265709.962933","272576.752299","273343.462002","259559.753284","260326.487242","261076.555333","261843.212726","262609.84937","266476.691924","267243.285025","268009.950893","268759.985377","269526.749728","270293.39397","271060.03792","271827.087201","272581.584404"
"Mixed","Female","ball","9","M_lash.wav","None","737.277550744","408","265709.962933","272576.752299","273343.462002","274110.194208","260326.487242","261076.555333","261843.212726","262609.84937","266476.691924","267243.285025","268009.950893","268759.985377","269526.749728","270293.39397","271060.03792","271827.087201","273348.549229"
"Mixed","Female","ball","9","F_ball.wav","None","733.720174499","408","265709.962933","272576.752299","273343.462002","274110.194208","274876.798706","261076.555333","261843.212726","262609.84937","266476.691924","267243.285025","268009.950893","268759.985377","269526.749728","270293.39397","271060.03792","271827.087201","274115.279973"
"Mixed","Female","ball","9","M_cad.wav","space","534.283545067","408","265709.962933","272576.752299","273343.462002","274110.194208","274876.798706","275626.881993","261843.212726","262609.84937","266476.691924","267243.285025","268009.950893","268759.985377","269526.749728","270293.39397","271060.03792","271827.087201","274881.770792"
"Mixed","Female","ball","9","M_cad.wav","None","742.711952176","408","265709.962933","272576.752299","273343.462002","274110.194208","274876.798706","275626.881993","276393.540847","262609.84937","266476.691924","267243.285025","268009.950893","268759.985377","269526.749728","270293.39397","271060.03792","271827.087201","275632.089913"
"Mixed","Female","ball","9","F_reek.wav","None","739.450317718","408","265709.962933","272576.752299","273343.462002","274110.194208","274876.798706","275626.881993","276393.540847","277160.188889","266476.691924","267243.285025","268009.950893","268759.985377","269526.749728","270293.39397","271060.03792","271827.087201","276398.597097"
"Mixed","Female","tile","35","M_romp.wav","None","736.054255175","408","280243.592456","272576.752299","273343.462002","274110.194208","274876.798706","275626.881993","276393.540847","277160.188889","266476.691924","267243.285025","268009.950893","268759.985377","269526.749728","270293.39397","271060.03792","271827.087201","277165.300663"
"Mixed","Female","tile","35","M_greet.wav","None","740.428720385","408","280243.592456","272576.752299","273343.462002","274110.194208","274876.798706","275626.881993","276393.540847","277160.188889","281010.355638","267243.285025","268009.950893","268759.985377","269526.749728","270293.39397","271060.03792","271827.087201","280248.44005"
"Mixed","Female","tile","35","F_dime.wav","None","736.973334144","408","280243.592456","272576.752299","273343.462002","274110.194208","274876.798706","275626.881993","276393.540847","277160.188889","281010.355638","281777.008063","268009.950893","268759.985377","269526.749728","270293.39397","271060.03792","271827.087201","281015.452216"
"Mixed","Female","tile","35","F_romp.wav","None","733.545125754","408","280243.592456","272576.752299","273343.462002","274110.194208","274876.798706","275626.881993","276393.540847","277160.188889","281010.355638","281777.008063","282543.675392","268759.985377","269526.749728","270293.39397","271060.03792","271827.087201","281782.237024"
"Mixed","Female","tile","35","F_tile.wav","None","730.481626603","408","280243.592456","272576.752299","273343.462002","274110.194208","274876.798706","275626.881993","276393.540847","277160.188889","281010.355638","281777.008063","282543.675392","283293.71952","269526.749728","270293.39397","271060.03792","271827.087201","282548.593999"
"Mixed","Female","tile","35","F_bluff.wav","space","709.514060009","408","280243.592456","272576.752299","273343.462002","274110.194208","274876.798706","275626.881993","276393.540847","277160.188889","281010.355638","281777.008063","282543.675392","283293.71952","284060.393863","270293.39397","271060.03792","271827.087201","283298.578803"
"Mixed","Female","tile","35","F_tile.wav","None","739.265625219","408","280243.592456","272576.752299","273343.462002","274110.194208","274876.798706","275626.881993","276393.540847","277160.188889","281010.355638","281777.008063","282543.675392","283293.71952","284060.393863","284827.062653","271060.03792","271827.087201","284065.520248"
"Mixed","Female","tile","35","M_romp.wav","space","688.047356092","408","280243.592456","272576.752299","273343.462002","274110.194208","274876.798706","275626.881993","276393.540847","277160.188889","281010.355638","281777.008063","282543.675392","283293.71952","284060.393863","284827.062653","285593.773525","271827.087201","284832.060747"
"Mixed","Female","tile","35","F_cad.wav","None","731.626310966","408","280243.592456","272576.752299","273343.462002","274110.194208","274876.798706","275626.881993","276393.540847","277160.188889","281010.355638","281777.008063","282543.675392","283293.71952","284060.393863","284827.062653","285593.773525","286360.56067","285598.785062"
"Mixed","Female","tile","35","M_cling.wav","None","727.759165658","408","280243.592456","287110.558625","273343.462002","274110.194208","274876.798706","275626.881993","276393.540847","277160.188889","281010.355638","281777.008063","282543.675392","283293.71952","284060.393863","284827.062653","285593.773525","286360.56067","286366.237627"
"Mixed","Female","tile","35","F_tile.wav","None","741.750499137","408","280243.592456","287110.558625","287877.182995","274110.194208","274876.798706","275626.881993","276393.540847","277160.188889","281010.355638","281777.008063","282543.675392","283293.71952","284060.393863","284827.062653","285593.773525","286360.56067","287115.666307"
"Mixed","Female","tile","35","M_jolt.wav","space","701.895202203","408","280243.592456","287110.558625","287877.182995","288643.864059","274876.798706","275626.881993","276393.540847","277160.188889","281010.355638","281777.008063","282543.675392","283293.71952","284060.393863","284827.062653","285593.773525","286360.56067","287882.169108"
"Mixed","Female","tile","35","F_tile.wav","None","734.130764627","408","280243.592456","287110.558625","287877.182995","288643.864059","289410.508594","275626.881993","276393.540847","277160.188889","281010.355638","281777.008063","282543.675392","283293.71952","284060.393863","284827.062653","285593.773525","286360.56067","288649.045677"
"Mixed","Female","tile","35","M_cling.wav","None","731.173346768","408","280243.592456","287110.558625","287877.182995","288643.864059","289410.508594","290177.439811","276393.540847","277160.188889","281010.355638","281777.008063","282543.675392","283293.71952","284060.393863","284827.062653","285593.773525","286360.56067","289415.461977"
"Mixed","Female","tile","35","M_bluff.wav","space","0.0216253874823","408","280243.592456","287110.558625","287877.182995","288643.864059","289410.508594","290177.439811","290927.266516","277160.188889","281010.355638","281777.008063","282543.675392","283293.71952","284060.393863","284827.062653","285593.773525","286360.56067","290183.147745"
"Mixed","Female","tile","35","M_bluff.wav","None","740.341049895","408","280243.592456","287110.558625","287877.182995","288643.864059","289410.508594","290177.439811","290927.266516","291693.855818","281010.355638","281777.008063","282543.675392","283293.71952","284060.393863","284827.062653","285593.773525","286360.56067","290932.26198"
"Mixed","Female","done","46","M_reek.wav","None","737.562187601","408","294810.614792","287110.558625","287877.182995","288643.864059","289410.508594","290177.439811","290927.266516","291693.855818","281010.355638","281777.008063","282543.675392","283293.71952","284060.393863","284827.062653","285593.773525","286360.56067","291698.762443"
"Mixed","Female","done","46","M_dime.wav","None","740.85918249","408","294810.614792","287110.558625","287877.182995","288643.864059","289410.508594","290177.439811","290927.266516","291693.855818","295577.284167","281777.008063","282543.675392","283293.71952","284060.393863","284827.062653","285593.773525","286360.56067","294815.762803"
"Mixed","Female","done","46","F_jaw.wav","None","737.573584764","408","294810.614792","287110.558625","287877.182995","288643.864059","289410.508594","290177.439811","290927.266516","291693.855818","295577.284167","296344.006144","282543.675392","283293.71952","284060.393863","284827.062653","285593.773525","286360.56067","295582.445036"
"Mixed","Female","done","46","F_done.wav","None","734.701499516","408","294810.614792","287110.558625","287877.182995","288643.864059","289410.508594","290177.439811","290927.266516","291693.855818","295577.284167","296344.006144","297110.675519","283293.71952","284060.393863","284827.062653","285593.773525","286360.56067","296348.950175"
"Mixed","Female","done","46","F_knife.wav","None","731.325016716","408","294810.614792","287110.558625","287877.182995","288643.864059","289410.508594","290177.439811","290927.266516","291693.855818","295577.284167","296344.006144","297110.675519","297877.660507","284060.393863","284827.062653","285593.773525","286360.56067","297115.618381"
"Mixed","Female","done","46","F_done.wav","space","0.0236710322788","408","294810.614792","287110.558625","287877.182995","288643.864059","289410.508594","290177.439811","290927.266516","291693.855818","295577.284167","296344.006144","297110.675519","297877.660507","298627.412984","284827.062653","285593.773525","286360.56067","297883.097831"
"Mixed","Female","done","46","M_knife.wav","None","740.378748206","408","294810.614792","287110.558625","287877.182995","288643.864059","289410.508594","290177.439811","290927.266516","291693.855818","295577.284167","296344.006144","297110.675519","297877.660507","298627.412984","299394.093464","285593.773525","286360.56067","298632.269345"
"Mixed","Female","done","46","M_knife.wav","space","0.0222098574159","408","294810.614792","287110.558625","287877.182995","288643.864059","289410.508594","290177.439811","290927.266516","291693.855818","295577.284167","296344.006144","297110.675519","297877.660507","298627.412984","299394.093464","300160.766053","286360.56067","299399.085714"
"Mixed","Female","done","46","M_cad.wav","None","732.790867307","408","294810.614792","287110.558625","287877.182995","288643.864059","289410.508594","290177.439811","290927.266516","291693.855818","295577.284167","296344.006144","297110.675519","297877.660507","298627.412984","299394.093464","300160.766053","300927.500596","300165.713883"
"Mixed","Female","done","46","F_done.wav","None","729.346878229","408","294810.614792","301677.479263","287877.182995","288643.864059","289410.508594","290177.439811","290927.266516","291693.855818","295577.284167","296344.006144","297110.675519","297877.660507","298627.412984","299394.093464","300160.766053","300927.500596","300932.442289"
"Mixed","Female","done","46","F_dime.wav","space","613.30884794","408","294810.614792","301677.479263","302444.185752","288643.864059","289410.508594","290177.439811","290927.266516","291693.855818","295577.284167","296344.006144","297110.675519","297877.660507","298627.412984","299394.093464","300160.766053","300927.500596","301682.632827"
"Mixed","Female","done","46","F_done.wav","None","738.385413501","408","294810.614792","301677.479263","302444.185752","303210.849866","289410.508594","290177.439811","290927.266516","291693.855818","295577.284167","296344.006144","297110.675519","297877.660507","298627.412984","299394.093464","300160.766053","300927.500596","302449.214531"
"Mixed","Female","done","46","F_priest.wav","space","712.157909749","408","294810.614792","301677.479263","302444.185752","303210.849866","303977.495862","290177.439811","290927.266516","291693.855818","295577.284167","296344.006144","297110.675519","297877.660507","298627.412984","299394.093464","300160.766053","300927.500596","303215.76292"
"Mixed","Female","done","46","M_knife.wav","None","731.171008889","408","294810.614792","301677.479263","302444.185752","303210.849866","303977.495862","304744.497508","290927.266516","291693.855818","295577.284167","296344.006144","297110.675519","297877.660507","298627.412984","299394.093464","300160.766053","300927.500596","303982.418852"
"Mixed","Female","done","46","M_bluff.wav","None","727.005491679","408","294810.614792","301677.479263","302444.185752","303210.849866","303977.495862","304744.497508","305494.242679","291693.855818","295577.284167","296344.006144","297110.675519","297877.660507","298627.412984","299394.093464","300160.766053","300927.500596","304749.92548"
"Mixed","Female","done","46","M_bluff.wav","None","740.862397075","408","294810.614792","301677.479263","302444.185752","303210.849866","303977.495862","304744.497508","305494.242679","306260.917898","295577.284167","296344.006144","297110.675519","297877.660507","298627.412984","299394.093464","300160.766053","300927.500596","305499.443"
"Mixed","Female","ball","10","M_priest.wav","None","737.794514399","408","309360.978274","301677.479263","302444.185752","303210.849866","303977.495862","304744.497508","305494.242679","306260.917898","295577.284167","296344.006144","297110.675519","297877.660507","298627.412984","299394.093464","300160.766053","300927.500596","306265.897582"
"Mixed","Female","ball","10","F_ball.wav","None","740.453268122","408","309360.978274","301677.479263","302444.185752","303210.849866","303977.495862","304744.497508","305494.242679","306260.917898","310127.694699","296344.006144","297110.675519","297877.660507","298627.412984","299394.093464","300160.766053","300927.500596","309366.121317"
"Mixed","Female","ball","10","M_lash.wav","space","642.982094179","408","309360.978274","301677.479263","302444.185752","303210.849866","303977.495862","304744.497508","305494.242679","306260.917898","310127.694699","310894.340987","297110.675519","297877.660507","298627.412984","299394.093464","300160.766053","300927.500596","310132.875148"
"Mixed","Female","ball","10","M_cad.wav","None","733.300817323","408","309360.978274","301677.479263","302444.185752","303210.849866","303977.495862","304744.497508","305494.242679","306260.917898","310127.694699","310894.340987","311661.106215","297877.660507","298627.412984","299394.093464","300160.766053","300927.500596","310899.195594"
"Mixed","Female","ball","10","M_lash.wav","None","729.866764234","408","309360.978274","301677.479263","302444.185752","303210.849866","303977.495862","304744.497508","305494.242679","306260.917898","310127.694699","310894.340987","311661.106215","312411.086927","298627.412984","299394.093464","300160.766053","300927.500596","311666.098172"
"Mixed","Female","ball","10","F_ball.wav","None","743.425589964","408","309360.978274","301677.479263","302444.185752","303210.849866","303977.495862","304744.497508","305494.242679","306260.917898","310127.694699","310894.340987","311661.106215","312411.086927","313177.744905","299394.093464","300160.766053","300927.500596","312416.054921"
"Mixed","Female","ball","10","F_depth.wav","space","552.857415053","408","309360.978274","301677.479263","302444.185752","303210.849866","303977.495862","304744.497508","305494.242679","306260.917898","310127.694699","310894.340987","311661.106215","312411.086927","313177.744905","313944.435612","300160.766053","300927.500596","313183.000166"
"Mixed","Female","ball","10","F_ball.wav","None","736.204171713","408","309360.978274","301677.479263","302444.185752","303210.849866","303977.495862","304744.497508","305494.242679","306260.917898","310127.694699","310894.340987","311661.106215","312411.086927","313177.744905","313944.435612","314711.120476","300927.500596","313949.310092"
"Mixed","Female","ball","10","M_gnash.wav","None","732.725698909","408","309360.978274","301677.479263","302444.185752","303210.849866","303977.495862","304744.497508","305494.242679","306260.917898","310127.694699","310894.340987","311661.106215","312411.086927","313177.744905","313944.435612","314711.120476","315477.796864","314716.221145"
"Mixed","Female","ball","10","M_cling.wav","space","0.0219176224782","408","309360.978274","316227.791896","302444.185752","303210.849866","303977.495862","304744.497508","305494.242679","306260.917898","310127.694699","310894.340987","311661.106215","312411.086927","313177.744905","313944.435612","314711.120476","315477.796864","315482.825936"
"Mixed","Female","ball","10","M_cling.wav","None","741.622500222","408","309360.978274","316227.791896","316994.502184","303210.849866","303977.495862","304744.497508","305494.242679","306260.917898","310127.694699","310894.340987","311661.106215","312411.086927","313177.744905","313944.435612","314711.120476","315477.796864","316233.180417"
"Mixed","Female","ball","10","F_ball.wav","None","738.639657921","408","309360.978274","316227.791896","316994.502184","317761.178572","303977.495862","304744.497508","305494.242679","306260.917898","310127.694699","310894.340987","311661.106215","312411.086927","313177.744905","313944.435612","314711.120476","315477.796864","316999.648734"
"Mixed","Female","ball","10","F_reek.wav","space","481.653196583","408","309360.978274","316227.791896","316994.502184","317761.178572","318527.879508","304744.497508","305494.242679","306260.917898","310127.694699","310894.340987","311661.106215","312411.086927","313177.744905","313944.435612","314711.120476","315477.796864","317766.151242"
"Mixed","Female","ball","10","F_cad.wav","None","735.047213481","408","309360.978274","316227.791896","316994.502184","317761.178572","318527.879508","319294.873848","305494.242679","306260.917898","310127.694699","310894.340987","311661.106215","312411.086927","313177.744905","313944.435612","314711.120476","315477.796864","318529.151315"
"Mixed","Female","ball","10","M_priest.wav","None","727.155115982","408","309360.978274","316227.791896","316994.502184","317761.178572","318527.879508","319294.873848","320044.574599","306260.917898","310127.694699","310894.340987","311661.106215","312411.086927","313177.744905","313944.435612","314711.120476","315477.796864","319300.513398"
"Mixed","Female","ball","10","F_bluff.wav","None","741.697896844","408","309360.978274","316227.791896","316994.502184","317761.178572","318527.879508","319294.873848","320044.574599","320811.260339","310127.694699","310894.340987","311661.106215","312411.086927","313177.744905","313944.435612","314711.120476","315477.796864","320049.534411"
"Mixed","Female","done","45","M_gnash.wav","None","738.577704109","408","323928.057596","316227.791896","316994.502184","317761.178572","318527.879508","319294.873848","320044.574599","320811.260339","310127.694699","310894.340987","311661.106215","312411.086927","313177.744905","313944.435612","314711.120476","315477.796864","320816.175439"
"Mixed","Female","done","45","F_done.wav","None","740.169800205","408","323928.057596","316227.791896","316994.502184","317761.178572","318527.879508","319294.873848","320044.574599","320811.260339","324694.673784","310894.340987","311661.106215","312411.086927","313177.744905","313944.435612","314711.120476","315477.796864","323933.053937"
"Mixed","Female","done","45","M_romp.wav","None","737.030319962","408","323928.057596","316227.791896","316994.502184","317761.178572","318527.879508","319294.873848","320044.574599","320811.260339","324694.673784","325461.361277","311661.106215","312411.086927","313177.744905","313944.435612","314711.120476","315477.796864","324699.640025"
"Mixed","Female","done","45","F_cad.wav","space","37.2178763635","408","323928.057596","316227.791896","316994.502184","317761.178572","318527.879508","319294.873848","320044.574599","320811.260339","324694.673784","325461.361277","326228.050524","312411.086927","313177.744905","313944.435612","314711.120476","315477.796864","325466.549325"
"Mixed","Female","done","45","M_dime.wav","None","729.470201385","408","323928.057596","316227.791896","316994.502184","317761.178572","318527.879508","319294.873848","320044.574599","320811.260339","324694.673784","325461.361277","326228.050524","326978.064551","313177.744905","313944.435612","314711.120476","315477.796864","326233.302278"
"Mixed","Female","done","45","F_cad.wav","None","743.401918932","408","323928.057596","316227.791896","316994.502184","317761.178572","318527.879508","319294.873848","320044.574599","320811.260339","324694.673784","325461.361277","326228.050524","326978.064551","327744.7462","313944.435612","314711.120476","315477.796864","326982.93903"
"Mixed","Female","done","45","F_done.wav","None","740.215681095","408","323928.057596","316227.791896","316994.502184","317761.178572","318527.879508","319294.873848","320044.574599","320811.260339","324694.673784","325461.361277","326228.050524","326978.064551","327744.7462","328511.423465","314711.120476","315477.796864","327749.713025"
"Mixed","Female","done","45","F_dime.wav","space","587.121380378","408","323928.057596","316227.791896","316994.502184","317761.178572","318527.879508","319294.873848","320044.574599","320811.260339","324694.673784","325461.361277","326228.050524","326978.064551","327744.7462","328511.423465","329278.174958","315477.796864","328516.621448"
"Mixed","Female","done","45","F_done.wav","None","732.892565075","408","323928.057596","316227.791896","316994.502184","317761.178572","318527.879508","319294.873848","320044.574599","320811.260339","324694.673784","325461.361277","326228.050524","326978.064551","327744.7462","328511.423465","329278.174958","330044.809264","329283.054697"
"Mixed","Female","done","45","M_jolt.wav","space","637.944547831","408","323928.057596","330794.877063","316994.502184","317761.178572","318527.879508","319294.873848","320044.574599","320811.260339","324694.673784","325461.361277","326228.050524","326978.064551","327744.7462","328511.423465","329278.174958","330044.809264","330049.781058"
"Mixed","Female","done","45","F_done.wav","None","741.59766025","408","323928.057596","330794.877063","331561.564264","317761.178572","318527.879508","319294.873848","320044.574599","320811.260339","324694.673784","325461.361277","326228.050524","326978.064551","327744.7462","328511.423465","329278.174958","330044.809264","330800.104269"
"Mixed","Female","done","45","F_reek.wav","None","738.660991074","408","323928.057596","330794.877063","331561.564264","332328.230716","318527.879508","319294.873848","320044.574599","320811.260339","324694.673784","325461.361277","326228.050524","326978.064551","327744.7462","328511.423465","329278.174958","330044.809264","331566.606778"
"Mixed","Female","done","45","M_reek.wav","space","226.530902094","408","323928.057596","330794.877063","331561.564264","332328.230716","333094.925807","319294.873848","320044.574599","320811.260339","324694.673784","325461.361277","326228.050524","326978.064551","327744.7462","328511.423465","329278.174958","330044.809264","332333.123022"
"Mixed","Female","done","45","M_cad.wav","space","667.898047403","408","323928.057596","330794.877063","331561.564264","332328.230716","333094.925807","333844.948309","320044.574599","320811.260339","324694.673784","325461.361277","326228.050524","326978.064551","327744.7462","328511.423465","329278.174958","330044.809264","333099.770186"
"Mixed","Female","done","45","M_lash.wav","None","747.301210087","408","323928.057596","330794.877063","331561.564264","332328.230716","333094.925807","333844.948309","334611.634634","320811.260339","324694.673784","325461.361277","326228.050524","326978.064551","327744.7462","328511.423465","329278.174958","330044.809264","333846.44426"
"Mixed","Female","done","45","M_jolt.wav","None","739.664818183","408","323928.057596","330794.877063","331561.564264","332328.230716","333094.925807","333844.948309","334611.634634","335378.280337","324694.673784","325461.361277","326228.050524","326978.064551","327744.7462","328511.423465","329278.174958","330044.809264","334617.710783"
"Mixed","Female","cave","22","M_reek.wav","None","737.719994483","408","338495.047494","330794.877063","331561.564264","332328.230716","333094.925807","333844.948309","334611.634634","335378.280337","324694.673784","325461.361277","326228.050524","326978.064551","327744.7462","328511.423465","329278.174958","330044.809264","335383.326066"
"Mixed","Female","cave","22","M_bluff.wav","None","740.262730924","408","338495.047494","330794.877063","331561.564264","332328.230716","333094.925807","333844.948309","334611.634634","335378.280337","339261.715115","325461.361277","326228.050524","326978.064551","327744.7462","328511.423465","329278.174958","330044.809264","338499.949736"
"Mixed","Female","cave","22","F_jaw.wav","None","736.485009515","408","338495.047494","330794.877063","331561.564264","332328.230716","333094.925807","333844.948309","334611.634634","335378.280337","339261.715115","340028.352052","326228.050524","326978.064551","327744.7462","328511.423465","329278.174958","330044.809264","339267.208256"
"Mixed","Female","cave","22","M_gnash.wav","None","734.14566861","408","338495.047494","330794.877063","331561.564264","332328.230716","333094.925807","333844.948309","334611.634634","335378.280337","339261.715115","340028.352052","340795.074029","326978.064551","327744.7462","328511.423465","329278.174958","330044.809264","340033.370603"
"Mixed","Female","cave","22","F_cave.wav","None","731.068434415","408","338495.047494","330794.877063","331561.564264","332328.230716","333094.925807","333844.948309","334611.634634","335378.280337","339261.715115","340028.352052","340795.074029","341562.100223","327744.7462","328511.423465","329278.174958","330044.809264","340800.009585"
"Mixed","Female","cave","22","M_dime.wav","space","672.048660629","408","338495.047494","330794.877063","331561.564264","332328.230716","333094.925807","333844.948309","334611.634634","335378.280337","339261.715115","340028.352052","340795.074029","341562.100223","342311.827567","328511.423465","329278.174958","330044.809264","341567.525857"
"Mixed","Female","cave","22","F_cave.wav","None","740.120996965","408","338495.047494","330794.877063","331561.564264","332328.230716","333094.925807","333844.948309","334611.634634","335378.280337","339261.715115","340028.352052","340795.074029","341562.100223","342311.827567","343078.429436","329278.174958","330044.809264","342316.876511"
"Mixed","Female","cave","22","F_cling.wav","None","736.842120644","408","338495.047494","330794.877063","331561.564264","332328.230716","333094.925807","333844.948309","334611.634634","335378.280337","339261.715115","340028.352052","340795.074029","341562.100223","342311.827567","343078.429436","343845.142061","330044.809264","343083.851563"
"Mixed","Female","cave","22","M_depth.wav","space","109.329776639","408","338495.047494","330794.877063","331561.564264","332328.230716","333094.925807","333844.948309","334611.634634","335378.280337","339261.715115","340028.352052","340795.074029","341562.100223","342311.827567","343078.429436","343845.142061","344611.852641","343850.286273"
"Mixed","Female","cave","22","F_cave.wav","None","729.651679299","408","338495.047494","345361.896769","331561.564264","332328.230716","333094.925807","333844.948309","334611.634634","335378.280337","339261.715115","340028.352052","340795.074029","341562.100223","342311.827567","343078.429436","343845.142061","344611.852641","344616.967045"
"Mixed","Female","cave","22","M_knife.wav","None","743.28239483","408","338495.047494","345361.896769","346128.529322","332328.230716","333094.925807","333844.948309","334611.634634","335378.280337","339261.715115","340028.352052","340795.074029","341562.100223","342311.827567","343078.429436","343845.142061","344611.852641","345366.923794"
"Mixed","Female","cave","22","F_cave.wav","space","0.0476342993206","408","338495.047494","345361.896769","346128.529322","346895.254513","333094.925807","333844.948309","334611.634634","335378.280337","339261.715115","340028.352052","340795.074029","341562.100223","342311.827567","343078.429436","343845.142061","344611.852641","346133.773186"
"Mixed","Female","cave","22","M_cling.wav","space","690.885834319","408","338495.047494","345361.896769","346128.529322","346895.254513","347661.97123","333844.948309","334611.634634","335378.280337","339261.715115","340028.352052","340795.074029","341562.100223","342311.827567","343078.429436","343845.142061","344611.852641","346900.684239"
"Mixed","Female","cave","22","M_gnash.wav","None","731.609945808","408","338495.047494","345361.896769","346128.529322","346895.254513","347661.97123","348428.831726","334611.634634","335378.280337","339261.715115","340028.352052","340795.074029","341562.100223","342311.827567","343078.429436","343845.142061","344611.852641","347666.869088"
"Mixed","Female","cave","22","F_gnash.wav","None","727.280192548","408","338495.047494","345361.896769","346128.529322","346895.254513","347661.97123","348428.831726","349178.611381","335378.280337","339261.715115","340028.352052","340795.074029","341562.100223","342311.827567","343078.429436","343845.142061","344611.852641","348434.710033"
"Mixed","Female","cave","22","F_priest.wav","None","742.28908818","408","338495.047494","345361.896769","346128.529322","346895.254513","347661.97123","348428.831726","349178.611381","349945.277834","339261.715115","340028.352052","340795.074029","341562.100223","342311.827567","343078.429436","343845.142061","344611.852641","349183.608015"
"Mixed","Female","ball","7","M_cling.wav","None","739.096421174","408","353062.038269","345361.896769","346128.529322","346895.254513","347661.97123","348428.831726","349178.611381","349945.277834","339261.715115","340028.352052","340795.074029","341562.100223","342311.827567","343078.429436","343845.142061","344611.852641","349950.413863"
"Mixed","Female","ball","7","F_ball.wav","None","740.045892579","408","353062.038269","345361.896769","346128.529322","346895.254513","347661.97123","348428.831726","349178.611381","349945.277834","353828.760246","340028.352052","340795.074029","341562.100223","342311.827567","343078.429436","343845.142061","344611.852641","353067.157933"
"Mixed","Female","ball","7","M_romp.wav","space","477.603696655","408","353062.038269","345361.896769","346128.529322","346895.254513","347661.97123","348428.831726","349178.611381","349945.277834","353828.760246","354595.42173","340795.074029","341562.100223","342311.827567","343078.429436","343845.142061","344611.852641","353833.896568"
"Mixed","Female","ball","7","M_greet.wav","None","732.920035162","408","353062.038269","345361.896769","346128.529322","346895.254513","347661.97123","348428.831726","349178.611381","349945.277834","353828.760246","354595.42173","355362.098118","341562.100223","342311.827567","343078.429436","343845.142061","344611.852641","354600.465706"
"Mixed","Female","ball","7","F_greet.wav","None","730.068114126","408","353062.038269","345361.896769","346128.529322","346895.254513","347661.97123","348428.831726","349178.611381","349945.277834","353828.760246","354595.42173","355362.098118","356112.150429","342311.827567","343078.429436","343845.142061","344611.852641","355367.019648"
"Mixed","Female","ball","7","M_park.wav","None","743.452767816","408","353062.038269","345361.896769","346128.529322","346895.254513","347661.97123","348428.831726","349178.611381","349945.277834","353828.760246","354595.42173","355362.098118","356112.150429","356878.774507","343078.429436","343845.142061","344611.852641","356117.332923"
"Mixed","Female","ball","7","F_ball.wav","None","740.655202484","408","353062.038269","345361.896769","346128.529322","346895.254513","347661.97123","348428.831726","349178.611381","349945.277834","353828.760246","354595.42173","355362.098118","356112.150429","356878.774507","357645.483918","343845.142061","344611.852641","356883.826373"
"Mixed","Female","ball","7","F_knife.wav","space","612.999078875","408","353062.038269","345361.896769","346128.529322","346895.254513","347661.97123","348428.831726","349178.611381","349945.277834","353828.760246","354595.42173","355362.098118","356112.150429","356878.774507","357645.483918","358412.166735","344611.852641","357650.442561"
"Mixed","Female","ball","7","M_bluff.wav","None","733.656467277","408","353062.038269","345361.896769","346128.529322","346895.254513","347661.97123","348428.831726","349178.611381","349945.277834","353828.760246","354595.42173","355362.098118","356112.150429","356878.774507","357645.483918","358412.166735","359178.829681","358417.452681"
"Mixed","Female","ball","7","M_cad.wav","None","731.155812671","408","353062.038269","359946.033261","346128.529322","346895.254513","347661.97123","348428.831726","349178.611381","349945.277834","353828.760246","354595.42173","355362.098118","356112.150429","356878.774507","357645.483918","358412.166735","359178.829681","359183.826314"
"Mixed","Female","ball","7","F_cling.wav","None","727.108650623","408","353062.038269","359946.033261","360695.553119","346895.254513","347661.97123","348428.831726","349178.611381","349945.277834","353828.760246","354595.42173","355362.098118","356112.150429","356878.774507","357645.483918","358412.166735","359178.829681","359951.533415"
"Mixed","Female","ball","7","F_reek.wav","None","741.431963024","408","353062.038269","359946.033261","360695.553119","361462.205836","347661.97123","348428.831726","349178.611381","349945.277834","353828.760246","354595.42173","355362.098118","356112.150429","356878.774507","357645.483918","358412.166735","359178.829681","360701.019958"
"Mixed","Female","ball","7","F_ball.wav","None","739.340145135","408","353062.038269","359946.033261","360695.553119","361462.205836","362228.909987","348428.831726","349178.611381","349945.277834","353828.760246","354595.42173","355362.098118","356112.150429","356878.774507","357645.483918","358412.166735","359178.829681","361467.13321"
"Mixed","Female","ball","7","M_romp.wav","space","517.620307291","408","353062.038269","359946.033261","360695.553119","361462.205836","362228.909987","362995.622905","349178.611381","349945.277834","353828.760246","354595.42173","355362.098118","356112.150429","356878.774507","357645.483918","358412.166735","359178.829681","362233.823626"
"Mixed","Female","ball","7","F_ball.wav","None","731.915623583","408","353062.038269","359946.033261","360695.553119","361462.205836","362228.909987","362995.622905","363762.621044","349945.277834","353828.760246","354595.42173","355362.098118","356112.150429","356878.774507","357645.483918","358412.166735","359178.829681","363000.618369"
"Mixed","Female","ball","7","M_gnash.wav","space","655.390098612","408","353062.038269","359946.033261","360695.553119","361462.205836","362228.909987","362995.622905","363762.621044","364512.310106","353828.760246","354595.42173","355362.098118","356112.150429","356878.774507","357645.483918","358412.166735","359178.829681","363768.03382"
"Mixed","Male","tile","26","F_gnash.wav","None","740.887821517","408","367629.047747","359946.033261","360695.553119","361462.205836","362228.909987","362995.622905","363762.621044","364512.310106","353828.760246","354595.42173","355362.098118","356112.150429","356878.774507","357645.483918","358412.166735","359178.829681","364517.714699"
"Mixed","Male","tile","26","M_jolt.wav","None","740.975199772","408","367629.047747","359946.033261","360695.553119","361462.205836","362228.909987","362995.622905","363762.621044","364512.310106","368395.796609","354595.42173","355362.098118","356112.150429","356878.774507","357645.483918","358412.166735","359178.829681","367634.012526"
"Mixed","Male","tile","26","M_tile.wav","None","738.080612431","408","367629.047747","359946.033261","360695.553119","361462.205836","362228.909987","362995.622905","363762.621044","364512.310106","368395.796609","369162.447865","355362.098118","356112.150429","356878.774507","357645.483918","358412.166735","359178.829681","368400.695344"
"Mixed","Male","tile","26","F_romp.wav","space","679.867407151","408","367629.047747","359946.033261","360695.553119","361462.205836","362228.909987","362995.622905","363762.621044","364512.310106","368395.796609","369162.447865","369929.172472","356112.150429","356878.774507","357645.483918","358412.166735","359178.829681","369167.488042"
"Mixed","Male","tile","26","F_park.wav","None","730.804838476","408","367629.047747","359946.033261","360695.553119","361462.205836","362228.909987","362995.622905","363762.621044","364512.310106","368395.796609","369162.447865","369929.172472","370696.490901","356878.774507","357645.483918","358412.166735","359178.829681","369934.317561"
"Mixed","Male","tile","26","M_tile.wav","None","727.088778645","408","367629.047747","359946.033261","360695.553119","361462.205836","362228.909987","362995.622905","363762.621044","364512.310106","368395.796609","369162.447865","369929.172472","370696.490901","371445.818176","357645.483918","358412.166735","359178.829681","370701.871239"
"Mixed","Male","tile","26","F_bluff.wav","space","668.738807401","408","367629.047747","359946.033261","360695.553119","361462.205836","362228.909987","362995.622905","363762.621044","364512.310106","368395.796609","369162.447865","369929.172472","370696.490901","371445.818176","372212.514144","358412.166735","359178.829681","371450.637423"
"Mixed","Male","tile","26","M_tile.wav","None","737.935956123","408","367629.047747","359946.033261","360695.553119","361462.205836","362228.909987","362995.622905","363762.621044","364512.310106","368395.796609","369162.447865","369929.172472","370696.490901","371445.818176","372212.514144","372979.183519","359178.829681","372217.368167"
"Mixed","Male","tile","26","F_depth.wav","None","734.764622269","408","367629.047747","359946.033261","360695.553119","361462.205836","362228.909987","362995.622905","363762.621044","364512.310106","368395.796609","369162.447865","369929.172472","370696.490901","371445.818176","372212.514144","372979.183519","373745.871889","372984.559181"
"Mixed","Male","tile","26","M_bluff.wav","space","408.652609775","408","367629.047747","374512.892238","360695.553119","361462.205836","362228.909987","362995.622905","363762.621044","364512.310106","368395.796609","369162.447865","369929.172472","370696.490901","371445.818176","372212.514144","372979.183519","373745.871889","373750.672725"
"Mixed","Male","tile","26","F_reek.wav","None","727.304155815","408","367629.047747","374512.892238","375262.573702","361462.205836","362228.909987","362995.622905","363762.621044","364512.310106","368395.796609","369162.447865","369929.172472","370696.490901","371445.818176","372212.514144","372979.183519","373745.871889","374518.550199"
"Mixed","Male","tile","26","F_cling.wav","None","742.013218372","408","367629.047747","374512.892238","375262.573702","376029.22262","362228.909987","362995.622905","363762.621044","364512.310106","368395.796609","369162.447865","369929.172472","370696.490901","371445.818176","372212.514144","372979.183519","373745.871889","375267.707686"
"Mixed","Male","tile","26","F_reek.wav","None","740.078622895","408","367629.047747","374512.892238","375262.573702","376029.22262","376795.976743","362995.622905","363762.621044","364512.310106","368395.796609","369162.447865","369929.172472","370696.490901","371445.818176","372212.514144","372979.183519","373745.871889","376034.083656"
"Mixed","Male","tile","26","M_tile.wav","None","736.79360964","408","367629.047747","374512.892238","375262.573702","376029.22262","376795.976743","377562.672126","363762.621044","364512.310106","368395.796609","369162.447865","369929.172472","370696.490901","371445.818176","372212.514144","372979.183519","373745.871889","376801.175018"
"Mixed","Male","tile","26","M_dime.wav","space","455.723772496","408","367629.047747","374512.892238","375262.573702","376029.22262","376795.976743","377562.672126","378329.305848","364512.310106","368395.796609","369162.447865","369929.172472","370696.490901","371445.818176","372212.514144","372979.183519","373745.871889","377567.573783"
"Mixed","Male","tile","26","M_greet.wav","None","729.094679453","408","367629.047747","374512.892238","375262.573702","376029.22262","376795.976743","377562.672126","378329.305848","379096.28207","368395.796609","369162.447865","369929.172472","370696.490901","371445.818176","372212.514144","372979.183519","373745.871889","378335.282054"
"Mixed","Male","tile","25","M_gnash.wav","None","726.519504931","408","382179.367101","374512.892238","375262.573702","376029.22262","376795.976743","377562.672126","378329.305848","379096.28207","368395.796609","369162.447865","369929.172472","370696.490901","371445.818176","372212.514144","372979.183519","373745.871889","379101.874863"
"Mixed","Male","tile","25","M_jolt.wav","None","740.629778042","408","382179.367101","374512.892238","375262.573702","376029.22262","376795.976743","377562.672126","378329.305848","379096.28207","382946.130867","369162.447865","369929.172472","370696.490901","371445.818176","372212.514144","372979.183519","373745.871889","382184.41809"
"Mixed","Male","tile","25","F_greet.wav","None","737.662131959","408","382179.367101","374512.892238","375262.573702","376029.22262","376795.976743","377562.672126","378329.305848","379096.28207","382946.130867","383712.761959","369929.172472","370696.490901","371445.818176","372212.514144","372979.183519","373745.871889","382951.320084"
"Mixed","Male","tile","25","M_cad.wav","None","735.269896525","408","382179.367101","374512.892238","375262.573702","376029.22262","376795.976743","377562.672126","378329.305848","379096.28207","382946.130867","383712.761959","384479.512283","370696.490901","371445.818176","372212.514144","372979.183519","373745.871889","383717.702484"
"Mixed","Male","tile","25","M_tile.wav","None","732.369464485","408","382179.367101","374512.892238","375262.573702","376029.22262","376795.976743","377562.672126","378329.305848","379096.28207","382946.130867","383712.761959","384479.512283","385246.168215","371445.818176","372212.514144","372979.183519","373745.871889","384484.539894"
"Mixed","Male","tile","25","F_bluff.wav","space","555.958028045","408","382179.367101","374512.892238","375262.573702","376029.22262","376795.976743","377562.672126","378329.305848","379096.28207","382946.130867","383712.761959","384479.512283","385246.168215","385996.200069","372212.514144","372979.183519","373745.871889","385251.216866"
"Mixed","Male","tile","25","F_reek.wav","None","742.109071441","408","382179.367101","374512.892238","375262.573702","376029.22262","376795.976743","377562.672126","378329.305848","379096.28207","382946.130867","383712.761959","384479.512283","385246.168215","385996.200069","386762.851909","372979.183519","373745.871889","386001.448316"
"Mixed","Male","tile","25","M_romp.wav","None","739.839866928","408","382179.367101","374512.892238","375262.573702","376029.22262","376795.976743","377562.672126","378329.305848","379096.28207","382946.130867","383712.761959","384479.512283","385246.168215","385996.200069","386762.851909","387529.520115","373745.871889","386768.010441"
"Mixed","Male","tile","25","M_tile.wav","None","737.131433261","408","382179.367101","374512.892238","375262.573702","376029.22262","376795.976743","377562.672126","378329.305848","379096.28207","382946.130867","383712.761959","384479.512283","385246.168215","385996.200069","386762.851909","387529.520115","388296.203809","387534.778007"
"Mixed","Male","tile","25","F_greet.wav","space","529.902942923","408","382179.367101","389062.88312","375262.573702","376029.22262","376795.976743","377562.672126","378329.305848","379096.28207","382946.130867","383712.761959","384479.512283","385246.168215","385996.200069","386762.851909","387529.520115","388296.203809","388301.300095"
"Mixed","Male","tile","25","F_romp.wav","None","730.662812282","408","382179.367101","389062.88312","389829.936491","376029.22262","376795.976743","377562.672126","378329.305848","379096.28207","382946.130867","383712.761959","384479.512283","385246.168215","385996.200069","386762.851909","387529.520115","388296.203809","389067.925927"
"Mixed","Male","tile","25","M_tile.wav","None","727.08731747","408","382179.367101","389062.88312","389829.936491","390579.653024","376795.976743","377562.672126","378329.305848","379096.28207","382946.130867","383712.761959","384479.512283","385246.168215","385996.200069","386762.851909","387529.520115","388296.203809","389835.381121"
"Mixed","Male","tile","25","F_depth.wav","space","534.355434869","408","382179.367101","389062.88312","389829.936491","390579.653024","391346.280316","377562.672126","378329.305848","379096.28207","382946.130867","383712.761959","384479.512283","385246.168215","385996.200069","386762.851909","387529.520115","388296.203809","390584.824414"
"Mixed","Male","tile","25","F_reek.wav","None","737.740743165","408","382179.367101","389062.88312","389829.936491","390579.653024","391346.280316","392112.939463","378329.305848","379096.28207","382946.130867","383712.761959","384479.512283","385246.168215","385996.200069","386762.851909","387529.520115","388296.203809","391351.340657"
"Mixed","Male","tile","25","M_tile.wav","None","735.217001996","408","382179.367101","389062.88312","389829.936491","390579.653024","391346.280316","392112.939463","392879.647997","379096.28207","382946.130867","383712.761959","384479.512283","385246.168215","385996.200069","386762.851909","387529.520115","388296.203809","392117.867713"
"Mixed","Male","tile","25","F_bluff.wav","space","562.699888717","408","382179.367101","389062.88312","389829.936491","390579.653024","391346.280316","392112.939463","392879.647997","393646.637954","382946.130867","383712.761959","384479.512283","385246.168215","385996.200069","386762.851909","387529.520115","388296.203809","392884.490915"
"Mixed","Female","done","43","F_priest.wav","None","727.400008884","408","396746.422752","389062.88312","389829.936491","390579.653024","391346.280316","392112.939463","392879.647997","393646.637954","382946.130867","383712.761959","384479.512283","385246.168215","385996.200069","386762.851909","387529.520115","388296.203809","393652.140446"
"Mixed","Female","done","43","M_dime.wav","None","740.218603444","408","396746.422752","389062.88312","389829.936491","390579.653024","391346.280316","392112.939463","392879.647997","393646.637954","397513.145313","383712.761959","384479.512283","385246.168215","385996.200069","386762.851909","387529.520115","388296.203809","396751.575731"
"Mixed","Female","done","43","F_done.wav","None","737.260893351","408","396746.422752","389062.88312","389829.936491","390579.653024","391346.280316","392112.939463","392879.647997","393646.637954","397513.145313","398279.810304","384479.512283","385246.168215","385996.200069","386762.851909","387529.520115","388296.203809","397518.399113"
"Mixed","Female","done","43","M_dime.wav","None","734.92885832","408","396746.422752","389062.88312","389829.936491","390579.653024","391346.280316","392112.939463","392879.647997","393646.637954","397513.145313","398279.810304","399046.438766","385246.168215","385996.200069","386762.851909","387529.520115","388296.203809","398284.756673"
"Mixed","Female","done","43","F_park.wav","space","59.5203722842","408","396746.422752","389062.88312","389829.936491","390579.653024","391346.280316","392112.939463","392879.647997","393646.637954","397513.145313","398279.810304","399046.438766","399813.526037","385996.200069","386762.851909","387529.520115","388296.203809","399051.587946"
"Mixed","Female","done","43","M_greet.wav","None","727.029454947","408","396746.422752","389062.88312","389829.936491","390579.653024","391346.280316","392112.939463","392879.647997","393646.637954","397513.145313","398279.810304","399046.438766","399813.526037","400563.239354","386762.851909","387529.520115","388296.203809","399818.932092"
"Mixed","Female","done","43","M_jaw.wav","None","744.862801528","408","396746.422752","389062.88312","389829.936491","390579.653024","391346.280316","392112.939463","392879.647997","393646.637954","397513.145313","398279.810304","399046.438766","399813.526037","400563.239354","401329.878337","387529.520115","388296.203809","400564.985751"
"Mixed","Female","done","43","F_done.wav","None","738.957025095","408","396746.422752","389062.88312","389829.936491","390579.653024","391346.280316","392112.939463","392879.647997","393646.637954","397513.145313","398279.810304","399046.438766","399813.526037","400563.239354","401329.878337","402096.575766","388296.203809","401334.88929"
"Mixed","Female","done","43","M_jaw.wav","space","585.612571247","408","396746.422752","389062.88312","389829.936491","390579.653024","391346.280316","392112.939463","392879.647997","393646.637954","397513.145313","398279.810304","399046.438766","399813.526037","400563.239354","401329.878337","402096.575766","402863.326382","402101.489405"
"Mixed","Female","done","43","M_reek.wav","None","731.4594448","408","396746.422752","403629.921821","389829.936491","390579.653024","391346.280316","392112.939463","392879.647997","393646.637954","397513.145313","398279.810304","399046.438766","399813.526037","400563.239354","401329.878337","402096.575766","402863.326382","402868.711104"
"Mixed","Female","done","43","F_gnash.wav","None","729.251317395","408","396746.422752","403629.921821","404379.919191","390579.653024","391346.280316","392112.939463","392879.647997","393646.637954","397513.145313","398279.810304","399046.438766","399813.526037","400563.239354","401329.878337","402096.575766","402863.326382","403634.876373"
"Mixed","Female","done","43","F_done.wav","None","743.184496117","408","396746.422752","403629.921821","404379.919191","405146.602593","391346.280316","392112.939463","392879.647997","393646.637954","397513.145313","398279.810304","399046.438766","399813.526037","400563.239354","401329.878337","402096.575766","402863.326382","404385.070709"
"Mixed","Female","done","43","M_park.wav","space","591.370769022","408","396746.422752","403629.921821","404379.919191","405146.602593","405913.301191","392112.939463","392879.647997","393646.637954","397513.145313","398279.810304","399046.438766","399813.526037","400563.239354","401329.878337","402096.575766","402863.326382","405151.705308"
"Mixed","Female","done","43","F_done.wav","None","736.315513235","408","396746.422752","403629.921821","404379.919191","405146.602593","405913.301191","406679.987516","392879.647997","393646.637954","397513.145313","398279.810304","399046.438766","399813.526037","400563.239354","401329.878337","402096.575766","402863.326382","405918.378189"
"Mixed","Female","done","43","M_dime.wav","None","733.615262147","408","396746.422752","403629.921821","404379.919191","405146.602593","405913.301191","406679.987516","407446.748652","393646.637954","397513.145313","398279.810304","399046.438766","399813.526037","400563.239354","401329.878337","402096.575766","402863.326382","406685.105134"
"Mixed","Female","done","43","F_reek.wav","space","0.0216253874823","408","396746.422752","403629.921821","404379.919191","405146.602593","405913.301191","406679.987516","407446.748652","408196.697219","397513.145313","398279.810304","399046.438766","399813.526037","400563.239354","401329.878337","402096.575766","402863.326382","407451.789705"
"Mixed","Male","ball","5","F_romp.wav","None","743.766920405","408","411313.451225","403629.921821","404379.919191","405146.602593","405913.301191","406679.987516","407446.748652","408196.697219","397513.145313","398279.810304","399046.438766","399813.526037","400563.239354","401329.878337","402096.575766","402863.326382","408201.647679"
"Mixed","Male","ball","5","F_cad.wav","None","739.959098794","408","411313.451225","403629.921821","404379.919191","405146.602593","405913.301191","406679.987516","407446.748652","408196.697219","412080.107449","398279.810304","399046.438766","399813.526037","400563.239354","401329.878337","402096.575766","402863.326382","411318.744769"
"Mixed","Male","ball","5","F_gnash.wav","None","737.602223791","408","411313.451225","403629.921821","404379.919191","405146.602593","405913.301191","406679.987516","407446.748652","408196.697219","412080.107449","412846.795527","399046.438766","399813.526037","400563.239354","401329.878337","402096.575766","402863.326382","412085.161068"
"Mixed","Male","ball","5","M_ball.wav","None","735.048090186","408","411313.451225","403629.921821","404379.919191","405146.602593","405913.301191","406679.987516","407446.748652","408196.697219","412080.107449","412846.795527","413613.506399","399813.526037","400563.239354","401329.878337","402096.575766","402863.326382","412851.85879"
"Mixed","Male","ball","5","F_lash.wav","space","524.477600774","408","411313.451225","403629.921821","404379.919191","405146.602593","405913.301191","406679.987516","407446.748652","408196.697219","412080.107449","412846.795527","413613.506399","414380.373032","400563.239354","401329.878337","402096.575766","402863.326382","413618.518228"
"Mixed","Male","ball","5","M_ball.wav","None","728.295709055","408","411313.451225","403629.921821","404379.919191","405146.602593","405913.301191","406679.987516","407446.748652","408196.697219","412080.107449","412846.795527","413613.506399","414380.373032","415130.244449","401329.878337","402096.575766","402863.326382","414385.233776"
"Mixed","Male","ball","5","M_depth.wav","space","519.713294119","408","411313.451225","403629.921821","404379.919191","405146.602593","405913.301191","406679.987516","407446.748652","408196.697219","412080.107449","412846.795527","413613.506399","414380.373032","415130.244449","415896.925805","402096.575766","402863.326382","415135.287255"
