"Condition","Talker","Target","Trial","current_stimulus","response_response","response_time_response","subject_nr","time_Audio1","time_Audio10","time_Audio11","time_Audio12","time_Audio13","time_Audio14","time_Audio15","time_Audio16","time_Audio2","time_Audio3","time_Audio4","time_Audio5","time_Audio6","time_Audio7","time_Audio8","time_Audio9","time_response","title"
"Mixed","both","ball","12","F_jaw.wav","NA","NA","319","143629.071308","NA","NA","NA","NA","NA","NA","NA","NA","NA","NA","NA","NA","NA","NA","NA","NA","Mapping"
"Mixed","both","ball","12","M_depth.wav","None","718.946720939","319","143629.071308","NA","NA","NA","NA","NA","NA","NA","144396.047468","NA","NA","NA","NA","NA","NA","NA","143644.141647","Mapping"
"Mixed","both","ball","12","M_ball.wav","None","725.004351698","319","143629.071308","NA","NA","NA","NA","NA","NA","NA","144396.047468","145162.452275","NA","NA","NA","NA","NA","NA","144405.814249","Mapping"
"Mixed","both","ball","12","F_jolt.wav","space","521.26137726","319","143629.071308","NA","NA","NA","NA","NA","NA","NA","144396.047468","145162.452275","145928.772987","NA","NA","NA","NA","NA","145172.167734","Mapping"
"Mixed","both","ball","12","F_dime.wav","None","728.18883555","319","143629.071308","NA","NA","NA","NA","NA","NA","NA","144396.047468","145162.452275","145928.772987","146695.494697","NA","NA","NA","NA","145937.972127","Mapping"
"Mixed","both","ball","12","M_reek.wav","None","728.874891065","319","143629.071308","NA","NA","NA","NA","NA","NA","NA","144396.047468","145162.452275","145928.772987","146695.494697","147462.014517","NA","NA","NA","146704.979822","Mapping"
"Mixed","both","ball","12","M_depth.wav","None","733.40767948","319","143629.071308","NA","NA","NA","NA","NA","NA","NA","144396.047468","145162.452275","145928.772987","146695.494697","147462.014517","148229.001807","NA","NA","147471.49253","Mapping"
"Mixed","both","ball","12","F_jaw.wav","None","730.477026198","319","143629.071308","NA","NA","NA","NA","NA","NA","NA","144396.047468","145162.452275","145928.772987","146695.494697","147462.014517","148229.001807","148995.826471","NA","148239.013453","Mapping"
"Mixed","both","ball","12","F_ball.wav","None","728.208622895","319","143629.071308","NA","NA","NA","NA","NA","NA","NA","144396.047468","145162.452275","145928.772987","146695.494697","147462.014517","148229.001807","148995.826471","149762.208709","149006.122557","Mapping"
"Mixed","both","ball","12","F_park.wav","space","586.05789626","319","143629.071308","150529.104174","NA","NA","NA","NA","NA","NA","144396.047468","145162.452275","145928.772987","146695.494697","147462.014517","148229.001807","148995.826471","149762.208709","149771.269647","Mapping"
"Mixed","both","ball","12","F_bluff.wav","None","730.85730942","319","143629.071308","150529.104174","151296.045706","NA","NA","NA","NA","NA","144396.047468","145162.452275","145928.772987","146695.494697","147462.014517","148229.001807","148995.826471","149762.208709","150538.933099","Mapping"
"Mixed","both","ball","12","M_greet.wav","None","731.492351275","319","143629.071308","150529.104174","151296.045706","152062.883046","NA","NA","NA","NA","144396.047468","145162.452275","145928.772987","146695.494697","147462.014517","148229.001807","148995.826471","149762.208709","151306.198026","Mapping"
"Mixed","both","ball","12","F_ball.wav","None","732.787168585","319","143629.071308","150529.104174","151296.045706","152062.883046","152829.354635","NA","NA","NA","144396.047468","145162.452275","145928.772987","146695.494697","147462.014517","148229.001807","148995.826471","149762.208709","152072.613654","Mapping"
"Mixed","both","ball","12","M_cad.wav","space","590.188450646","319","143629.071308","150529.104174","151296.045706","152062.883046","152829.354635","153596.141889","NA","NA","144396.047468","145162.452275","145928.772987","146695.494697","147462.014517","148229.001807","148995.826471","149762.208709","152839.107503","Mapping"
"Mixed","both","ball","12","M_ball.wav","None","731.651266105","319","143629.071308","150529.104174","151296.045706","152062.883046","152829.354635","153596.141889","154362.448998","NA","144396.047468","145162.452275","145928.772987","146695.494697","147462.014517","148229.001807","148995.826471","149762.208709","153606.06233","Mapping"
"Mixed","both","ball","12","M_dime.wav","space","705.173055176","319","143629.071308","150529.104174","151296.045706","152062.883046","152829.354635","153596.141889","154362.448998","155129.246146","144396.047468","145162.452275","145928.772987","146695.494697","147462.014517","148229.001807","148995.826471","149762.208709","154372.07696","Mapping"
"Mixed","both","tile","27","M_depth.wav","None","731.36435356","319","158279.682096","150529.104174","151296.045706","152062.883046","152829.354635","153596.141889","154362.448998","155129.246146","144396.047468","145162.452275","145928.772987","146695.494697","147462.014517","148229.001807","148995.826471","149762.208709","155138.913683","Mapping"
"Mixed","both","tile","27","M_depth.wav","None","720.934704877","319","158279.682096","150529.104174","151296.045706","152062.883046","152829.354635","153596.141889","154362.448998","155129.246146","159046.284155","145162.452275","145928.772987","146695.494697","147462.014517","148229.001807","148995.826471","149762.208709","158289.801025","Mapping"
"Mixed","both","tile","27","F_jolt.wav","None","719.946896657","319","158279.682096","150529.104174","151296.045706","152062.883046","152829.354635","153596.141889","154362.448998","155129.246146","159046.284155","159796.385023","145928.772987","146695.494697","147462.014517","148229.001807","148995.826471","149762.208709","159056.284053","Mapping"
"Mixed","both","tile","27","M_tile.wav","None","735.118334647","319","158279.682096","150529.104174","151296.045706","152062.883046","152829.354635","153596.141889","154362.448998","155129.246146","159046.284155","159796.385023","160579.682127","146695.494697","147462.014517","148229.001807","148995.826471","149762.208709","159806.100482","Mapping"
"Mixed","both","tile","27","F_dime.wav","space","472.028946038","319","158279.682096","150529.104174","151296.045706","152062.883046","152829.354635","153596.141889","154362.448998","155129.246146","159046.284155","159796.385023","160579.682127","161329.049017","147462.014517","148229.001807","148995.826471","149762.208709","160589.138807","Mapping"
"Mixed","both","tile","27","M_tile.wav","None","735.362890642","319","158279.682096","150529.104174","151296.045706","152062.883046","152829.354635","153596.141889","154362.448998","155129.246146","159046.284155","159796.385023","160579.682127","161329.049017","162095.75465","148229.001807","148995.826471","149762.208709","161338.302571","Mapping"
"Mixed","both","tile","27","F_depth.wav","None","732.715131249","319","158279.682096","150529.104174","151296.045706","152062.883046","152829.354635","153596.141889","154362.448998","155129.246146","159046.284155","159796.385023","160579.682127","161329.049017","162095.75465","162862.50975","148995.826471","149762.208709","162105.71621","Mapping"
"Mixed","both","tile","27","M_lash.wav","space","37.1347931214","319","158279.682096","150529.104174","151296.045706","152062.883046","152829.354635","153596.141889","154362.448998","155129.246146","159046.284155","159796.385023","160579.682127","161329.049017","162095.75465","162862.50975","163629.373061","149762.208709","162871.977252","Mapping"
"Mixed","both","tile","27","M_bluff.wav","None","735.471101012","319","158279.682096","150529.104174","151296.045706","152062.883046","152829.354635","153596.141889","154362.448998","155129.246146","159046.284155","159796.385023","160579.682127","161329.049017","162095.75465","162862.50975","163629.373061","164412.960788","163638.987111","Mapping"
"Mixed","both","tile","27","F_tile.wav","None","719.44881836","319","158279.682096","165178.953158","151296.045706","152062.883046","152829.354635","153596.141889","154362.448998","155129.246146","159046.284155","159796.385023","160579.682127","161329.049017","162095.75465","162862.50975","163629.373061","164412.960788","164422.991912","Mapping"
"Mixed","both","tile","27","F_greet.wav","space","480.885830708","319","158279.682096","165178.953158","165946.172327","152062.883046","152829.354635","153596.141889","154362.448998","155129.246146","159046.284155","159796.385023","160579.682127","161329.049017","162095.75465","162862.50975","163629.373061","164412.960788","165188.175795","Mapping"
"Mixed","both","tile","27","F_tile.wav","None","721.2175983","319","158279.682096","165178.953158","165946.172327","166713.007194","152829.354635","153596.141889","154362.448998","155129.246146","159046.284155","159796.385023","160579.682127","161329.049017","162095.75465","162862.50975","163629.373061","164412.960788","165956.738012","Mapping"
"Mixed","both","tile","27","M_dime.wav","space","601.764822844","319","158279.682096","165178.953158","165946.172327","166713.007194","167462.037705","153596.141889","154362.448998","155129.246146","159046.284155","159796.385023","160579.682127","161329.049017","162095.75465","162862.50975","163629.373061","164412.960788","166723.253813","Mapping"
"Mixed","both","tile","27","F_jaw.wav","None","735.958667006","319","158279.682096","165178.953158","165946.172327","166713.007194","167462.037705","168228.971817","154362.448998","155129.246146","159046.284155","159796.385023","160579.682127","161329.049017","162095.75465","162862.50975","163629.373061","164412.960788","167471.607234","Mapping"
"Mixed","both","tile","27","M_jolt.wav","None","733.241343871","319","158279.682096","165178.953158","165946.172327","166713.007194","167462.037705","168228.971817","168995.583151","155129.246146","159046.284155","159796.385023","160579.682127","161329.049017","162095.75465","162862.50975","163629.373061","164412.960788","168239.151653","Mapping"
"Mixed","both","tile","27","F_jolt.wav","None","735.027746763","319","158279.682096","165178.953158","165946.172327","166713.007194","167462.037705","168228.971817","168995.583151","169761.97992","159046.284155","159796.385023","160579.682127","161329.049017","162095.75465","162862.50975","163629.373061","164412.960788","169005.341276","Mapping"
"Mixed","both","ball","11","F_gnash.wav","None","734.097444452","319","172895.882215","165178.953158","165946.172327","166713.007194","167462.037705","168228.971817","168995.583151","169761.97992","159046.284155","159796.385023","160579.682127","161329.049017","162095.75465","162862.50975","163629.373061","164412.960788","169771.21647","Mapping"
"Mixed","both","ball","11","M_jaw.wav","None","725.124620367","319","172895.882215","165178.953158","165946.172327","166713.007194","167462.037705","168228.971817","168995.583151","169761.97992","173662.340818","159796.385023","160579.682127","161329.049017","162095.75465","162862.50975","163629.373061","164412.960788","172905.424845","Mapping"
"Mixed","both","ball","11","M_ball.wav","space","636.582671665","319","172895.882215","165178.953158","165946.172327","166713.007194","167462.037705","168228.971817","168995.583151","169761.97992","173662.340818","174429.015224","160579.682127","161329.049017","162095.75465","162862.50975","163629.373061","164412.960788","173672.33175","Mapping"
"Mixed","both","ball","11","F_knife.wav","space","622.199006379","319","172895.882215","165178.953158","165946.172327","166713.007194","167462.037705","168228.971817","168995.583151","169761.97992","173662.340818","174429.015224","175195.330681","161329.049017","162095.75465","162862.50975","163629.373061","164412.960788","174438.687399","Mapping"
"Mixed","both","ball","11","F_ball.wav","None","726.84671497","319","172895.882215","165178.953158","165946.172327","166713.007194","167462.037705","168228.971817","168995.583151","169761.97992","173662.340818","174429.015224","175195.330681","175961.945416","162095.75465","162862.50975","163629.373061","164412.960788","175204.362557","Mapping"
"Mixed","both","ball","11","M_greet.wav","space","633.640578948","319","172895.882215","165178.953158","165946.172327","166713.007194","167462.037705","168228.971817","168995.583151","169761.97992","173662.340818","174429.015224","175195.330681","175961.945416","176728.875818","162862.50975","163629.373061","164412.960788","175971.239781","Mapping"
"Mixed","both","ball","11","F_gnash.wav","None","722.710595932","319","172895.882215","165178.953158","165946.172327","166713.007194","167462.037705","168228.971817","168995.583151","169761.97992","173662.340818","174429.015224","175195.330681","175961.945416","176728.875818","177495.444797","163629.373061","164412.960788","176738.443801","Mapping"
"Mixed","both","ball","11","M_jolt.wav","None","719.452219084","319","172895.882215","165178.953158","165946.172327","166713.007194","167462.037705","168228.971817","168995.583151","169761.97992","173662.340818","174429.015224","175195.330681","175961.945416","176728.875818","177495.444797","178245.848654","164412.960788","177506.743531","Mapping"
"Mixed","both","ball","11","F_reek.wav","None","735.529225785","319","172895.882215","165178.953158","165946.172327","166713.007194","167462.037705","168228.971817","168995.583151","169761.97992","173662.340818","174429.015224","175195.330681","175961.945416","176728.875818","177495.444797","178245.848654","179028.254411","178255.497022","Mapping"
"Mixed","both","ball","11","F_ball.wav","None","726.113974117","319","172895.882215","179795.254686","165946.172327","166713.007194","167462.037705","168228.971817","168995.583151","169761.97992","173662.340818","174429.015224","175195.330681","175961.945416","176728.875818","177495.444797","178245.848654","179028.254411","179038.271932","Mapping"
"Mixed","both","ball","11","M_romp.wav","space","432.389850263","319","172895.882215","179795.254686","180562.3338","166713.007194","167462.037705","168228.971817","168995.583151","169761.97992","173662.340818","174429.015224","175195.330681","175961.945416","176728.875818","177495.444797","178245.848654","179028.254411","179804.41456","Mapping"
"Mixed","both","ball","11","M_jaw.wav","None","724.740008824","319","172895.882215","179795.254686","180562.3338","181329.24596","167462.037705","168228.971817","168995.583151","169761.97992","173662.340818","174429.015224","175195.330681","175961.945416","176728.875818","177495.444797","178245.848654","179028.254411","180572.240018","Mapping"
"Mixed","both","ball","11","F_knife.wav","None","720.972423907","319","172895.882215","179795.254686","180562.3338","181329.24596","182096.014046","168228.971817","168995.583151","169761.97992","173662.340818","174429.015224","175195.330681","175961.945416","176728.875818","177495.444797","178245.848654","179028.254411","181341.053285","Mapping"
"Mixed","both","ball","11","M_jaw.wav","None","720.773316454","319","172895.882215","179795.254686","180562.3338","181329.24596","182096.014046","182861.870999","168995.583151","169761.97992","173662.340818","174429.015224","175195.330681","175961.945416","176728.875818","177495.444797","178245.848654","179028.254411","182106.242732","Mapping"
"Mixed","both","ball","11","M_ball.wav","None","719.348027837","319","172895.882215","179795.254686","180562.3338","181329.24596","182096.014046","182861.870999","183611.675369","169761.97992","173662.340818","174429.015224","175195.330681","175961.945416","176728.875818","177495.444797","178245.848654","179028.254411","182873.145308","Mapping"
"Mixed","both","ball","11","F_jaw.wav","space","487.885202747","319","172895.882215","179795.254686","180562.3338","181329.24596","182096.014046","182861.870999","183611.675369","184378.765613","173662.340818","174429.015224","175195.330681","175961.945416","176728.875818","177495.444797","178245.848654","179028.254411","183620.864924","Mapping"
"Mixed","both","ball","9","M_jolt.wav","None","733.640177175","319","187512.620914","179795.254686","180562.3338","181329.24596","182096.014046","182861.870999","183611.675369","184378.765613","173662.340818","174429.015224","175195.330681","175961.945416","176728.875818","177495.444797","178245.848654","179028.254411","184388.594539","Mapping"
"Mixed","both","ball","9","F_priest.wav","None","720.906570088","319","187512.620914","179795.254686","180562.3338","181329.24596","182096.014046","182861.870999","183611.675369","184378.765613","188279.177216","174429.015224","175195.330681","175961.945416","176728.875818","177495.444797","178245.848654","179028.254411","187522.36327","Mapping"
"Mixed","both","ball","9","M_cling.wav","None","721.937972121","319","187512.620914","179795.254686","180562.3338","181329.24596","182096.014046","182861.870999","183611.675369","184378.765613","188279.177216","189045.840183","175195.330681","175961.945416","176728.875818","177495.444797","178245.848654","179028.254411","188289.332628","Mapping"
"Mixed","both","ball","9","M_romp.wav","None","722.573631909","319","187512.620914","179795.254686","180562.3338","181329.24596","182096.014046","182861.870999","183611.675369","184378.765613","188279.177216","189045.840183","189812.522009","175961.945416","176728.875818","177495.444797","178245.848654","179028.254411","189056.590444","Mapping"
"Mixed","both","ball","9","F_greet.wav","None","721.640856005","319","187512.620914","179795.254686","180562.3338","181329.24596","182096.014046","182861.870999","183611.675369","184378.765613","188279.177216","189045.840183","189812.522009","190578.659073","176728.875818","177495.444797","178245.848654","179028.254411","189822.588998","Mapping"
"Mixed","both","ball","9","F_jolt.wav","None","721.044770442","319","187512.620914","179795.254686","180562.3338","181329.24596","182096.014046","182861.870999","183611.675369","184378.765613","188279.177216","189045.840183","189812.522009","190578.659073","191328.601953","177495.444797","178245.848654","179028.254411","190588.158728","Mapping"
"Mixed","both","ball","9","F_ball.wav","None","736.336785834","319","187512.620914","179795.254686","180562.3338","181329.24596","182096.014046","182861.870999","183611.675369","184378.765613","188279.177216","189045.840183","189812.522009","190578.659073","191328.601953","192094.94307","178245.848654","179028.254411","191337.853961","Mapping"
"Mixed","both","ball","9","F_reek.wav","space","412.18259884","319","187512.620914","179795.254686","180562.3338","181329.24596","182096.014046","182861.870999","183611.675369","184378.765613","188279.177216","189045.840183","189812.522009","190578.659073","191328.601953","192094.94307","192862.120501","179028.254411","192104.406862","Mapping"
"Mixed","both","ball","9","M_ball.wav","None","737.481654156","319","187512.620914","179795.254686","180562.3338","181329.24596","182096.014046","182861.870999","183611.675369","184378.765613","188279.177216","189045.840183","189812.522009","190578.659073","191328.601953","192094.94307","192862.120501","193628.294665","192866.516017","Mapping"
"Mixed","both","ball","9","F_jaw.wav","space","502.995733637","319","187512.620914","194395.008646","180562.3338","181329.24596","182096.014046","182861.870999","183611.675369","184378.765613","188279.177216","189045.840183","189812.522009","190578.659073","191328.601953","192094.94307","192862.120501","193628.294665","193637.556567","Mapping"
"Mixed","both","ball","9","F_ball.wav","None","712.865902577","319","187512.620914","194395.008646","195161.562165","181329.24596","182096.014046","182861.870999","183611.675369","184378.765613","188279.177216","189045.840183","189812.522009","190578.659073","191328.601953","192094.94307","192862.120501","193628.294665","194420.649307","Mapping"
"Mixed","both","ball","9","M_gnash.wav","space","631.925286725","319","187512.620914","194395.008646","195161.562165","195928.237499","182096.014046","182861.870999","183611.675369","184378.765613","188279.177216","189045.840183","189812.522009","190578.659073","191328.601953","192094.94307","192862.120501","193628.294665","195180.572298","Mapping"
"Mixed","both","ball","9","M_ball.wav","None","728.846137878","319","187512.620914","194395.008646","195161.562165","195928.237499","196695.393597","182861.870999","183611.675369","184378.765613","188279.177216","189045.840183","189812.522009","190578.659073","191328.601953","192094.94307","192862.120501","193628.294665","195937.42489","Mapping"
"Mixed","both","ball","9","M_gnash.wav","space","643.606777769","319","187512.620914","194395.008646","195161.562165","195928.237499","196695.393597","197462.378413","183611.675369","184378.765613","188279.177216","189045.840183","189812.522009","190578.659073","191328.601953","192094.94307","192862.120501","193628.294665","196704.861717","Mapping"
"Mixed","both","ball","9","F_park.wav","None","723.296478856","319","187512.620914","194395.008646","195161.562165","195928.237499","196695.393597","197462.378413","198228.831143","184378.765613","188279.177216","189045.840183","189812.522009","190578.659073","191328.601953","192094.94307","192862.120501","193628.294665","197472.440765","Mapping"
"Mixed","both","ball","9","M_jaw.wav","None","722.248072736","319","187512.620914","194395.008646","195161.562165","195928.237499","196695.393597","197462.378413","198228.831143","198995.133614","188279.177216","189045.840183","189812.522009","190578.659073","191328.601953","192094.94307","192862.120501","193628.294665","198238.577519","Mapping"
"Mixed","both","tile","28","M_cling.wav","None","721.94941109","319","202112.336536","194395.008646","195161.562165","195928.237499","196695.393597","197462.378413","198228.831143","198995.133614","188279.177216","189045.840183","189812.522009","190578.659073","191328.601953","192094.94307","192862.120501","193628.294665","199004.531242","Mapping"
"Mixed","both","tile","28","M_tile.wav","None","720.640990417","319","202112.336536","194395.008646","195161.562165","195928.237499","196695.393597","197462.378413","198228.831143","198995.133614","202878.373118","189045.840183","189812.522009","190578.659073","191328.601953","192094.94307","192862.120501","193628.294665","202122.40538","Mapping"
"Mixed","both","tile","28","M_reek.wav","space","538.212725427","319","202112.336536","194395.008646","195161.562165","195928.237499","196695.393597","197462.378413","198228.831143","198995.133614","202878.373118","203628.052583","189812.522009","190578.659073","191328.601953","192094.94307","192862.120501","193628.294665","202882.185224","Mapping"
"Mixed","both","tile","28","M_gnash.wav","None","735.785530414","319","202112.336536","194395.008646","195161.562165","195928.237499","196695.393597","197462.378413","198228.831143","198995.133614","202878.373118","203628.052583","204395.2801","190578.659073","191328.601953","192094.94307","192862.120501","193628.294665","203637.25265","Mapping"
"Mixed","both","tile","28","M_priest.wav","None","733.301941771","319","202112.336536","194395.008646","195161.562165","195928.237499","196695.393597","197462.378413","198228.831143","198995.133614","202878.373118","203628.052583","204395.2801","205161.68769","191328.601953","192094.94307","192862.120501","193628.294665","204404.929087","Mapping"
"Mixed","both","tile","28","M_tile.wav","None","735.583021771","319","202112.336536","194395.008646","195161.562165","195928.237499","196695.393597","197462.378413","198228.831143","198995.133614","202878.373118","203628.052583","204395.2801","205161.68769","205928.389613","192094.94307","192862.120501","193628.294665","205170.835197","Mapping"
"Mixed","both","tile","28","M_greet.wav","space","586.549172644","319","202112.336536","194395.008646","195161.562165","195928.237499","196695.393597","197462.378413","198228.831143","198995.133614","202878.373118","203628.052583","204395.2801","205161.68769","205928.389613","206695.192017","192862.120501","193628.294665","205937.79868","Mapping"
"Mixed","both","tile","28","F_cad.wav","None","731.847900432","319","202112.336536","194395.008646","195161.562165","195928.237499","196695.393597","197462.378413","198228.831143","198995.133614","202878.373118","203628.052583","204395.2801","205161.68769","205928.389613","206695.192017","207461.832723","193628.294665","206704.384354","Mapping"
"Mixed","both","tile","28","M_greet.wav","None","733.091395348","319","202112.336536","194395.008646","195161.562165","195928.237499","196695.393597","197462.378413","198228.831143","198995.133614","202878.373118","203628.052583","204395.2801","205161.68769","205928.389613","206695.192017","207461.832723","208228.348214","207471.335779","Mapping"
"Mixed","both","tile","28","F_tile.wav","None","731.245012488","319","202112.336536","208994.705718","195161.562165","195928.237499","196695.393597","197462.378413","198228.831143","198995.133614","202878.373118","203628.052583","204395.2801","205161.68769","205928.389613","206695.192017","207461.832723","208228.348214","208238.21795","Mapping"
"Mixed","both","tile","28","F_gnash.wav","space","568.533959333","319","202112.336536","208994.705718","209761.278715","195928.237499","196695.393597","197462.378413","198228.831143","198995.133614","202878.373118","203628.052583","204395.2801","205161.68769","205928.389613","206695.192017","207461.832723","208228.348214","209003.756454","Mapping"
"Mixed","both","tile","28","F_park.wav","None","729.020820465","319","202112.336536","208994.705718","209761.278715","210527.917258","196695.393597","197462.378413","198228.831143","198995.133614","202878.373118","203628.052583","204395.2801","205161.68769","205928.389613","206695.192017","207461.832723","208228.348214","209770.215985","Mapping"
"Mixed","both","tile","28","F_gnash.wav","None","727.194534615","319","202112.336536","208994.705718","209761.278715","210527.917258","211294.618562","197462.378413","198228.831143","198995.133614","202878.373118","203628.052583","204395.2801","205161.68769","205928.389613","206695.192017","207461.832723","208228.348214","210537.105267","Mapping"
"Mixed","both","tile","28","F_tile.wav","None","725.795834791","319","202112.336536","208994.705718","209761.278715","210527.917258","211294.618562","212061.843606","198228.831143","198995.133614","202878.373118","203628.052583","204395.2801","205161.68769","205928.389613","206695.192017","207461.832723","208228.348214","211303.551503","Mapping"
"Mixed","both","tile","28","F_priest.wav","space","549.127157778","319","202112.336536","208994.705718","209761.278715","210527.917258","211294.618562","212061.843606","212828.572117","198995.133614","202878.373118","203628.052583","204395.2801","205161.68769","205928.389613","206695.192017","207461.832723","208228.348214","212071.14941","Mapping"
"Mixed","both","tile","28","F_jolt.wav","None","720.463525038","319","202112.336536","208994.705718","209761.278715","210527.917258","211294.618562","212061.843606","212828.572117","213595.537456","202878.373118","203628.052583","204395.2801","205161.68769","205928.389613","206695.192017","207461.832723","208228.348214","212838.559648","Mapping"
"Mixed","both","ball","1","F_greet.wav","None","718.7908981","319","216712.015367","208994.705718","209761.278715","210527.917258","211294.618562","212061.843606","212828.572117","213595.537456","202878.373118","203628.052583","204395.2801","205161.68769","205928.389613","206695.192017","207461.832723","208228.348214","213605.458823","Mapping"
"Mixed","both","ball","1","M_gnash.wav","None","720.855247229","319","216712.015367","208994.705718","209761.278715","210527.917258","211294.618562","212061.843606","212828.572117","213595.537456","217478.474589","203628.052583","204395.2801","205161.68769","205928.389613","206695.192017","207461.832723","208228.348214","216721.805027","Mapping"
"Mixed","both","ball","1","F_ball.wav","None","719.068535138","319","216712.015367","208994.705718","209761.278715","210527.917258","211294.618562","212061.843606","212828.572117","213595.537456","217478.474589","218228.061611","204395.2801","205161.68769","205928.389613","206695.192017","207461.832723","208228.348214","217488.750888","Mapping"
"Mixed","both","ball","1","M_bluff.wav","space","430.776275229","319","216712.015367","208994.705718","209761.278715","210527.917258","211294.618562","212061.843606","212828.572117","213595.537456","217478.474589","218228.061611","218994.538455","205161.68769","205928.389613","206695.192017","207461.832723","208228.348214","218237.32073","Mapping"
"Mixed","both","ball","1","F_ball.wav","None","734.036228154","319","216712.015367","208994.705718","209761.278715","210527.917258","211294.618562","212061.843606","212828.572117","213595.537456","217478.474589","218228.061611","218994.538455","219761.116709","205928.389613","206695.192017","207461.832723","208228.348214","219003.568786","Mapping"
"Mixed","both","ball","1","F_cad.wav","space","562.260216568","319","216712.015367","208994.705718","209761.278715","210527.917258","211294.618562","212061.843606","212828.572117","213595.537456","217478.474589","218228.061611","218994.538455","219761.116709","220528.102452","206695.192017","207461.832723","208228.348214","219769.821171","Mapping"
"Mixed","both","ball","1","F_bluff.wav","None","729.578878265","319","216712.015367","208994.705718","209761.278715","210527.917258","211294.618562","212061.843606","212828.572117","213595.537456","217478.474589","218228.061611","218994.538455","219761.116709","220528.102452","221294.927117","207461.832723","208228.348214","220537.652812","Mapping"
"Mixed","both","ball","1","F_bluff.wav","None","727.812571451","319","216712.015367","208994.705718","209761.278715","210527.917258","211294.618562","212061.843606","212828.572117","213595.537456","217478.474589","218228.061611","218994.538455","219761.116709","220528.102452","221294.927117","222061.068509","208228.348214","221304.574558","Mapping"
"Mixed","both","ball","1","F_lash.wav","None","727.708689403","319","216712.015367","208994.705718","209761.278715","210527.917258","211294.618562","212061.843606","212828.572117","213595.537456","217478.474589","218228.061611","218994.538455","219761.116709","220528.102452","221294.927117","222061.068509","222828.139584","222069.772971","Mapping"
"Mixed","both","ball","1","M_ball.wav","None","728.190999944","319","216712.015367","223594.953118","209761.278715","210527.917258","211294.618562","212061.843606","212828.572117","213595.537456","217478.474589","218228.061611","218994.538455","219761.116709","220528.102452","221294.927117","222061.068509","222828.139584","222837.584516","Mapping"
"Mixed","both","ball","1","M_bluff.wav","space","501.075149514","319","216712.015367","223594.953118","224361.554869","210527.917258","211294.618562","212061.843606","212828.572117","213595.537456","217478.474589","218228.061611","218994.538455","219761.116709","220528.102452","221294.927117","222061.068509","222828.139584","223598.958148","Mapping"
"Mixed","both","ball","1","M_priest.wav","None","724.136502482","319","216712.015367","223594.953118","224361.554869","225128.432402","211294.618562","212061.843606","212828.572117","213595.537456","217478.474589","218228.061611","218994.538455","219761.116709","220528.102452","221294.927117","222061.068509","222828.139584","224371.390287","Mapping"
"Mixed","both","ball","1","M_ball.wav","None","722.439450677","319","216712.015367","223594.953118","224361.554869","225128.432402","225895.211618","212061.843606","212828.572117","213595.537456","217478.474589","218228.061611","218994.538455","219761.116709","220528.102452","221294.927117","222061.068509","222828.139584","225138.232574","Mapping"
"Mixed","both","ball","1","M_greet.wav","space","442.875768058","319","216712.015367","223594.953118","224361.554869","225128.432402","225895.211618","226661.843668","212828.572117","213595.537456","217478.474589","218228.061611","218994.538455","219761.116709","220528.102452","221294.927117","222061.068509","222828.139584","225905.09403","Mapping"
"Mixed","both","ball","1","F_greet.wav","None","719.455001876","319","216712.015367","223594.953118","224361.554869","225128.432402","225895.211618","226661.843668","227410.918389","213595.537456","217478.474589","218228.061611","218994.538455","219761.116709","220528.102452","221294.927117","222061.068509","222828.139584","226671.634874","Mapping"
"Mixed","both","ball","1","M_cling.wav","None","736.301231198","319","216712.015367","223594.953118","224361.554869","225128.432402","225895.211618","226661.843668","227410.918389","228177.721412","217478.474589","218228.061611","218994.538455","219761.116709","220528.102452","221294.927117","222061.068509","222828.139584","227419.953049","Mapping"
"Mixed","both","tile","34","F_gnash.wav","None","734.194525052","319","231311.914329","223594.953118","224361.554869","225128.432402","225895.211618","226661.843668","227410.918389","228177.721412","217478.474589","218228.061611","218994.538455","219761.116709","220528.102452","221294.927117","222061.068509","222828.139584","228187.413064","Mapping"
"Mixed","both","tile","34","F_romp.wav","None","720.787229016","319","231311.914329","223594.953118","224361.554869","225128.432402","225895.211618","226661.843668","227410.918389","228177.721412","232078.434149","218228.061611","218994.538455","219761.116709","220528.102452","221294.927117","222061.068509","222828.139584","231321.776027","Mapping"
"Mixed","both","tile","34","F_tile.wav","None","722.75542561","319","231311.914329","223594.953118","224361.554869","225128.432402","225895.211618","226661.843668","227410.918389","228177.721412","232078.434149","232845.251393","218994.538455","219761.116709","220528.102452","221294.927117","222061.068509","222828.139584","232088.221645","Mapping"
"Mixed","both","tile","34","F_cad.wav","space","538.309496827","319","231311.914329","223594.953118","224361.554869","225128.432402","225895.211618","226661.843668","227410.918389","228177.721412","232078.434149","232845.251393","233611.805531","219761.116709","220528.102452","221294.927117","222061.068509","222828.139584","232849.533442","Mapping"
"Mixed","both","tile","34","M_gnash.wav","None","719.08584889","319","231311.914329","223594.953118","224361.554869","225128.432402","225895.211618","226661.843668","227410.918389","228177.721412","232078.434149","232845.251393","233611.805531","234360.76555","220528.102452","221294.927117","222061.068509","222828.139584","233621.85737","Mapping"
"Mixed","both","tile","34","M_depth.wav","None","736.52878264","319","231311.914329","223594.953118","224361.554869","225128.432402","225895.211618","226661.843668","227410.918389","228177.721412","232078.434149","232845.251393","233611.805531","234360.76555","235127.823331","221294.927117","222061.068509","222828.139584","234369.652424","Mapping"
"Mixed","both","tile","34","M_tile.wav","None","733.657490928","319","231311.914329","223594.953118","224361.554869","225128.432402","225895.211618","226661.843668","227410.918389","228177.721412","232078.434149","232845.251393","233611.805531","234360.76555","235127.823331","235894.703647","222061.068509","222828.139584","235137.737588","Mapping"
"Mixed","both","tile","34","M_park.wav","space","507.520483807","319","231311.914329","223594.953118","224361.554869","225128.432402","225895.211618","226661.843668","227410.918389","228177.721412","232078.434149","232845.251393","233611.805531","234360.76555","235127.823331","235894.703647","236660.99004","222828.139584","235904.274103","Mapping"
"Mixed","both","tile","34","F_park.wav","None","736.445615068","319","231311.914329","223594.953118","224361.554869","225128.432402","225895.211618","226661.843668","227410.918389","228177.721412","232078.434149","232845.251393","233611.805531","234360.76555","235127.823331","235894.703647","236660.99004","237427.504604","236670.195054","Mapping"
"Mixed","both","tile","34","M_park.wav","None","735.434618313","319","231311.914329","238194.108519","224361.554869","225128.432402","225895.211618","226661.843668","227410.918389","228177.721412","232078.434149","232845.251393","233611.805531","234360.76555","235127.823331","235894.703647","236660.99004","237427.504604","237436.636344","Mapping"
"Mixed","both","tile","34","F_dime.wav","None","739.517868962","319","231311.914329","238194.108519","238961.293061","225128.432402","225895.211618","226661.843668","227410.918389","228177.721412","232078.434149","232845.251393","233611.805531","234360.76555","235127.823331","235894.703647","236660.99004","237427.504604","238197.804376","Mapping"
"Mixed","both","tile","34","F_tile.wav","None","737.398796249","319","231311.914329","238194.108519","238961.293061","239727.871933","225895.211618","226661.843668","227410.918389","228177.721412","232078.434149","232845.251393","233611.805531","234360.76555","235127.823331","235894.703647","236660.99004","237427.504604","238965.366418","Mapping"
"Mixed","both","tile","34","M_greet.wav","space","546.327594202","319","231311.914329","238194.108519","238961.293061","239727.871933","240494.446476","226661.843668","227410.918389","228177.721412","232078.434149","232845.251393","233611.805531","234360.76555","235127.823331","235894.703647","236660.99004","237427.504604","239737.407144","Mapping"
"Mixed","both","tile","34","M_cling.wav","None","728.793269023","319","231311.914329","238194.108519","238961.293061","239727.871933","240494.446476","241261.218272","227410.918389","228177.721412","232078.434149","232845.251393","233611.805531","234360.76555","235127.823331","235894.703647","236660.99004","237427.504604","240503.811332","Mapping"
"Mixed","both","tile","34","M_tile.wav","None","727.11229464","319","231311.914329","238194.108519","238961.293061","239727.871933","240494.446476","241261.218272","242027.756951","228177.721412","232078.434149","232845.251393","233611.805531","234360.76555","235127.823331","235894.703647","236660.99004","237427.504604","241270.734623","Mapping"
"Mixed","both","tile","34","F_priest.wav","space","662.088842131","319","231311.914329","238194.108519","238961.293061","239727.871933","240494.446476","241261.218272","242027.756951","242793.785495","232078.434149","232845.251393","233611.805531","234360.76555","235127.823331","235894.703647","236660.99004","237427.504604","242037.529916","Mapping"
"Mixed","both","cave","24","F_depth.wav","None","727.982616983","319","245927.917505","238194.108519","238961.293061","239727.871933","240494.446476","241261.218272","242027.756951","242793.785495","232078.434149","232845.251393","233611.805531","234360.76555","235127.823331","235894.703647","236660.99004","237427.504604","242802.543444","Mapping"
"Mixed","both","cave","24","M_cave.wav","None","721.535737626","319","245927.917505","238194.108519","238961.293061","239727.871933","240494.446476","241261.218272","242027.756951","242793.785495","246694.698267","232845.251393","233611.805531","234360.76555","235127.823331","235894.703647","236660.99004","237427.504604","245937.722624","Mapping"
"Mixed","both","cave","24","F_reek.wav","space","594.717219472","319","245927.917505","238194.108519","238961.293061","239727.871933","240494.446476","241261.218272","242027.756951","242793.785495","246694.698267","247461.530352","233611.805531","234360.76555","235127.823331","235894.703647","236660.99004","237427.504604","246704.867901","Mapping"
"Mixed","both","cave","24","M_jolt.wav","None","720.601416193","319","245927.917505","238194.108519","238961.293061","239727.871933","240494.446476","241261.218272","242027.756951","242793.785495","246694.698267","247461.530352","248228.109223","234360.76555","235127.823331","235894.703647","236660.99004","237427.504604","247471.505516","Mapping"
"Mixed","both","cave","24","F_dime.wav","None","719.505087938","319","245927.917505","238194.108519","238961.293061","239727.871933","240494.446476","241261.218272","242027.756951","242793.785495","246694.698267","247461.530352","248228.109223","248977.448288","235127.823331","235894.703647","236660.99004","237427.504604","248238.056253","Mapping"
"Mixed","both","cave","24","F_depth.wav","None","736.135514453","319","245927.917505","238194.108519","238961.293061","239727.871933","240494.446476","241261.218272","242027.756951","242793.785495","246694.698267","247461.530352","248228.109223","248977.448288","249744.316546","235894.703647","236660.99004","237427.504604","248986.610327","Mapping"
"Mixed","both","cave","24","M_cad.wav","None","734.058179427","319","245927.917505","238194.108519","238961.293061","239727.871933","240494.446476","241261.218272","242027.756951","242793.785495","246694.698267","247461.530352","248228.109223","248977.448288","249744.316546","250511.041348","236660.99004","237427.504604","249753.885766","Mapping"
"Mixed","both","cave","24","M_cave.wav","None","732.63134528","319","245927.917505","238194.108519","238961.293061","239727.871933","240494.446476","241261.218272","242027.756951","242793.785495","246694.698267","247461.530352","248228.109223","248977.448288","249744.316546","250511.041348","251277.574462","237427.504604","250520.54595","Mapping"
"Mixed","both","cave","24","F_bluff.wav","space","596.143435221","319","245927.917505","238194.108519","238961.293061","239727.871933","240494.446476","241261.218272","242027.756951","242793.785495","246694.698267","247461.530352","248228.109223","248977.448288","249744.316546","250511.041348","251277.574462","252044.452613","251287.366286","Mapping"
"Mixed","both","cave","24","M_jolt.wav","None","729.029477574","319","245927.917505","252810.487959","238961.293061","239727.871933","240494.446476","241261.218272","242027.756951","242793.785495","246694.698267","247461.530352","248228.109223","248977.448288","249744.316546","250511.041348","251277.574462","252044.452613","252053.942685","Mapping"
"Mixed","both","cave","24","M_depth.wav","None","728.663416579","319","245927.917505","252810.487959","253577.371057","239727.871933","240494.446476","241261.218272","242027.756951","242793.785495","246694.698267","247461.530352","248228.109223","248977.448288","249744.316546","250511.041348","251277.574462","252044.452613","252819.471913","Mapping"
"Mixed","both","cave","24","F_cling.wav","None","726.983060129","319","245927.917505","252810.487959","253577.371057","254344.362056","240494.446476","241261.218272","242027.756951","242793.785495","246694.698267","247461.530352","248228.109223","248977.448288","249744.316546","250511.041348","251277.574462","252044.452613","253586.45271","Mapping"
"Mixed","both","cave","24","F_cave.wav","None","734.722902067","319","245927.917505","252810.487959","253577.371057","254344.362056","255110.978648","241261.218272","242027.756951","242793.785495","246694.698267","247461.530352","248228.109223","248977.448288","249744.316546","250511.041348","251277.574462","252044.452613","254348.076772","Mapping"
"Mixed","both","cave","24","M_park.wav","None","730.25658587","319","245927.917505","252810.487959","253577.371057","254344.362056","255110.978648","255877.403242","242027.756951","242793.785495","246694.698267","247461.530352","248228.109223","248977.448288","249744.316546","250511.041348","251277.574462","252044.452613","255120.854876","Mapping"
"Mixed","both","cave","24","F_cave.wav","space","132.575941272","319","245927.917505","252810.487959","253577.371057","254344.362056","255110.978648","255877.403242","256644.022924","242793.785495","246694.698267","247461.530352","248228.109223","248977.448288","249744.316546","250511.041348","251277.574462","252044.452613","255886.829314","Mapping"
"Mixed","both","cave","24","M_lash.wav","None","727.436926216","319","245927.917505","252810.487959","253577.371057","254344.362056","255110.978648","255877.403242","256644.022924","257410.470707","246694.698267","247461.530352","248228.109223","248977.448288","249744.316546","250511.041348","251277.574462","252044.452613","256653.497537","Mapping"
"Mixed","both","done","39","M_park.wav","space","31.9530502893","319","260544.61261","252810.487959","253577.371057","254344.362056","255110.978648","255877.403242","256644.022924","257410.470707","246694.698267","247461.530352","248228.109223","248977.448288","249744.316546","250511.041348","251277.574462","252044.452613","257419.464555","Mapping"
"Mixed","both","done","39","M_done.wav","None","719.982142095","319","260544.61261","252810.487959","253577.371057","254344.362056","255110.978648","255877.403242","256644.022924","257410.470707","261311.231984","247461.530352","248228.109223","248977.448288","249744.316546","250511.041348","251277.574462","252044.452613","260554.806669","Mapping"
"Mixed","both","done","39","F_cad.wav","space","610.2995486","319","260544.61261","252810.487959","253577.371057","254344.362056","255110.978648","255877.403242","256644.022924","257410.470707","261311.231984","262077.293918","248228.109223","248977.448288","249744.316546","250511.041348","251277.574462","252044.452613","261321.010823","Mapping"
"Mixed","both","done","39","M_bluff.wav","None","721.380841918","319","260544.61261","252810.487959","253577.371057","254344.362056","255110.978648","255877.403242","256644.022924","257410.470707","261311.231984","262077.293918","262844.40735","248977.448288","249744.316546","250511.041348","251277.574462","252044.452613","262086.340017","Mapping"
"Mixed","both","done","39","F_knife.wav","None","718.390209135","319","260544.61261","252810.487959","253577.371057","254344.362056","255110.978648","255877.403242","256644.022924","257410.470707","261311.231984","262077.293918","262844.40735","263593.965001","249744.316546","250511.041348","251277.574462","252044.452613","262854.655205","Mapping"
"Mixed","both","done","39","F_done.wav","None","734.654265456","319","260544.61261","252810.487959","253577.371057","254344.362056","255110.978648","255877.403242","256644.022924","257410.470707","261311.231984","262077.293918","262844.40735","263593.965001","264377.317137","250511.041348","251277.574462","252044.452613","263603.831954","Mapping"
"Mixed","both","done","39","M_priest.wav","space","632.956688292","319","260544.61261","252810.487959","253577.371057","254344.362056","255110.978648","255877.403242","256644.022924","257410.470707","261311.231984","262077.293918","262844.40735","263593.965001","264377.317137","265127.242703","251277.574462","252044.452613","264386.349323","Mapping"
"Mixed","both","done","39","M_dime.wav","None","734.690747689","319","260544.61261","252810.487959","253577.371057","254344.362056","255110.978648","255877.403242","256644.022924","257410.470707","261311.231984","262077.293918","262844.40735","263593.965001","264377.317137","265127.242703","265894.095503","252044.452613","265136.764929","Mapping"
"Mixed","both","done","39","M_priest.wav","None","733.321419917","319","260544.61261","252810.487959","253577.371057","254344.362056","255110.978648","255877.403242","256644.022924","257410.470707","261311.231984","262077.293918","262844.40735","263593.965001","264377.317137","265127.242703","265894.095503","266660.212779","265903.464378","Mapping"
"Mixed","both","done","39","F_knife.wav","None","733.838048298","319","260544.61261","267426.977773","253577.371057","254344.362056","255110.978648","255877.403242","256644.022924","257410.470707","261311.231984","262077.293918","262844.40735","263593.965001","264377.317137","265127.242703","265894.095503","266660.212779","266669.04864","Mapping"
"Mixed","both","done","39","F_done.wav","None","731.905406807","319","260544.61261","267426.977773","268194.163861","254344.362056","255110.978648","255877.403242","256644.022924","257410.470707","261311.231984","262077.293918","262844.40735","263593.965001","264377.317137","265127.242703","265894.095503","266660.212779","267436.244003","Mapping"
"Mixed","both","done","39","F_lash.wav","space","551.765950862","319","260544.61261","267426.977773","268194.163861","268960.421502","255110.978648","255877.403242","256644.022924","257410.470707","261311.231984","262077.293918","262844.40735","263593.965001","264377.317137","265127.242703","265894.095503","266660.212779","268203.480177","Mapping"
"Mixed","both","done","39","M_reek.wav","None","728.519651107","319","260544.61261","267426.977773","268194.163861","268960.421502","269727.24493","255877.403242","256644.022924","257410.470707","261311.231984","262077.293918","262844.40735","263593.965001","264377.317137","265127.242703","265894.095503","266660.212779","268969.491716","Mapping"
"Mixed","both","done","39","F_dime.wav","None","726.778696757","319","260544.61261","267426.977773","268194.163861","268960.421502","269727.24493","270494.047333","256644.022924","257410.470707","261311.231984","262077.293918","262844.40735","263593.965001","264377.317137","265127.242703","265894.095503","266660.212779","269736.624935","Mapping"
"Mixed","both","done","39","M_done.wav","None","724.991675466","319","260544.61261","267426.977773","268194.163861","268960.421502","269727.24493","270494.047333","271261.03586","257410.470707","261311.231984","262077.293918","262844.40735","263593.965001","264377.317137","265127.242703","265894.095503","266660.212779","270503.641906","Mapping"
"Mixed","both","done","39","F_romp.wav","None","723.282257095","319","260544.61261","267426.977773","268194.163861","268960.421502","269727.24493","270494.047333","271261.03586","272027.597109","261311.231984","262077.293918","262844.40735","263593.965001","264377.317137","265127.242703","265894.095503","266660.212779","271270.779144","Mapping"
"Mixed","both","cave","19","M_gnash.wav","space","37.7200576477","319","275144.326996","267426.977773","268194.163861","268960.421502","269727.24493","270494.047333","271261.03586","272027.597109","261311.231984","262077.293918","262844.40735","263593.965001","264377.317137","265127.242703","265894.095503","266660.212779","272037.460971","Mapping"
"Mixed","both","cave","19","M_gnash.wav","None","721.340958495","319","275144.326996","267426.977773","268194.163861","268960.421502","269727.24493","270494.047333","271261.03586","272027.597109","275910.841251","262077.293918","262844.40735","263593.965001","264377.317137","265127.242703","265894.095503","266660.212779","275154.242799","Mapping"
"Mixed","both","cave","19","M_reek.wav","None","720.103337895","319","275144.326996","267426.977773","268194.163861","268960.421502","269727.24493","270494.047333","271261.03586","272027.597109","275910.841251","276677.657877","262844.40735","263593.965001","264377.317137","265127.242703","265894.095503","266660.212779","275921.035001","Mapping"
"Mixed","both","cave","19","F_park.wav","None","718.463174067","319","275144.326996","267426.977773","268194.163861","268960.421502","269727.24493","270494.047333","271261.03586","272027.597109","275910.841251","276677.657877","277426.997869","263593.965001","264377.317137","265127.242703","265894.095503","266660.212779","276688.059082","Mapping"
"Mixed","both","cave","19","F_cave.wav","None","735.450386535","319","275144.326996","267426.977773","268194.163861","268960.421502","269727.24493","270494.047333","271261.03586","272027.597109","275910.841251","276677.657877","277426.997869","278193.762554","264377.317137","265127.242703","265894.095503","266660.212779","277436.471554","Mapping"
"Mixed","both","cave","19","M_greet.wav","space","487.989085261","319","275144.326996","267426.977773","268194.163861","268960.421502","269727.24493","270494.047333","271261.03586","272027.597109","275910.841251","276677.657877","277426.997869","278193.762554","278960.159014","265127.242703","265894.095503","266660.212779","278203.061247","Mapping"
"Mixed","both","cave","19","M_cave.wav","None","732.478304766","319","275144.326996","267426.977773","268194.163861","268960.421502","269727.24493","270494.047333","271261.03586","272027.597109","275910.841251","276677.657877","277426.997869","278193.762554","278960.159014","279727.105493","265894.095503","266660.212779","278969.468528","Mapping"
"Mixed","both","cave","19","F_cling.wav","space","626.510426868","319","275144.326996","267426.977773","268194.163861","268960.421502","269727.24493","270494.047333","271261.03586","272027.597109","275910.841251","276677.657877","277426.997869","278193.762554","278960.159014","279727.105493","280493.864303","266660.212779","279736.511778","Mapping"
"Mixed","both","cave","19","M_reek.wav","None","728.238303214","319","275144.326996","267426.977773","268194.163861","268960.421502","269727.24493","270494.047333","271261.03586","272027.597109","275910.841251","276677.657877","277426.997869","278193.762554","278960.159014","279727.105493","280493.864303","281260.548603","280503.680862","Mapping"
"Mixed","both","cave","19","F_knife.wav","None","727.301817853","319","275144.326996","282026.753375","268194.163861","268960.421502","269727.24493","270494.047333","271261.03586","272027.597109","275910.841251","276677.657877","277426.997869","278193.762554","278960.159014","279727.105493","280493.864303","281260.548603","281270.030017","Mapping"
"Mixed","both","cave","19","M_gnash.wav","None","727.049532346","319","275144.326996","282026.753375","282793.89587","268960.421502","269727.24493","270494.047333","271261.03586","272027.597109","275910.841251","276677.657877","277426.997869","278193.762554","278960.159014","279727.105493","280493.864303","281260.548603","282035.869347","Mapping"
"Mixed","both","cave","19","M_cave.wav","None","725.299612153","319","275144.326996","282026.753375","282793.89587","283561.097416","269727.24493","270494.047333","271261.03586","272027.597109","275910.841251","276677.657877","277426.997869","278193.762554","278960.159014","279727.105493","280493.864303","281260.548603","282802.997929","Mapping"
"Mixed","both","cave","19","F_bluff.wav","space","551.450903527","319","275144.326996","282026.753375","282793.89587","283561.097416","284327.392467","270494.047333","271261.03586","272027.597109","275910.841251","276677.657877","277426.997869","278193.762554","278960.159014","279727.105493","280493.864303","281260.548603","283571.49151","Mapping"
"Mixed","both","cave","19","F_cave.wav","None","720.988810062","319","275144.326996","282026.753375","282793.89587","283561.097416","284327.392467","285093.857563","271261.03586","272027.597109","275910.841251","276677.657877","277426.997869","278193.762554","278960.159014","279727.105493","280493.864303","281260.548603","284337.060004","Mapping"
"Mixed","both","cave","19","F_knife.wav","space","664.961988572","319","275144.326996","282026.753375","282793.89587","283561.097416","284327.392467","285093.857563","285843.489724","272027.597109","275910.841251","276677.657877","277426.997869","278193.762554","278960.159014","279727.105493","280493.864303","281260.548603","285097.938959","Mapping"
"Mixed","both","cave","19","F_knife.wav","None","735.090509057","319","275144.326996","282026.753375","282793.89587","283561.097416","284327.392467","285093.857563","285843.489724","286610.361383","275910.841251","276677.657877","277426.997869","278193.762554","278960.159014","279727.105493","280493.864303","281260.548603","285852.920125","Mapping"
"Mixed","both","done","42","M_romp.wav","None","733.663365245","319","289744.254712","282026.753375","282793.89587","283561.097416","284327.392467","285093.857563","285843.489724","286610.361383","275910.841251","276677.657877","277426.997869","278193.762554","278960.159014","279727.105493","280493.864303","281260.548603","286619.932767","Mapping"
"Mixed","both","done","42","M_park.wav","None","719.822918065","319","289744.254712","282026.753375","282793.89587","283561.097416","284327.392467","285093.857563","285843.489724","286610.361383","290510.804212","276677.657877","277426.997869","278193.762554","278960.159014","279727.105493","280493.864303","281260.548603","289754.275015","Mapping"
"Mixed","both","done","42","F_bluff.wav","None","719.159432221","319","289744.254712","282026.753375","282793.89587","283561.097416","284327.392467","285093.857563","285843.489724","286610.361383","290510.804212","291260.240048","277426.997869","278193.762554","278960.159014","279727.105493","280493.864303","281260.548603","290520.621389","Mapping"
"Mixed","both","done","42","F_done.wav","None","735.695560928","319","289744.254712","282026.753375","282793.89587","283561.097416","284327.392467","285093.857563","285843.489724","286610.361383","290510.804212","291260.240048","292026.862513","278193.762554","278960.159014","279727.105493","280493.864303","281260.548603","291269.603359","Mapping"
"Mixed","both","done","42","M_depth.wav","space","462.340694387","319","289744.254712","282026.753375","282793.89587","283561.097416","284327.392467","285093.857563","285843.489724","286610.361383","290510.804212","291260.240048","292026.862513","292793.658734","278960.159014","279727.105493","280493.864303","281260.548603","292036.498514","Mapping"
"Mixed","both","done","42","F_gnash.wav","None","732.156455517","319","289744.254712","282026.753375","282793.89587","283561.097416","284327.392467","285093.857563","285843.489724","286610.361383","290510.804212","291260.240048","292026.862513","292793.658734","293560.313353","279727.105493","280493.864303","281260.548603","292803.358734","Mapping"
"Mixed","both","done","42","F_romp.wav","None","731.226153206","319","289744.254712","282026.753375","282793.89587","283561.097416","284327.392467","285093.857563","285843.489724","286610.361383","290510.804212","291260.240048","292026.862513","292793.658734","293560.313353","294326.845849","280493.864303","281260.548603","293569.890921","Mapping"
"Mixed","both","done","42","F_done.wav","None","730.365723837","319","289744.254712","282026.753375","282793.89587","283561.097416","284327.392467","285093.857563","285843.489724","286610.361383","290510.804212","291260.240048","292026.862513","292793.658734","293560.313353","294326.845849","295093.607442","281260.548603","294336.426508","Mapping"
"Mixed","both","done","42","M_knife.wav","space","443.601088598","319","289744.254712","282026.753375","282793.89587","283561.097416","284327.392467","285093.857563","285843.489724","286610.361383","290510.804212","291260.240048","292026.862513","292793.658734","293560.313353","294326.845849","295093.607442","295860.219395","295103.149764","Mapping"
"Mixed","both","done","42","M_dime.wav","None","730.226596352","319","289744.254712","296626.791156","282793.89587","283561.097416","284327.392467","285093.857563","285843.489724","286610.361383","290510.804212","291260.240048","292026.862513","292793.658734","293560.313353","294326.845849","295093.607442","295860.219395","295869.744403","Mapping"
"Mixed","both","done","42","M_done.wav","None","729.133669287","319","289744.254712","296626.791156","297393.562643","283561.097416","284327.392467","285093.857563","285843.489724","286610.361383","290510.804212","291260.240048","292026.862513","292793.658734","293560.313353","294326.845849","295093.607442","295860.219395","296636.476625","Mapping"
"Mixed","both","done","42","M_knife.wav","space","559.71603049","319","289744.254712","296626.791156","297393.562643","298160.176142","284327.392467","285093.857563","285843.489724","286610.361383","290510.804212","291260.240048","292026.862513","292793.658734","293560.313353","294326.845849","295093.607442","295860.219395","297402.970783","Mapping"
"Mixed","both","done","42","M_done.wav","None","731.399290264","319","289744.254712","296626.791156","297393.562643","298160.176142","298926.750995","285093.857563","285843.489724","286610.361383","290510.804212","291260.240048","292026.862513","292793.658734","293560.313353","294326.845849","295093.607442","295860.219395","298164.319681","Mapping"
"Mixed","both","done","42","F_greet.wav","space","610.458154231","319","289744.254712","296626.791156","297393.562643","298160.176142","298926.750995","299693.278234","285843.489724","286610.361383","290510.804212","291260.240048","292026.862513","292793.658734","293560.313353","294326.845849","295093.607442","295860.219395","298936.189434","Mapping"
"Mixed","both","done","42","F_park.wav","None","723.408708815","319","289744.254712","296626.791156","297393.562643","298160.176142","298926.750995","299693.278234","300459.75848","286610.361383","290510.804212","291260.240048","292026.862513","292793.658734","293560.313353","294326.845849","295093.607442","295860.219395","299702.583729","Mapping"
"Mixed","both","done","42","F_cling.wav","None","728.205840103","319","289744.254712","296626.791156","297393.562643","298160.176142","298926.750995","299693.278234","300459.75848","301226.499359","290510.804212","291260.240048","292026.862513","292793.658734","293560.313353","294326.845849","295093.607442","295860.219395","300463.528847","Mapping"
"Mixed","both","done","43","F_knife.wav","None","721.408976708","319","304343.936943","296626.791156","297393.562643","298160.176142","298926.750995","299693.278234","300459.75848","301226.499359","290510.804212","291260.240048","292026.862513","292793.658734","293560.313353","294326.845849","295093.607442","295860.219395","301236.09764","Mapping"
"Mixed","both","done","43","M_jolt.wav","None","721.14741616","319","304343.936943","296626.791156","297393.562643","298160.176142","298926.750995","299693.278234","300459.75848","301226.499359","305109.823885","291260.240048","292026.862513","292793.658734","293560.313353","294326.845849","295093.607442","295860.219395","304353.921383","Mapping"
"Mixed","both","done","43","F_done.wav","None","721.61952313","319","304343.936943","296626.791156","297393.562643","298160.176142","298926.750995","299693.278234","300459.75848","301226.499359","305109.823885","305876.926806","292026.862513","292793.658734","293560.313353","294326.845849","295093.607442","295860.219395","305119.194925","Mapping"
"Mixed","both","done","43","F_jaw.wav","space","435.036990792","319","304343.936943","296626.791156","297393.562643","298160.176142","298926.750995","299693.278234","300459.75848","301226.499359","305109.823885","305876.926806","306626.198471","292793.658734","293560.313353","294326.845849","295093.607442","295860.219395","305887.432202","Mapping"
"Mixed","both","done","43","M_depth.wav","None","735.46213517","319","304343.936943","296626.791156","297393.562643","298160.176142","298926.750995","299693.278234","300459.75848","301226.499359","305109.823885","305876.926806","306626.198471","307393.387651","293560.313353","294326.845849","295093.607442","295860.219395","306635.413378","Mapping"
"Mixed","both","done","43","M_done.wav","None","733.551444951","319","304343.936943","296626.791156","297393.562643","298160.176142","298926.750995","299693.278234","300459.75848","301226.499359","305109.823885","305876.926806","306626.198471","307393.387651","308160.011662","294326.845849","295093.607442","295860.219395","307402.929045","Mapping"
"Mixed","both","done","43","M_cad.wav","space","576.963566709","319","304343.936943","296626.791156","297393.562643","298160.176142","298926.750995","299693.278234","300459.75848","301226.499359","305109.823885","305876.926806","306626.198471","307393.387651","308160.011662","308926.48356","295093.607442","295860.219395","308169.534506","Mapping"
"Mixed","both","done","43","F_bluff.wav","None","730.246074032","319","304343.936943","296626.791156","297393.562643","298160.176142","298926.750995","299693.278234","300459.75848","301226.499359","305109.823885","305876.926806","306626.198471","307393.387651","308160.011662","308926.48356","309693.34718","295860.219395","308936.123889","Mapping"
"Mixed","both","done","43","F_gnash.wav","None","729.396775365","319","304343.936943","296626.791156","297393.562643","298160.176142","298926.750995","299693.278234","300459.75848","301226.499359","305109.823885","305876.926806","306626.198471","307393.387651","308160.011662","308926.48356","309693.34718","310459.963771","309702.700288","Mapping"
"Mixed","both","done","43","F_park.wav","None","728.344040457","319","304343.936943","311226.509252","297393.562643","298160.176142","298926.750995","299693.278234","300459.75848","301226.499359","305109.823885","305876.926806","306626.198471","307393.387651","308160.011662","308926.48356","309693.34718","310459.963771","310469.344395","Mapping"
"Mixed","both","done","43","M_romp.wav","None","727.144448552","319","304343.936943","311226.509252","311993.326187","298160.176142","298926.750995","299693.278234","300459.75848","301226.499359","305109.823885","305876.926806","306626.198471","307393.387651","308160.011662","308926.48356","309693.34718","310459.963771","311236.070742","Mapping"
"Mixed","both","done","43","M_done.wav","None","726.161896251","319","304343.936943","311226.509252","311993.326187","312759.400488","298926.750995","299693.278234","300459.75848","301226.499359","305109.823885","305876.926806","306626.198471","307393.387651","308160.011662","308926.48356","309693.34718","310459.963771","312002.825843","Mapping"
"Mixed","both","done","43","F_dime.wav","space","569.941624999","319","304343.936943","311226.509252","311993.326187","312759.400488","313526.704989","299693.278234","300459.75848","301226.499359","305109.823885","305876.926806","306626.198471","307393.387651","308160.011662","308926.48356","309693.34718","310459.963771","312768.48647","Mapping"
"Mixed","both","done","43","F_done.wav","None","722.430794034","319","304343.936943","311226.509252","311993.326187","312759.400488","313526.704989","314293.642193","300459.75848","301226.499359","305109.823885","305876.926806","306626.198471","307393.387651","308160.011662","308926.48356","309693.34718","310459.963771","313537.02921","Mapping"
"Mixed","both","done","43","M_cad.wav","None","721.191627439","319","304343.936943","311226.509252","311993.326187","312759.400488","313526.704989","314293.642193","315060.25662","301226.499359","305109.823885","305876.926806","306626.198471","307393.387651","308160.011662","308926.48356","309693.34718","310459.963771","314303.87459","Mapping"
"Mixed","both","done","43","M_cad.wav","None","720.398289151","319","304343.936943","311226.509252","311993.326187","312759.400488","313526.704989","314293.642193","315060.25662","315826.760672","305109.823885","305876.926806","306626.198471","307393.387651","308160.011662","308926.48356","309693.34718","310459.963771","315070.314024","Mapping"
"Mixed","both","ball","5","F_reek.wav","None","719.525184482","319","318943.302891","311226.509252","311993.326187","312759.400488","313526.704989","314293.642193","315060.25662","315826.760672","305109.823885","305876.926806","306626.198471","307393.387651","308160.011662","308926.48356","309693.34718","310459.963771","315836.873727","Mapping"
"Mixed","both","ball","5","F_cad.wav","None","721.586441621","319","318943.302891","311226.509252","311993.326187","312759.400488","313526.704989","314293.642193","315060.25662","315826.760672","319710.341503","305876.926806","306626.198471","307393.387651","308160.011662","308926.48356","309693.34718","310459.963771","318953.275273","Mapping"
"Mixed","both","ball","5","F_jaw.wav","None","720.359024126","319","318943.302891","311226.509252","311993.326187","312759.400488","313526.704989","314293.642193","315060.25662","315826.760672","319710.341503","320476.906771","306626.198471","307393.387651","308160.011662","308926.48356","309693.34718","310459.963771","319720.308629","Mapping"
"Mixed","both","ball","5","M_dime.wav","None","719.425321557","319","318943.302891","311226.509252","311993.326187","312759.400488","313526.704989","314293.642193","315060.25662","315826.760672","319710.341503","320476.906771","321243.440813","307393.387651","308160.011662","308926.48356","309693.34718","310459.963771","320486.919964","Mapping"
"Mixed","both","ball","5","M_ball.wav","None","718.643731438","319","318943.302891","311226.509252","311993.326187","312759.400488","313526.704989","314293.642193","315060.25662","315826.760672","319710.341503","320476.906771","321243.440813","321992.897673","308160.011662","308926.48356","309693.34718","310459.963771","321253.387533","Mapping"
"Mixed","both","ball","5","M_greet.wav","space","447.413812391","319","318943.302891","311226.509252","311993.326187","312759.400488","313526.704989","314293.642193","315060.25662","315826.760672","319710.341503","320476.906771","321243.440813","321992.897673","322759.764385","308926.48356","309693.34718","310459.963771","322002.850577","Mapping"
"Mixed","both","ball","5","M_jolt.wav","None","733.313381672","319","318943.302891","311226.509252","311993.326187","312759.400488","313526.704989","314293.642193","315060.25662","315826.760672","319710.341503","320476.906771","321243.440813","321992.897673","322759.764385","323526.2301","309693.34718","310459.963771","322769.272079","Mapping"
"Mixed","both","ball","5","M_cling.wav","None","732.459754217","319","318943.302891","311226.509252","311993.326187","312759.400488","313526.704989","314293.642193","315060.25662","315826.760672","319710.341503","320476.906771","321243.440813","321992.897673","322759.764385","323526.2301","324292.584821","310459.963771","323535.84384","Mapping"
"Mixed","both","ball","5","M_jaw.wav","None","732.440894935","319","318943.302891","311226.509252","311993.326187","312759.400488","313526.704989","314293.642193","315060.25662","315826.760672","319710.341503","320476.906771","321243.440813","321992.897673","322759.764385","323526.2301","324292.584821","325059.742774","324301.651634","Mapping"
"Mixed","both","ball","5","F_ball.wav","None","730.118076317","319","318943.302891","325825.927141","311993.326187","312759.400488","313526.704989","314293.642193","315060.25662","315826.760672","319710.341503","320476.906771","321243.440813","321992.897673","322759.764385","323526.2301","324292.584821","325059.742774","325069.765241","Mapping"
"Mixed","both","ball","5","F_cad.wav","space","566.963978112","319","318943.302891","325825.927141","326592.542804","312759.400488","313526.704989","314293.642193","315060.25662","315826.760672","319710.341503","320476.906771","321243.440813","321992.897673","322759.764385","323526.2301","324292.584821","325059.742774","325835.182549","Mapping"
"Mixed","both","ball","5","M_ball.wav","None","728.696497623","319","318943.302891","325825.927141","326592.542804","327359.694574","313526.704989","314293.642193","315060.25662","315826.760672","319710.341503","320476.906771","321243.440813","321992.897673","322759.764385","323526.2301","324292.584821","325059.742774","326601.572208","Mapping"
"Mixed","both","ball","5","F_jaw.wav","space","608.517474495","319","318943.302891","325825.927141","326592.542804","327359.694574","328126.220268","314293.642193","315060.25662","315826.760672","319710.341503","320476.906771","321243.440813","321992.897673","322759.764385","323526.2301","324292.584821","325059.742774","327369.659844","Mapping"
"Mixed","both","ball","5","F_ball.wav","None","725.174396764","319","318943.302891","325825.927141","326592.542804","327359.694574","328126.220268","328893.349777","315060.25662","315826.760672","319710.341503","320476.906771","321243.440813","321992.897673","322759.764385","323526.2301","324292.584821","325059.742774","328135.649432","Mapping"
"Mixed","both","ball","5","M_depth.wav","space","658.85303542","319","318943.302891","325825.927141","326592.542804","327359.694574","328126.220268","328893.349777","329659.996976","315826.760672","319710.341503","320476.906771","321243.440813","321992.897673","322759.764385","323526.2301","324292.584821","325059.742774","328903.268981","Mapping"
"Mixed","both","ball","5","F_depth.wav","None","722.001661547","319","318943.302891","325825.927141","326592.542804","327359.694574","328126.220268","328893.349777","329659.996976","330426.101576","319710.341503","320476.906771","321243.440813","321992.897673","322759.764385","323526.2301","324292.584821","325059.742774","329669.860529","Mapping"
"Mixed","both","ball","2","F_jolt.wav","None","722.604858223","319","333543.302334","325825.927141","326592.542804","327359.694574","328126.220268","328893.349777","329659.996976","330426.101576","319710.341503","320476.906771","321243.440813","321992.897673","322759.764385","323526.2301","324292.584821","325059.742774","330435.039464","Mapping"
"Mixed","both","ball","2","M_ball.wav","None","721.502656117","319","333543.302334","325825.927141","326592.542804","327359.694574","328126.220268","328893.349777","329659.996976","330426.101576","334309.224522","320476.906771","321243.440813","321992.897673","322759.764385","323526.2301","324292.584821","325059.742774","333553.124767","Mapping"
"Mixed","both","ball","2","M_park.wav","space","547.860166058","319","333543.302334","325825.927141","326592.542804","327359.694574","328126.220268","328893.349777","329659.996976","330426.101576","334309.224522","335076.448638","321243.440813","321992.897673","322759.764385","323526.2301","324292.584821","325059.742774","334318.176014","Mapping"
"Mixed","both","ball","2","M_jolt.wav","None","718.614360318","319","333543.302334","325825.927141","326592.542804","327359.694574","328126.220268","328893.349777","329659.996976","330426.101576","334309.224522","335076.448638","335825.895296","321992.897673","322759.764385","323526.2301","324292.584821","325059.742774","335086.372171","Mapping"
"Mixed","both","ball","2","F_cad.wav","None","735.278486274","319","333543.302334","325825.927141","326592.542804","327359.694574","328126.220268","328893.349777","329659.996976","330426.101576","334309.224522","335076.448638","335825.895296","336592.743149","322759.764385","323526.2301","324292.584821","325059.742774","335835.564069","Mapping"
"Mixed","both","ball","2","M_cling.wav","None","734.345710371","319","333543.302334","325825.927141","326592.542804","327359.694574","328126.220268","328893.349777","329659.996976","330426.101576","334309.224522","335076.448638","335825.895296","336592.743149","337359.361903","323526.2301","324292.584821","325059.742774","336602.226418","Mapping"
"Mixed","both","ball","2","F_ball.wav","None","733.752407134","319","333543.302334","325825.927141","326592.542804","327359.694574","328126.220268","328893.349777","329659.996976","330426.101576","334309.224522","335076.448638","335825.895296","336592.743149","337359.361903","338142.921495","324292.584821","325059.742774","337368.873926","Mapping"
"Mixed","both","ball","2","F_park.wav","space","474.021258298","319","333543.302334","325825.927141","326592.542804","327359.694574","328126.220268","328893.349777","329659.996976","330426.101576","334309.224522","335076.448638","335825.895296","336592.743149","337359.361903","338142.921495","338892.193778","325059.742774","338151.968521","Mapping"
"Mixed","both","ball","2","F_ball.wav","None","735.866224393","319","333543.302334","325825.927141","326592.542804","327359.694574","328126.220268","328893.349777","329659.996976","330426.101576","334309.224522","335076.448638","335825.895296","336592.743149","337359.361903","338142.921495","338892.193778","339659.343075","338901.024074","Mapping"
"Mixed","both","ball","2","F_priest.wav","space","588.975254912","319","333543.302334","340425.974197","326592.542804","327359.694574","328126.220268","328893.349777","329659.996976","330426.101576","334309.224522","335076.448638","335825.895296","336592.743149","337359.361903","338142.921495","338892.193778","339659.343075","339668.974129","Mapping"
"Mixed","both","ball","2","F_park.wav","None","732.276105322","319","333543.302334","340425.974197","341192.86317","327359.694574","328126.220268","328893.349777","329659.996976","330426.101576","334309.224522","335076.448638","335825.895296","336592.743149","337359.361903","338142.921495","338892.193778","339659.343075","340435.473853","Mapping"
"Mixed","both","ball","2","M_ball.wav","None","731.393415481","319","333543.302334","340425.974197","341192.86317","341959.367221","328126.220268","328893.349777","329659.996976","330426.101576","334309.224522","335076.448638","335825.895296","336592.743149","337359.361903","338142.921495","338892.193778","339659.343075","341202.118888","Mapping"
"Mixed","both","ball","2","M_bluff.wav","space","425.06831931","319","333543.302334","340425.974197","341192.86317","341959.367221","342725.612186","328893.349777","329659.996976","330426.101576","334309.224522","335076.448638","335825.895296","336592.743149","337359.361903","338142.921495","338892.193778","339659.343075","341968.825757","Mapping"
"Mixed","both","ball","2","M_dime.wav","None","729.297221638","319","333543.302334","340425.974197","341192.86317","341959.367221","342725.612186","343492.699029","329659.996976","330426.101576","334309.224522","335076.448638","335825.895296","336592.743149","337359.361903","338142.921495","338892.193778","339659.343075","342734.701569","Mapping"
"Mixed","both","ball","2","F_cling.wav","None","727.593367919","319","333543.302334","340425.974197","341192.86317","341959.367221","342725.612186","343492.699029","344259.355194","330426.101576","334309.224522","335076.448638","335825.895296","336592.743149","337359.361903","338142.921495","338892.193778","339659.343075","343502.277215","Mapping"
"Mixed","both","ball","2","M_park.wav","None","727.00222861","319","333543.302334","340425.974197","341192.86317","341959.367221","342725.612186","343492.699029","344259.355194","345025.904385","334309.224522","335076.448638","335825.895296","336592.743149","337359.361903","338142.921495","338892.193778","339659.343075","344268.740456","Mapping"
"Mixed","both","ball","4","M_bluff.wav","None","726.258667186","319","348159.714547","340425.974197","341192.86317","341959.367221","342725.612186","343492.699029","344259.355194","345025.904385","334309.224522","335076.448638","335825.895296","336592.743149","337359.361903","338142.921495","338892.193778","339659.343075","345035.335096","Mapping"
"Mixed","both","ball","4","M_ball.wav","None","720.817528199","319","348159.714547","340425.974197","341192.86317","341959.367221","342725.612186","343492.699029","344259.355194","345025.904385","348925.598397","335076.448638","335825.895296","336592.743149","337359.361903","338142.921495","338892.193778","339659.343075","348169.508844","Mapping"
"Mixed","both","ball","4","M_cling.wav","space","498.817257583","319","348159.714547","340425.974197","341192.86317","341959.367221","342725.612186","343492.699029","344259.355194","345025.904385","348925.598397","349675.396275","335825.895296","336592.743149","337359.361903","338142.921495","338892.193778","339659.343075","348934.917186","Mapping"
"Mixed","both","ball","4","F_reek.wav","None","736.144171096","319","348159.714547","340425.974197","341192.86317","341959.367221","342725.612186","343492.699029","344259.355194","345025.904385","348925.598397","349675.396275","350442.456839","336592.743149","337359.361903","338142.921495","338892.193778","339659.343075","349684.652611","Mapping"
"Mixed","both","ball","4","F_depth.wav","None","734.751655255","319","348159.714547","340425.974197","341192.86317","341959.367221","342725.612186","343492.699029","344259.355194","345025.904385","348925.598397","349675.396275","350442.456839","351209.193079","337359.361903","338142.921495","338892.193778","339659.343075","350451.909191","Mapping"
"Mixed","both","ball","4","F_ball.wav","None","734.098990448","319","348159.714547","340425.974197","341192.86317","341959.367221","342725.612186","343492.699029","344259.355194","345025.904385","348925.598397","349675.396275","350442.456839","351209.193079","351975.798231","338142.921495","338892.193778","339659.343075","351218.524545","Mapping"
"Mixed","both","ball","4","F_bluff.wav","space","480.185553432","319","348159.714547","340425.974197","341192.86317","341959.367221","342725.612186","343492.699029","344259.355194","345025.904385","348925.598397","349675.396275","350442.456839","351209.193079","351975.798231","352742.656904","338892.193778","339659.343075","351985.539351","Mapping"
"Mixed","both","ball","4","M_lash.wav","None","729.234768543","319","348159.714547","340425.974197","341192.86317","341959.367221","342725.612186","343492.699029","344259.355194","345025.904385","348925.598397","349675.396275","350442.456839","351209.193079","351975.798231","352742.656904","353509.242578","339659.343075","352753.847119","Mapping"
"Mixed","both","ball","4","M_ball.wav","None","730.265860911","319","348159.714547","340425.974197","341192.86317","341959.367221","342725.612186","343492.699029","344259.355194","345025.904385","348925.598397","349675.396275","350442.456839","351209.193079","351975.798231","352742.656904","353509.242578","354275.673356","353518.707916","Mapping"
"Mixed","both","ball","4","M_lash.wav","space","508.637216873","319","348159.714547","355042.145563","341192.86317","341959.367221","342725.612186","343492.699029","344259.355194","345025.904385","348925.598397","349675.396275","350442.456839","351209.193079","351975.798231","352742.656904","353509.242578","354275.673356","354285.038522","Mapping"
"Mixed","both","ball","4","F_dime.wav","None","728.479458019","319","348159.714547","355042.145563","355809.14862","341959.367221","342725.612186","343492.699029","344259.355194","345025.904385","348925.598397","349675.396275","350442.456839","351209.193079","351975.798231","352742.656904","353509.242578","354275.673356","355051.067374","Mapping"
"Mixed","both","ball","4","F_romp.wav","None","726.609888021","319","348159.714547","355042.145563","355809.14862","356575.306398","342725.612186","343492.699029","344259.355194","345025.904385","348925.598397","349675.396275","350442.456839","351209.193079","351975.798231","352742.656904","353509.242578","354275.673356","355818.940754","Mapping"
"Mixed","both","ball","4","M_park.wav","None","727.095908485","319","348159.714547","355042.145563","355809.14862","356575.306398","357342.558649","343492.699029","344259.355194","345025.904385","348925.598397","349675.396275","350442.456839","351209.193079","351975.798231","352742.656904","353509.242578","354275.673356","356584.456379","Mapping"
"Mixed","both","ball","4","F_ball.wav","None","725.6829869","319","348159.714547","355042.145563","355809.14862","356575.306398","357342.558649","358109.126391","344259.355194","345025.904385","348925.598397","349675.396275","350442.456839","351209.193079","351975.798231","352742.656904","353509.242578","354275.673356","357351.662563","Mapping"
"Mixed","both","ball","4","M_romp.wav","space","531.085973606","319","348159.714547","355042.145563","355809.14862","356575.306398","357342.558649","358109.126391","358876.088947","345025.904385","348925.598397","349675.396275","350442.456839","351209.193079","351975.798231","352742.656904","353509.242578","354275.673356","358118.49032","Mapping"
"Mixed","both","ball","4","F_knife.wav","None","721.830070484","319","348159.714547","355042.145563","355809.14862","356575.306398","357342.558649","358109.126391","358876.088947","359642.152427","348925.598397","349675.396275","350442.456839","351209.193079","351975.798231","352742.656904","353509.242578","354275.673356","358886.182833","Mapping"
"Mixed","both","tile","30","F_bluff.wav","None","722.278680652","319","362759.341745","355042.145563","355809.14862","356575.306398","357342.558649","358109.126391","358876.088947","359642.152427","348925.598397","349675.396275","350442.456839","351209.193079","351975.798231","352742.656904","353509.242578","354275.673356","359651.712371","Mapping"
"Mixed","both","tile","30","F_jolt.wav","None","720.956037752","319","362759.341745","355042.145563","355809.14862","356575.306398","357342.558649","358109.126391","358876.088947","359642.152427","363525.365342","349675.396275","350442.456839","351209.193079","351975.798231","352742.656904","353509.242578","354275.673356","362769.270534","Mapping"
"Mixed","both","tile","30","F_depth.wav","None","722.871365957","319","362759.341745","355042.145563","355809.14862","356575.306398","357342.558649","358109.126391","358876.088947","359642.152427","363525.365342","364292.78702","350442.456839","351209.193079","351975.798231","352742.656904","353509.242578","354275.673356","363534.878292","Mapping"
"Mixed","both","tile","30","M_cling.wav","None","721.164420247","319","362759.341745","355042.145563","355809.14862","356575.306398","357342.558649","358109.126391","358876.088947","359642.152427","363525.365342","364292.78702","365059.367747","351209.193079","351975.798231","352742.656904","353509.242578","354275.673356","364302.667268","Mapping"
"Mixed","both","tile","30","M_tile.wav","None","720.341401175","319","362759.341745","355042.145563","355809.14862","356575.306398","357342.558649","358109.126391","358876.088947","359642.152427","363525.365342","364292.78702","365059.367747","365825.540056","351975.798231","352742.656904","353509.242578","354275.673356","365069.495333","Mapping"
"Mixed","both","tile","30","M_jaw.wav","space","534.846756607","319","362759.341745","355042.145563","355809.14862","356575.306398","357342.558649","358109.126391","358876.088947","359642.152427","363525.365342","364292.78702","365059.367747","365825.540056","366575.542606","352742.656904","353509.242578","354275.673356","365834.657883","Mapping"
"Mixed","both","tile","30","F_tile.wav","None","735.571891535","319","362759.341745","355042.145563","355809.14862","356575.306398","357342.558649","358109.126391","358876.088947","359642.152427","363525.365342","364292.78702","365059.367747","365825.540056","366575.542606","367341.63484","353509.242578","354275.673356","366585.161603","Mapping"
"Mixed","both","tile","30","F_park.wav","None","736.22022802","319","362759.341745","355042.145563","355809.14862","356575.306398","357342.558649","358109.126391","358876.088947","359642.152427","363525.365342","364292.78702","365059.367747","365825.540056","366575.542606","367341.63484","368108.994683","354275.673356","367350.617249","Mapping"
"Mixed","both","tile","30","F_priest.wav","space","90.4393447563","319","362759.341745","355042.145563","355809.14862","356575.306398","357342.558649","358109.126391","358876.088947","359642.152427","363525.365342","364292.78702","365059.367747","365825.540056","366575.542606","367341.63484","368108.994683","368875.541401","368119.002619","Mapping"
"Mixed","both","tile","30","F_tile.wav","None","732.5753849","319","362759.341745","369658.494394","355809.14862","356575.306398","357342.558649","358109.126391","358876.088947","359642.152427","363525.365342","364292.78702","365059.367747","365825.540056","366575.542606","367341.63484","368108.994683","368875.541401","368885.109693","Mapping"
"Mixed","both","tile","30","M_park.wav","space","566.174349748","319","362759.341745","369658.494394","370408.343286","356575.306398","357342.558649","358109.126391","358876.088947","359642.152427","363525.365342","364292.78702","365059.367747","365825.540056","366575.542606","367341.63484","368108.994683","368875.541401","369667.217716","Mapping"
"Mixed","both","tile","30","M_tile.wav","None","736.227029469","319","362759.341745","369658.494394","370408.343286","371175.348199","357342.558649","358109.126391","358876.088947","359642.152427","363525.365342","364292.78702","365059.367747","365825.540056","366575.542606","367341.63484","368108.994683","368875.541401","370417.058879","Mapping"
"Mixed","both","tile","30","M_lash.wav","None","734.717646148","319","362759.341745","369658.494394","370408.343286","371175.348199","371941.767537","358109.126391","358876.088947","359642.152427","363525.365342","364292.78702","365059.367747","365825.540056","366575.542606","367341.63484","368108.994683","368875.541401","371184.752938","Mapping"
"Mixed","both","tile","30","F_priest.wav","space","74.418916367","319","362759.341745","369658.494394","370408.343286","371175.348199","371941.767537","372708.907249","358876.088947","359642.152427","363525.365342","364292.78702","365059.367747","365825.540056","366575.542606","367341.63484","368108.994683","368875.541401","371950.95771","Mapping"
"Mixed","both","tile","30","M_gnash.wav","None","731.441028416","319","362759.341745","369658.494394","370408.343286","371175.348199","371941.767537","372708.907249","373475.341118","359642.152427","363525.365342","364292.78702","365059.367747","365825.540056","366575.542606","367341.63484","368108.994683","368875.541401","372718.7303","Mapping"
"Mixed","both","tile","30","M_bluff.wav","None","731.239138171","319","362759.341745","369658.494394","370408.343286","371175.348199","371941.767537","372708.907249","373475.341118","374242.177532","363525.365342","364292.78702","365059.367747","365825.540056","366575.542606","367341.63484","368108.994683","368875.541401","373485.050394","Mapping"
"Mixed","both","tile","32","M_bluff.wav","None","731.210075784","319","377375.611119","369658.494394","370408.343286","371175.348199","371941.767537","372708.907249","373475.341118","374242.177532","363525.365342","364292.78702","365059.367747","365825.540056","366575.542606","367341.63484","368108.994683","368875.541401","374251.278972","Mapping"
"Mixed","both","tile","32","M_cad.wav","None","726.616071537","319","377375.611119","369658.494394","370408.343286","371175.348199","371941.767537","372708.907249","373475.341118","374242.177532","378142.505966","364292.78702","365059.367747","365825.540056","366575.542606","367341.63484","368108.994683","368875.541401","377380.308697","Mapping"
"Mixed","both","tile","32","M_jolt.wav","None","720.208147541","319","377375.611119","369658.494394","370408.343286","371175.348199","371941.767537","372708.907249","373475.341118","374242.177532","378142.505966","378908.393217","365059.367747","365825.540056","366575.542606","367341.63484","368108.994683","368875.541401","378152.886456","Mapping"
"Mixed","both","tile","32","M_depth.wav","None","721.72000492","319","377375.611119","369658.494394","370408.343286","371175.348199","371941.767537","372708.907249","373475.341118","374242.177532","378142.505966","378908.393217","379675.66711","365825.540056","366575.542606","367341.63484","368108.994683","368875.541401","378917.533305","Mapping"
"Mixed","both","tile","32","M_tile.wav","None","719.91814347","319","377375.611119","369658.494394","370408.343286","371175.348199","371941.767537","372708.907249","373475.341118","374242.177532","378142.505966","378908.393217","379675.66711","380442.44509","366575.542606","367341.63484","368108.994683","368875.541401","379685.509639","Mapping"
"Mixed","both","tile","32","F_depth.wav","space","564.728346653","319","377375.611119","369658.494394","370408.343286","371175.348199","371941.767537","372708.907249","373475.341118","374242.177532","378142.505966","378908.393217","379675.66711","380442.44509","381191.549493","367341.63484","368108.994683","368875.541401","380452.455809","Mapping"
"Mixed","both","tile","32","F_tile.wav","None","735.679483972","319","377375.611119","369658.494394","370408.343286","371175.348199","371941.767537","372708.907249","373475.341118","374242.177532","378142.505966","378908.393217","379675.66711","380442.44509","381191.549493","381958.14506","368108.994683","368875.541401","381200.710604","Mapping"
"Mixed","both","tile","32","F_cad.wav","None","735.622595996","319","377375.611119","369658.494394","370408.343286","371175.348199","371941.767537","372708.907249","373475.341118","374242.177532","378142.505966","378908.393217","379675.66711","380442.44509","381191.549493","381958.14506","382725.129567","368875.541401","381966.993287","Mapping"
"Mixed","both","tile","32","M_tile.wav","space","18.7430069782","319","377375.611119","369658.494394","370408.343286","371175.348199","371941.767537","372708.907249","373475.341118","374242.177532","378142.505966","378908.393217","379675.66711","380442.44509","381191.549493","381958.14506","382725.129567","383491.964125","382734.423622","Mapping"
"Mixed","both","tile","32","F_jaw.wav","space","595.593725331","319","377375.611119","384258.121284","370408.343286","371175.348199","371941.767537","372708.907249","373475.341118","374242.177532","378142.505966","378908.393217","379675.66711","380442.44509","381191.549493","381958.14506","382725.129567","383491.964125","383501.556532","Mapping"
"Mixed","both","tile","32","F_depth.wav","None","730.806604959","319","377375.611119","384258.121284","385024.850723","371175.348199","371941.767537","372708.907249","373475.341118","374242.177532","378142.505966","378908.393217","379675.66711","380442.44509","381191.549493","381958.14506","382725.129567","383491.964125","384267.139866","Mapping"
"Mixed","both","tile","32","F_cling.wav","None","730.926254764","319","377375.611119","384258.121284","385024.850723","385792.010532","371941.767537","372708.907249","373475.341118","374242.177532","378142.505966","378908.393217","379675.66711","380442.44509","381191.549493","381958.14506","382725.129567","383491.964125","385034.020801","Mapping"
"Mixed","both","tile","32","M_bluff.wav","None","729.949886445","319","377375.611119","384258.121284","385024.850723","385792.010532","386558.62805","372708.907249","373475.341118","374242.177532","378142.505966","378908.393217","379675.66711","380442.44509","381191.549493","381958.14506","382725.129567","383491.964125","385801.134232","Mapping"
"Mixed","both","tile","32","F_cad.wav","None","729.180662893","319","377375.611119","384258.121284","385024.850723","385792.010532","386558.62805","387325.148179","373475.341118","374242.177532","378142.505966","378908.393217","379675.66711","380442.44509","381191.549493","381958.14506","382725.129567","383491.964125","386568.139764","Mapping"
"Mixed","both","tile","32","F_tile.wav","None","729.000724386","319","377375.611119","384258.121284","385024.850723","385792.010532","386558.62805","387325.148179","388091.944399","374242.177532","378142.505966","378908.393217","379675.66711","380442.44509","381191.549493","381958.14506","382725.129567","383491.964125","387334.566831","Mapping"
"Mixed","both","tile","32","M_jolt.wav","space","523.401164915","319","377375.611119","384258.121284","385024.850723","385792.010532","386558.62805","387325.148179","388091.944399","388858.557899","378142.505966","378908.393217","379675.66711","380442.44509","381191.549493","381958.14506","382725.129567","383491.964125","388101.687993","Mapping"
"Mixed","both","done","37","F_priest.wav","None","726.657191291","319","391992.133088","384258.121284","385024.850723","385792.010532","386558.62805","387325.148179","388091.944399","388858.557899","378142.505966","378908.393217","379675.66711","380442.44509","381191.549493","381958.14506","382725.129567","383491.964125","388867.865558","Mapping"
"Mixed","both","done","37","F_done.wav","None","719.958644826","319","391992.133088","384258.121284","385024.850723","385792.010532","386558.62805","387325.148179","388091.944399","388858.557899","392758.869947","378908.393217","379675.66711","380442.44509","381191.549493","381958.14506","382725.129567","383491.964125","392002.271495","Mapping"
"Mixed","both","done","37","M_jaw.wav","space","512.508683838","319","391992.133088","384258.121284","385024.850723","385792.010532","386558.62805","387325.148179","388091.944399","388858.557899","392758.869947","393508.28074","379675.66711","380442.44509","381191.549493","381958.14506","382725.129567","383491.964125","392768.466374","Mapping"
"Mixed","both","done","37","F_cling.wav","None","734.851827379","319","391992.133088","384258.121284","385024.850723","385792.010532","386558.62805","387325.148179","388091.944399","388858.557899","392758.869947","393508.28074","394274.889293","380442.44509","381191.549493","381958.14506","382725.129567","383491.964125","393517.817806","Mapping"
"Mixed","both","done","37","F_depth.wav","None","734.37229963","319","391992.133088","384258.121284","385024.850723","385792.010532","386558.62805","387325.148179","388091.944399","388858.557899","392758.869947","393508.28074","394274.889293","395041.612857","381191.549493","381958.14506","382725.129567","383491.964125","394284.513545","Mapping"
"Mixed","both","done","37","M_done.wav","None","735.050316434","319","391992.133088","384258.121284","385024.850723","385792.010532","386558.62805","387325.148179","388091.944399","388858.557899","392758.869947","393508.28074","394274.889293","395041.612857","395808.406295","381958.14506","382725.129567","383491.964125","395050.955453","Mapping"
"Mixed","both","done","37","M_priest.wav","space","655.012485571","319","391992.133088","384258.121284","385024.850723","385792.010532","386558.62805","387325.148179","388091.944399","388858.557899","392758.869947","393508.28074","394274.889293","395041.612857","395808.406295","396574.953631","382725.129567","383491.964125","395817.918318","Mapping"
"Mixed","both","done","37","M_done.wav","None","732.121827547","319","391992.133088","384258.121284","385024.850723","385792.010532","386558.62805","387325.148179","388091.944399","388858.557899","392758.869947","393508.28074","394274.889293","395041.612857","395808.406295","396574.953631","397341.774277","383491.964125","396584.490697","Mapping"
"Mixed","both","done","37","M_lash.wav","space","617.484424263","319","391992.133088","384258.121284","385024.850723","385792.010532","386558.62805","387325.148179","388091.944399","388858.557899","392758.869947","393508.28074","394274.889293","395041.612857","395808.406295","396574.953631","397341.774277","398108.419621","397351.410897","Mapping"
"Mixed","both","done","37","F_cling.wav","None","729.614742566","319","391992.133088","398874.905432","385024.850723","385792.010532","386558.62805","387325.148179","388091.944399","388858.557899","392758.869947","393508.28074","394274.889293","395041.612857","395808.406295","396574.953631","397341.774277","398108.419621","398117.806737","Mapping"
"Mixed","both","done","37","M_cad.wav","None","729.368022177","319","391992.133088","398874.905432","399641.220578","385792.010532","386558.62805","387325.148179","388091.944399","388858.557899","392758.869947","393508.28074","394274.889293","395041.612857","395808.406295","396574.953631","397341.774277","398108.419621","398884.227622","Mapping"
"Mixed","both","done","37","M_bluff.wav","None","729.666374624","319","391992.133088","398874.905432","399641.220578","400408.357508","386558.62805","387325.148179","388091.944399","388858.557899","392758.869947","393508.28074","394274.889293","395041.612857","395808.406295","396574.953631","397341.774277","398108.419621","399650.29914","Mapping"
"Mixed","both","done","37","F_done.wav","None","728.271075524","319","391992.133088","398874.905432","399641.220578","400408.357508","401174.885985","387325.148179","388091.944399","388858.557899","392758.869947","393508.28074","394274.889293","395041.612857","395808.406295","396574.953631","397341.774277","398108.419621","400417.832121","Mapping"
"Mixed","both","done","37","M_reek.wav","space","528.433267958","319","391992.133088","398874.905432","399641.220578","400408.357508","401174.885985","401941.189692","388091.944399","388858.557899","392758.869947","393508.28074","394274.889293","395041.612857","395808.406295","396574.953631","397341.774277","398108.419621","401184.4382","Mapping"
"Mixed","both","done","37","F_knife.wav","None","726.722117979","319","391992.133088","398874.905432","399641.220578","400408.357508","401174.885985","401941.189692","402707.801027","388858.557899","392758.869947","393508.28074","394274.889293","395041.612857","395808.406295","396574.953631","397341.774277","398108.419621","401949.972994","Mapping"
"Mixed","both","done","37","F_jolt.wav","None","726.360385306","319","391992.133088","398874.905432","399641.220578","400408.357508","401174.885985","401941.189692","402707.801027","403474.532321","392758.869947","393508.28074","394274.889293","395041.612857","395808.406295","396574.953631","397341.774277","398108.419621","402716.580309","Mapping"
