Condition,Talker,Target,Trial,current_stimulus,response_response,response_time_response,subject_nr,time_Audio1,time_Audio10,time_Audio11,time_Audio12,time_Audio13,time_Audio14,time_Audio15,time_Audio16,time_Audio2,time_Audio3,time_Audio4,time_Audio5,time_Audio6,time_Audio7,time_Audio8,time_Audio9,time_response,title
Blocked,Male,tile,15,M_bluff.wav,NA,NA,105,116130.2663,NA,NA,NA,NA,NA,NA,NA,NA,NA,NA,NA,NA,NA,NA,NA,NA,Mapping
Blocked,Male,tile,15,M_jolt.wav,None,715.7900139,105,116130.2663,NA,NA,NA,NA,NA,NA,NA,116880.1222,NA,NA,NA,NA,NA,NA,NA,116144.491,Mapping
Blocked,Male,tile,15,M_tile.wav,None,734.1177445,105,116130.2663,NA,NA,NA,NA,NA,NA,NA,116880.1222,117646.647,NA,NA,NA,NA,NA,NA,116890.0311,Mapping
Blocked,Male,tile,15,M_bluff.wav,space,545.4976328,105,116130.2663,NA,NA,NA,NA,NA,NA,NA,116880.1222,117646.647,118413.2393,NA,NA,NA,NA,NA,117655.6981,Mapping
Blocked,Male,tile,15,M_cad.wav,None,729.4310025,105,116130.2663,NA,NA,NA,NA,NA,NA,NA,116880.1222,117646.647,118413.2393,119179.9083,NA,NA,NA,NA,118422.6289,Mapping
Blocked,Male,tile,15,M_dime.wav,None,726.2539485,105,116130.2663,NA,NA,NA,NA,NA,NA,NA,116880.1222,117646.647,118413.2393,119179.9083,119947.0048,NA,NA,NA,119189.6441,Mapping
Blocked,Male,tile,15,M_jolt.wav,None,722.3732185,105,116130.2663,NA,NA,NA,NA,NA,NA,NA,116880.1222,117646.647,118413.2393,119179.9083,119947.0048,120713.6138,NA,NA,119957.3296,Mapping
Blocked,Male,tile,15,M_depth.wav,None,720.2371475,105,116130.2663,NA,NA,NA,NA,NA,NA,NA,116880.1222,117646.647,118413.2393,119179.9083,119947.0048,120713.6138,121463.2557,NA,120723.2151,Mapping
Blocked,Male,tile,15,M_tile.wav,None,734.6761096,105,116130.2663,NA,NA,NA,NA,NA,NA,NA,116880.1222,117646.647,118413.2393,119179.9083,119947.0048,120713.6138,121463.2557,122230.0245,121472.4742,Mapping
Blocked,Male,tile,15,M_cave.wav,space,353.7412779,105,116130.2663,122996.6724,NA,NA,NA,NA,NA,NA,116880.1222,117646.647,118413.2393,119179.9083,119947.0048,120713.6138,121463.2557,122230.0245,122239.4066,Mapping
Blocked,Male,tile,15,M_tile.wav,None,728.7381475,105,116130.2663,122996.6724,123763.209,NA,NA,NA,NA,NA,116880.1222,117646.647,118413.2393,119179.9083,119947.0048,120713.6138,121463.2557,122230.0245,123006.2821,Mapping
Blocked,Male,tile,15,M_cling.wav,space,724.9449132,105,116130.2663,122996.6724,123763.209,124530.5931,NA,NA,NA,NA,116880.1222,117646.647,118413.2393,119179.9083,119947.0048,120713.6138,121463.2557,122230.0245,123772.1484,Mapping
Blocked,Male,tile,15,M_romp.wav,None,722.2643899,105,116130.2663,122996.6724,123763.209,124530.5931,125297.2159,NA,NA,NA,116880.1222,117646.647,118413.2393,119179.9083,119947.0048,120713.6138,121463.2557,122230.0245,124540.1134,Mapping
Blocked,Male,tile,15,M_priest.wav,None,719.2144057,105,116130.2663,122996.6724,123763.209,124530.5931,125297.2159,126046.8551,NA,NA,116880.1222,117646.647,118413.2393,119179.9083,119947.0048,120713.6138,121463.2557,122230.0245,125307.0374,Mapping
Blocked,Male,tile,15,M_tile.wav,None,733.8555665,105,116130.2663,122996.6724,123763.209,124530.5931,125297.2159,126046.8551,126813.4337,NA,116880.1222,117646.647,118413.2393,119179.9083,119947.0048,120713.6138,121463.2557,122230.0245,126056.2459,Mapping
Blocked,Male,tile,15,M_romp.wav,space,354.1462935,105,116130.2663,122996.6724,123763.209,124530.5931,125297.2159,126046.8551,126813.4337,127580.1364,116880.1222,117646.647,118413.2393,119179.9083,119947.0048,120713.6138,121463.2557,122230.0245,126822.8459,Mapping
Blocked,Male,tile,14,M_romp.wav,None,728.4917372,105,130747.0433,122996.6724,123763.209,124530.5931,125297.2159,126046.8551,126813.4337,127580.1364,116880.1222,117646.647,118413.2393,119179.9083,119947.0048,120713.6138,121463.2557,122230.0245,127589.082,Mapping
Blocked,Male,tile,14,M_tile.wav,None,719.1899811,105,130747.0433,122996.6724,123763.209,124530.5931,125297.2159,126046.8551,126813.4337,127580.1364,131496.7201,117646.647,118413.2393,119179.9083,119947.0048,120713.6138,121463.2557,122230.0245,130757.4791,Mapping
Blocked,Male,tile,14,M_done.wav,space,446.7439989,105,130747.0433,122996.6724,123763.209,124530.5931,125297.2159,126046.8551,126813.4337,127580.1364,131496.7201,132263.4528,118413.2393,119179.9083,119947.0048,120713.6138,121463.2557,122230.0245,131506.1913,Mapping
Blocked,Male,tile,14,M_reek.wav,None,731.6675545,105,130747.0433,122996.6724,123763.209,124530.5931,125297.2159,126046.8551,126813.4337,127580.1364,131496.7201,132263.4528,133030.5734,119179.9083,119947.0048,120713.6138,121463.2557,122230.0245,132272.5437,Mapping
Blocked,Male,tile,14,M_tile.wav,None,728.1763816,105,130747.0433,122996.6724,123763.209,124530.5931,125297.2159,126046.8551,126813.4337,127580.1364,131496.7201,132263.4528,133030.5734,133796.8463,119947.0048,120713.6138,121463.2557,122230.0245,133040.0628,Mapping
Blocked,Male,tile,14,M_done.wav,space,362.6942877,105,130747.0433,122996.6724,123763.209,124530.5931,125297.2159,126046.8551,126813.4337,127580.1364,131496.7201,132263.4528,133030.5734,133796.8463,134563.9997,120713.6138,121463.2557,122230.0245,133806.1833,Mapping
Blocked,Male,tile,14,M_tile.wav,None,721.9852073,105,130747.0433,122996.6724,123763.209,124530.5931,125297.2159,126046.8551,126813.4337,127580.1364,131496.7201,132263.4528,133030.5734,133796.8463,134563.9997,135330.0834,121463.2557,122230.0245,134574.0549,Mapping
Blocked,Male,tile,14,M_ball.wav,space,333.4880226,105,130747.0433,122996.6724,123763.209,124530.5931,125297.2159,126046.8551,126813.4337,127580.1364,131496.7201,132263.4528,133030.5734,133796.8463,134563.9997,135330.0834,136080.0401,122230.0245,135339.3539,Mapping
Blocked,Male,tile,14,M_knife.wav,None,734.3378752,105,130747.0433,122996.6724,123763.209,124530.5931,125297.2159,126046.8551,126813.4337,127580.1364,131496.7201,132263.4528,133030.5734,133796.8463,134563.9997,135330.0834,136080.0401,136846.4345,136089.3477,Mapping
Blocked,Male,tile,14,M_ball.wav,None,732.0193925,105,130747.0433,137613.3798,123763.209,124530.5931,125297.2159,126046.8551,126813.4337,127580.1364,131496.7201,132263.4528,133030.5734,133796.8463,134563.9997,135330.0834,136080.0401,136846.4345,136855.5458,Mapping
Blocked,Male,tile,14,M_tile.wav,None,728.9932146,105,130747.0433,137613.3798,138379.9269,124530.5931,125297.2159,126046.8551,126813.4337,127580.1364,131496.7201,132263.4528,133030.5734,133796.8463,134563.9997,135330.0834,136080.0401,136846.4345,137622.9833,Mapping
Blocked,Male,tile,14,M_park.wav,space,251.8563475,105,130747.0433,137613.3798,138379.9269,139147.1422,125297.2159,126046.8551,126813.4337,127580.1364,131496.7201,132263.4528,133030.5734,133796.8463,134563.9997,135330.0834,136080.0401,136846.4345,138388.922,Mapping
Blocked,Male,tile,14,M_bluff.wav,None,722.7364959,105,130747.0433,137613.3798,138379.9269,139147.1422,139913.629,126046.8551,126813.4337,127580.1364,131496.7201,132263.4528,133030.5734,133796.8463,134563.9997,135330.0834,136080.0401,136846.4345,139156.9324,Mapping
Blocked,Male,tile,14,M_park.wav,None,720.1443958,105,130747.0433,137613.3798,138379.9269,139147.1422,139913.629,140663.0038,126813.4337,127580.1364,131496.7201,132263.4528,133030.5734,133796.8463,134563.9997,135330.0834,136080.0401,136846.4345,139923.4944,Mapping
Blocked,Male,tile,14,M_jaw.wav,None,734.8897476,105,130747.0433,137613.3798,138379.9269,139147.1422,139913.629,140663.0038,141430.0292,127580.1364,131496.7201,132263.4528,133030.5734,133796.8463,134563.9997,135330.0834,136080.0401,136846.4345,140672.6654,Mapping
Blocked,Male,tile,14,M_cave.wav,None,732.034542,105,130747.0433,137613.3798,138379.9269,139147.1422,139913.629,140663.0038,141430.0292,142196.5451,131496.7201,132263.4528,133030.5734,133796.8463,134563.9997,135330.0834,136080.0401,136846.4345,141439.4803,Mapping
Blocked,Male,cave,8,M_lash.wav,None,729.4442969,105,145330.2253,137613.3798,138379.9269,139147.1422,139913.629,140663.0038,141430.0292,142196.5451,131496.7201,132263.4528,133030.5734,133796.8463,134563.9997,135330.0834,136080.0401,136846.4345,142206.1091,Mapping
Blocked,Male,cave,8,M_cave.wav,None,720.4359452,105,145330.2253,137613.3798,138379.9269,139147.1422,139913.629,140663.0038,141430.0292,142196.5451,146079.6063,132263.4528,133030.5734,133796.8463,134563.9997,135330.0834,136080.0401,136846.4345,145339.7812,Mapping
Blocked,Male,cave,8,M_jolt.wav,space,511.2487684,105,145330.2253,137613.3798,138379.9269,139147.1422,139913.629,140663.0038,141430.0292,142196.5451,146079.6063,146846.6299,133030.5734,133796.8463,134563.9997,135330.0834,136080.0401,136846.4345,146089.3659,Mapping
Blocked,Male,cave,8,M_cad.wav,None,736.977897,105,145330.2253,137613.3798,138379.9269,139147.1422,139913.629,140663.0038,141430.0292,142196.5451,146079.6063,146846.6299,147613.2908,133796.8463,134563.9997,135330.0834,136080.0401,136846.4345,146850.8222,Mapping
Blocked,Male,cave,8,M_jolt.wav,None,728.6518884,105,145330.2253,137613.3798,138379.9269,139147.1422,139913.629,140663.0038,141430.0292,142196.5451,146079.6063,146846.6299,147613.2908,148379.338,134563.9997,135330.0834,136080.0401,136846.4345,147622.8961,Mapping
Blocked,Male,cave,8,M_cave.wav,None,726.3686514,105,145330.2253,137613.3798,138379.9269,139147.1422,139913.629,140663.0038,141430.0292,142196.5451,146079.6063,146846.6299,147613.2908,148379.338,149146.9687,135330.0834,136080.0401,136846.4345,148389.046,Mapping
Blocked,Male,cave,8,M_done.wav,space,475.289563,105,145330.2253,137613.3798,138379.9269,139147.1422,139913.629,140663.0038,141430.0292,142196.5451,146079.6063,146846.6299,147613.2908,148379.338,149146.9687,149912.8125,136080.0401,136846.4345,149157.2555,Mapping
Blocked,Male,cave,8,M_jolt.wav,None,720.7469725,105,145330.2253,137613.3798,138379.9269,139147.1422,139913.629,140663.0038,141430.0292,142196.5451,146079.6063,146846.6299,147613.2908,148379.338,149146.9687,149912.8125,150662.9206,136846.4345,149922.2246,Mapping
Blocked,Male,cave,8,M_depth.wav,None,734.5122484,105,145330.2253,137613.3798,138379.9269,139147.1422,139913.629,140663.0038,141430.0292,142196.5451,146079.6063,146846.6299,147613.2908,148379.338,149146.9687,149912.8125,150662.9206,151429.7633,150672.3702,Mapping
Blocked,Male,cave,8,M_romp.wav,None,731.4851429,105,145330.2253,152196.3058,138379.9269,139147.1422,139913.629,140663.0038,141430.0292,142196.5451,146079.6063,146846.6299,147613.2908,148379.338,149146.9687,149912.8125,150662.9206,151429.7633,151439.1155,Mapping
Blocked,Male,cave,8,M_cave.wav,None,729.0912222,105,145330.2253,152196.3058,152963.0147,139147.1422,139913.629,140663.0038,141430.0292,142196.5451,146079.6063,146846.6299,147613.2908,148379.338,149146.9687,149912.8125,150662.9206,151429.7633,152205.6348,Mapping
Blocked,Male,cave,8,M_gnash.wav,space,595.9162057,105,145330.2253,152196.3058,152963.0147,153729.8134,139913.629,140663.0038,141430.0292,142196.5451,146079.6063,146846.6299,147613.2908,148379.338,149146.9687,149912.8125,150662.9206,151429.7633,152972.5056,Mapping
Blocked,Male,cave,8,M_gnash.wav,None,722.5454274,105,145330.2253,152196.3058,152963.0147,153729.8134,154496.7709,140663.0038,141430.0292,142196.5451,146079.6063,146846.6299,147613.2908,148379.338,149146.9687,149912.8125,150662.9206,151429.7633,153739.924,Mapping
Blocked,Male,cave,8,M_cave.wav,None,719.2134782,105,145330.2253,152196.3058,152963.0147,153729.8134,154496.7709,155246.2882,141430.0292,142196.5451,146079.6063,146846.6299,147613.2908,148379.338,149146.9687,149912.8125,150662.9206,151429.7633,154507.0317,Mapping
Blocked,Male,cave,8,M_done.wav,None,734.3505513,105,145330.2253,152196.3058,152963.0147,153729.8134,154496.7709,155246.2882,156012.6306,142196.5451,146079.6063,146846.6299,147613.2908,148379.338,149146.9687,149912.8125,150662.9206,151429.7633,155255.7714,Mapping
Blocked,Male,cave,8,M_lash.wav,None,732.7570775,105,145330.2253,152196.3058,152963.0147,153729.8134,154496.7709,155246.2882,156012.6306,156779.9096,146079.6063,146846.6299,147613.2908,148379.338,149146.9687,149912.8125,150662.9206,151429.7633,156021.2998,Mapping
Blocked,Male,tile,13,M_park.wav,None,728.3634307,105,159913.2546,152196.3058,152963.0147,153729.8134,154496.7709,155246.2882,156012.6306,156779.9096,146079.6063,146846.6299,147613.2908,148379.338,149146.9687,149912.8125,150662.9206,151429.7633,156789.6485,Mapping
Blocked,Male,tile,13,M_bluff.wav,None,720.1168795,105,159913.2546,152196.3058,152963.0147,153729.8134,154496.7709,155246.2882,156012.6306,156779.9096,160662.4665,146846.6299,147613.2908,148379.338,149146.9687,149912.8125,150662.9206,151429.7633,159923.1324,Mapping
Blocked,Male,tile,13,M_knife.wav,None,735.5405552,105,159913.2546,152196.3058,152963.0147,153729.8134,154496.7709,155246.2882,156012.6306,156779.9096,160662.4665,161429.5621,147613.2908,148379.338,149146.9687,149912.8125,150662.9206,151429.7633,160671.8551,Mapping
Blocked,Male,tile,13,M_park.wav,None,732.5734292,105,159913.2546,152196.3058,152963.0147,153729.8134,154496.7709,155246.2882,156012.6306,156779.9096,160662.4665,161429.5621,162195.8835,148379.338,149146.9687,149912.8125,150662.9206,151429.7633,161438.9142,Mapping
Blocked,Male,tile,13,M_bluff.wav,None,730.8918413,105,159913.2546,152196.3058,152963.0147,153729.8134,154496.7709,155246.2882,156012.6306,156779.9096,160662.4665,161429.5621,162195.8835,162962.8517,149146.9687,149912.8125,150662.9206,151429.7633,162204.7283,Mapping
Blocked,Male,tile,13,M_tile.wav,None,727.5462885,105,159913.2546,152196.3058,152963.0147,153729.8134,154496.7709,155246.2882,156012.6306,156779.9096,160662.4665,161429.5621,162195.8835,162962.8517,163729.6706,149912.8125,150662.9206,151429.7633,162971.9967,Mapping
Blocked,Male,tile,13,M_park.wav,space,381.1215718,105,159913.2546,152196.3058,152963.0147,153729.8134,154496.7709,155246.2882,156012.6306,156779.9096,160662.4665,161429.5621,162195.8835,162962.8517,163729.6706,164496.4941,150662.9206,151429.7633,163739.1347,Mapping
Blocked,Male,tile,13,M_tile.wav,None,720.9207273,105,159913.2546,152196.3058,152963.0147,153729.8134,154496.7709,155246.2882,156012.6306,156779.9096,160662.4665,161429.5621,162195.8835,162962.8517,163729.6706,164496.4941,165246.5686,151429.7633,164506.3203,Mapping
Blocked,Male,tile,13,M_jolt.wav,space,408.2931744,105,159913.2546,152196.3058,152963.0147,153729.8134,154496.7709,155246.2882,156012.6306,156779.9096,160662.4665,161429.5621,162195.8835,162962.8517,163729.6706,164496.4941,165246.5686,166012.7657,165255.9622,Mapping
Blocked,Male,tile,13,M_greet.wav,None,733.4953808,105,159913.2546,166779.4075,152963.0147,153729.8134,154496.7709,155246.2882,156012.6306,156779.9096,160662.4665,161429.5621,162195.8835,162962.8517,163729.6706,164496.4941,165246.5686,166012.7657,166021.5468,Mapping
Blocked,Male,tile,13,M_tile.wav,None,730.4506525,105,159913.2546,166779.4075,167546.0294,153729.8134,154496.7709,155246.2882,156012.6306,156779.9096,160662.4665,161429.5621,162195.8835,162962.8517,163729.6706,164496.4941,165246.5686,166012.7657,166788.8187,Mapping
Blocked,Male,tile,13,M_park.wav,space,620.4196519,105,159913.2546,166779.4075,167546.0294,168312.7033,154496.7709,155246.2882,156012.6306,156779.9096,160662.4665,161429.5621,162195.8835,162962.8517,163729.6706,164496.4941,165246.5686,166012.7657,167555.7637,Mapping
Blocked,Male,tile,13,M_tile.wav,None,725.5539825,105,159913.2546,166779.4075,167546.0294,168312.7033,169079.6619,155246.2882,156012.6306,156779.9096,160662.4665,161429.5621,162195.8835,162962.8517,163729.6706,164496.4941,165246.5686,166012.7657,168321.7658,Mapping
Blocked,Male,tile,13,M_dime.wav,space,702.7682973,105,159913.2546,166779.4075,167546.0294,168312.7033,169079.6619,169845.7543,156012.6306,156779.9096,160662.4665,161429.5621,162195.8835,162962.8517,163729.6706,164496.4941,165246.5686,166012.7657,169089.3644,Mapping
Blocked,Male,tile,13,M_cling.wav,None,719.7566938,105,159913.2546,166779.4075,167546.0294,168312.7033,169079.6619,169845.7543,170595.9165,156779.9096,160662.4665,161429.5621,162195.8835,162962.8517,163729.6706,164496.4941,165246.5686,166012.7657,169855.2548,Mapping
Blocked,Male,tile,13,M_bluff.wav,None,733.8595857,105,159913.2546,166779.4075,167546.0294,168312.7033,169079.6619,169845.7543,170595.9165,171362.6145,160662.4665,161429.5621,162195.8835,162962.8517,163729.6706,164496.4941,165246.5686,166012.7657,170605.3438,Mapping
Blocked,Male,cave,7,M_jolt.wav,None,731.7467026,105,174496.1738,166779.4075,167546.0294,168312.7033,169079.6619,169845.7543,170595.9165,171362.6145,160662.4665,161429.5621,162195.8835,162962.8517,163729.6706,164496.4941,165246.5686,166012.7657,171371.8226,Mapping
Blocked,Male,cave,7,M_cave.wav,None,720.4832486,105,174496.1738,166779.4075,167546.0294,168312.7033,169079.6619,169845.7543,170595.9165,171362.6145,175245.4265,161429.5621,162195.8835,162962.8517,163729.6706,164496.4941,165246.5686,166012.7657,174506.1644,Mapping
Blocked,Male,cave,7,M_bluff.wav,space,577.8089148,105,174496.1738,166779.4075,167546.0294,168312.7033,169079.6619,169845.7543,170595.9165,171362.6145,175245.4265,176012.605,162195.8835,162962.8517,163729.6706,164496.4941,165246.5686,166012.7657,175254.2067,Mapping
Blocked,Male,cave,7,M_tile.wav,None,732.9039343,105,174496.1738,166779.4075,167546.0294,168312.7033,169079.6619,169845.7543,170595.9165,171362.6145,175245.4265,176012.605,176779.2417,162962.8517,163729.6706,164496.4941,165246.5686,166012.7657,176021.2442,Mapping
Blocked,Male,cave,7,M_cave.wav,space,475.30935,105,174496.1738,166779.4075,167546.0294,168312.7033,169079.6619,169845.7543,170595.9165,171362.6145,175245.4265,176012.605,176779.2417,177545.7808,163729.6706,164496.4941,165246.5686,166012.7657,176788.703,Mapping
Blocked,Male,cave,7,M_greet.wav,None,731.860478,105,174496.1738,166779.4075,167546.0294,168312.7033,169079.6619,169845.7543,170595.9165,171362.6145,175245.4265,176012.605,176779.2417,177545.7808,178312.8393,164496.4941,165246.5686,166012.7657,177549.7401,Mapping
Blocked,Male,cave,7,M_cling.wav,space,0.033081451,105,174496.1738,166779.4075,167546.0294,168312.7033,169079.6619,169845.7543,170595.9165,171362.6145,175245.4265,176012.605,176779.2417,177545.7808,178312.8393,179079.371,165246.5686,166012.7657,178322.731,Mapping
Blocked,Male,cave,7,M_jaw.wav,None,719.7551479,105,174496.1738,166779.4075,167546.0294,168312.7033,169079.6619,169845.7543,170595.9165,171362.6145,175245.4265,176012.605,176779.2417,177545.7808,178312.8393,179079.371,179828.9369,166012.7657,179089.523,Mapping
Blocked,Male,cave,7,M_lash.wav,None,734.9410703,105,174496.1738,166779.4075,167546.0294,168312.7033,169079.6619,169845.7543,170595.9165,171362.6145,175245.4265,176012.605,176779.2417,177545.7808,178312.8393,179079.371,179828.9369,180595.5081,179838.4646,Mapping
Blocked,Male,cave,7,M_cave.wav,None,733.0087437,105,174496.1738,181362.4133,167546.0294,168312.7033,169079.6619,169845.7543,170595.9165,171362.6145,175245.4265,176012.605,176779.2417,177545.7808,178312.8393,179079.371,179828.9369,180595.5081,180604.4732,Mapping
Blocked,Male,cave,7,M_done.wav,space,572.1804341,105,174496.1738,181362.4133,182129.008,168312.7033,169079.6619,169845.7543,170595.9165,171362.6145,175245.4265,176012.605,176779.2417,177545.7808,178312.8393,179079.371,179828.9369,180595.5081,181371.6915,Mapping
Blocked,Male,cave,7,M_cave.wav,None,726.6821521,105,174496.1738,181362.4133,182129.008,182896.1657,169079.6619,169845.7543,170595.9165,171362.6145,175245.4265,176012.605,176779.2417,177545.7808,178312.8393,179079.371,179828.9369,180595.5081,182138.4173,Mapping
Blocked,Male,cave,7,M_cling.wav,space,373.7595623,105,174496.1738,181362.4133,182129.008,182896.1657,183662.2794,169845.7543,170595.9165,171362.6145,175245.4265,176012.605,176779.2417,177545.7808,178312.8393,179079.371,179828.9369,180595.5081,182906.0249,Mapping
Blocked,Male,cave,7,M_tile.wav,None,721.6188383,105,174496.1738,181362.4133,182129.008,182896.1657,183662.2794,184411.9157,170595.9165,171362.6145,175245.4265,176012.605,176779.2417,177545.7808,178312.8393,179079.371,179828.9369,180595.5081,183671.0948,Mapping
Blocked,Male,cave,7,M_knife.wav,None,735.9056876,105,174496.1738,181362.4133,182129.008,182896.1657,183662.2794,184411.9157,185179.007,171362.6145,175245.4265,176012.605,176779.2417,177545.7808,178312.8393,179079.371,179828.9369,180595.5081,184420.8001,Mapping
Blocked,Male,cave,7,M_gnash.wav,None,732.5854869,105,174496.1738,181362.4133,182129.008,182896.1657,183662.2794,184411.9157,185179.007,185945.6079,175245.4265,176012.605,176779.2417,177545.7808,178312.8393,179079.371,179828.9369,180595.5081,185188.5032,Mapping
Blocked,Male,ball,3,M_greet.wav,None,729.8335448,105,189079.1101,181362.4133,182129.008,182896.1657,183662.2794,184411.9157,185179.007,185945.6079,175245.4265,176012.605,176779.2417,177545.7808,178312.8393,179079.371,179828.9369,180595.5081,185955.302,Mapping
Blocked,Male,ball,3,M_priest.wav,None,720.1311014,105,189079.1101,181362.4133,182129.008,182896.1657,183662.2794,184411.9157,185179.007,185945.6079,189828.4103,176012.605,176779.2417,177545.7808,178312.8393,179079.371,179828.9369,180595.5081,189089.3007,Mapping
Blocked,Male,ball,3,M_ball.wav,None,735.9174362,105,189079.1101,181362.4133,182129.008,182896.1657,183662.2794,184411.9157,185179.007,185945.6079,189828.4103,190595.6673,176779.2417,177545.7808,178312.8393,179079.371,179828.9369,180595.5081,189837.6215,Mapping
Blocked,Male,ball,3,M_cad.wav,space,362.3201893,105,189079.1101,181362.4133,182129.008,182896.1657,183662.2794,184411.9157,185179.007,185945.6079,189828.4103,190595.6673,191362.1647,177545.7808,178312.8393,179079.371,179828.9369,180595.5081,190605.337,Mapping
Blocked,Male,ball,3,M_ball.wav,None,729.8861041,105,189079.1101,181362.4133,182129.008,182896.1657,183662.2794,184411.9157,185179.007,185945.6079,189828.4103,190595.6673,191362.1647,192128.7845,178312.8393,179079.371,179828.9369,180595.5081,191371.2803,Mapping
Blocked,Male,ball,3,M_greet.wav,None,727.2105274,105,189079.1101,181362.4133,182129.008,182896.1657,183662.2794,184411.9157,185179.007,185945.6079,189828.4103,190595.6673,191362.1647,192128.7845,192895.5625,179079.371,179828.9369,180595.5081,192138.1202,Mapping
Blocked,Male,ball,3,M_park.wav,space,6.58227707,105,189079.1101,181362.4133,182129.008,182896.1657,183662.2794,184411.9157,185179.007,185945.6079,189828.4103,190595.6673,191362.1647,192128.7845,192895.5625,193661.718,179828.9369,180595.5081,192905.0362,Mapping
Blocked,Male,ball,3,M_ball.wav,None,724.4496193,105,189079.1101,181362.4133,182129.008,182896.1657,183662.2794,184411.9157,185179.007,185945.6079,189828.4103,190595.6673,191362.1647,192128.7845,192895.5625,193661.718,194429.1623,180595.5081,193670.6447,Mapping
Blocked,Male,ball,3,M_jolt.wav,space,384.8103058,105,189079.1101,181362.4133,182129.008,182896.1657,183662.2794,184411.9157,185179.007,185945.6079,189828.4103,190595.6673,191362.1647,192128.7845,192895.5625,193661.718,194429.1623,195178.4956,194438.7451,Mapping
Blocked,Male,ball,3,M_ball.wav,None,735.1664568,105,189079.1101,195945.4976,182129.008,182896.1657,183662.2794,184411.9157,185179.007,185945.6079,189828.4103,190595.6673,191362.1647,192128.7845,192895.5625,193661.718,194429.1623,195178.4956,195187.7717,Mapping
Blocked,Male,ball,3,M_bluff.wav,space,452.4148362,105,189079.1101,195945.4976,196712.1674,182896.1657,183662.2794,184411.9157,185179.007,185945.6079,189828.4103,190595.6673,191362.1647,192128.7845,192895.5625,193661.718,194429.1623,195178.4956,195955.0989,Mapping
Blocked,Male,ball,3,M_tile.wav,None,728.8556329,105,189079.1101,195945.4976,196712.1674,197478.7149,183662.2794,184411.9157,185179.007,185945.6079,189828.4103,190595.6673,191362.1647,192128.7845,192895.5625,193661.718,194429.1623,195178.4956,196721.7422,Mapping
Blocked,Male,ball,3,M_romp.wav,None,727.2343338,105,189079.1101,195945.4976,196712.1674,197478.7149,198245.6847,184411.9157,185179.007,185945.6079,189828.4103,190595.6673,191362.1647,192128.7845,192895.5625,193661.718,194429.1623,195178.4956,197487.6577,Mapping
Blocked,Male,ball,3,M_gnash.wav,None,723.5666234,105,189079.1101,195945.4976,196712.1674,197478.7149,198245.6847,199011.913,185179.007,185945.6079,189828.4103,190595.6673,191362.1647,192128.7845,192895.5625,193661.718,194429.1623,195178.4956,198255.6205,Mapping
Blocked,Male,ball,3,M_lash.wav,None,723.285895,105,189079.1101,195945.4976,196712.1674,197478.7149,198245.6847,199011.913,199779.0627,185945.6079,189828.4103,190595.6673,191362.1647,192128.7845,192895.5625,193661.718,194429.1623,195178.4956,199020.5522,Mapping
Blocked,Male,ball,3,M_jaw.wav,None,718.9565561,105,189079.1101,195945.4976,196712.1674,197478.7149,198245.6847,199011.913,199779.0627,200528.3652,189828.4103,190595.6673,191362.1647,192128.7845,192895.5625,193661.718,194429.1623,195178.4956,199789.1455,Mapping
Blocked,Male,done,20,M_depth.wav,None,735.2808505,105,203662.2822,195945.4976,196712.1674,197478.7149,198245.6847,199011.913,199779.0627,200528.3652,189828.4103,190595.6673,191362.1647,192128.7845,192895.5625,193661.718,194429.1623,195178.4956,200537.6827,Mapping
Blocked,Male,done,20,M_gnash.wav,None,720.8146812,105,203662.2822,195945.4976,196712.1674,197478.7149,198245.6847,199011.913,199779.0627,200528.3652,204411.989,190595.6673,191362.1647,192128.7845,192895.5625,193661.718,194429.1623,195178.4956,203671.9157,Mapping
Blocked,Male,done,20,M_cling.wav,None,735.7786178,105,203662.2822,195945.4976,196712.1674,197478.7149,198245.6847,199011.913,199779.0627,200528.3652,204411.989,205178.5649,191362.1647,192128.7845,192895.5625,193661.718,194429.1623,195178.4956,204421.2691,Mapping
Blocked,Male,done,20,M_dime.wav,None,733.2879262,105,203662.2822,195945.4976,196712.1674,197478.7149,198245.6847,199011.913,199779.0627,200528.3652,204411.989,205178.5649,205945.3152,192128.7845,192895.5625,193661.718,194429.1623,195178.4956,205187.9804,Mapping
Blocked,Male,done,20,M_priest.wav,None,730.5570078,105,203662.2822,195945.4976,196712.1674,197478.7149,198245.6847,199011.913,199779.0627,200528.3652,204411.989,205178.5649,205945.3152,206712.0042,192895.5625,193661.718,194429.1623,195178.4956,205954.65,Mapping
Blocked,Male,done,20,M_done.wav,None,727.9061649,105,203662.2822,195945.4976,196712.1674,197478.7149,198245.6847,199011.913,199779.0627,200528.3652,204411.989,205178.5649,205945.3152,206712.0042,207478.5322,193661.718,194429.1623,195178.4956,206721.5412,Mapping
Blocked,Male,done,20,M_romp.wav,space,383.3176222,105,203662.2822,195945.4976,196712.1674,197478.7149,198245.6847,199011.913,199779.0627,200528.3652,204411.989,205178.5649,205945.3152,206712.0042,207478.5322,208245.5196,194429.1623,195178.4956,207488.0098,Mapping
Blocked,Male,done,20,M_done.wav,None,722.3682718,105,203662.2822,195945.4976,196712.1674,197478.7149,198245.6847,199011.913,199779.0627,200528.3652,204411.989,205178.5649,205945.3152,206712.0042,207478.5322,208245.5196,209011.8759,195178.4956,208255.5058,Mapping
Blocked,Male,done,20,M_priest.wav,space,434.2203588,105,203662.2822,195945.4976,196712.1674,197478.7149,198245.6847,199011.913,199779.0627,200528.3652,204411.989,205178.5649,205945.3152,206712.0042,207478.5322,208245.5196,209011.8759,209761.596,209021.0457,Mapping
Blocked,Male,done,20,M_ball.wav,None,734.7221763,105,203662.2822,210528.4777,196712.1674,197478.7149,198245.6847,199011.913,199779.0627,200528.3652,204411.989,205178.5649,205945.3152,206712.0042,207478.5322,208245.5196,209011.8759,209761.596,209771.1331,Mapping
Blocked,Male,done,20,M_priest.wav,None,732.3189804,105,203662.2822,210528.4777,211295.0409,197478.7149,198245.6847,199011.913,199779.0627,200528.3652,204411.989,205178.5649,205945.3152,206712.0042,207478.5322,208245.5196,209011.8759,209761.596,210537.7906,Mapping
Blocked,Male,done,20,M_done.wav,None,729.5537439,105,203662.2822,210528.4777,211295.0409,212061.8533,198245.6847,199011.913,199779.0627,200528.3652,204411.989,205178.5649,205945.3152,206712.0042,207478.5322,208245.5196,209011.8759,209761.596,211304.7529,Mapping
Blocked,Male,done,20,M_lash.wav,space,584.0019441,105,203662.2822,210528.4777,211295.0409,212061.8533,212828.3841,199011.913,199779.0627,200528.3652,204411.989,205178.5649,205945.3152,206712.0042,207478.5322,208245.5196,209011.8759,209761.596,212071.2021,Mapping
Blocked,Male,done,20,M_lash.wav,None,724.716435,105,203662.2822,210528.4777,211295.0409,212061.8533,212828.3841,213595.1739,199779.0627,200528.3652,204411.989,205178.5649,205945.3152,206712.0042,207478.5322,208245.5196,209011.8759,209761.596,212837.824,Mapping
Blocked,Male,done,20,M_done.wav,None,722.2313085,105,203662.2822,210528.4777,211295.0409,212061.8533,212828.3841,213595.1739,214362.1888,200528.3652,204411.989,205178.5649,205945.3152,206712.0042,207478.5322,208245.5196,209011.8759,209761.596,213604.513,Mapping
Blocked,Male,done,20,M_romp.wav,space,635.2453885,105,203662.2822,210528.4777,211295.0409,212061.8533,212828.3841,213595.1739,214362.1888,215111.5735,204411.989,205178.5649,205945.3152,206712.0042,207478.5322,208245.5196,209011.8759,209761.596,214371.9364,Mapping
Blocked,Male,tile,16,M_bluff.wav,None,734.0382873,105,218245.3149,210528.4777,211295.0409,212061.8533,212828.3841,213595.1739,214362.1888,215111.5735,204411.989,205178.5649,205945.3152,206712.0042,207478.5322,208245.5196,209011.8759,209761.596,215120.9612,Mapping
Blocked,Male,tile,16,M_reek.wav,None,720.5651792,105,218245.3149,210528.4777,211295.0409,212061.8533,212828.3841,213595.1739,214362.1888,215111.5735,219012.0896,205178.5649,205945.3152,206712.0042,207478.5322,208245.5196,209011.8759,209761.596,218255.2869,Mapping
Blocked,Male,tile,16,M_bluff.wav,None,719.0190088,105,218245.3149,210528.4777,211295.0409,212061.8533,212828.3841,213595.1739,214362.1888,215111.5735,219012.0896,219761.4044,205945.3152,206712.0042,207478.5322,208245.5196,209011.8759,209761.596,219021.5651,Mapping
Blocked,Male,tile,16,M_jaw.wav,None,734.1873083,105,218245.3149,210528.4777,211295.0409,212061.8533,212828.3841,213595.1739,214362.1888,215111.5735,219012.0896,219761.4044,220528.2597,206712.0042,207478.5322,208245.5196,209011.8759,209761.596,219770.9003,Mapping
Blocked,Male,tile,16,M_jaw.wav,None,731.851512,105,218245.3149,210528.4777,211295.0409,212061.8533,212828.3841,213595.1739,214362.1888,215111.5735,219012.0896,219761.4044,220528.2597,221294.8498,207478.5322,208245.5196,209011.8759,209761.596,220537.5955,Mapping
Blocked,Male,tile,16,M_tile.wav,None,729.5769318,105,218245.3149,210528.4777,211295.0409,212061.8533,212828.3841,213595.1739,214362.1888,215111.5735,219012.0896,219761.4044,220528.2597,221294.8498,222061.4798,208245.5196,209011.8759,209761.596,221304.0938,Mapping
Blocked,Male,tile,16,M_bluff.wav,space,584.1305597,105,218245.3149,210528.4777,211295.0409,212061.8533,212828.3841,213595.1739,214362.1888,215111.5735,219012.0896,219761.4044,220528.2597,221294.8498,222061.4798,222828.282,209011.8759,209761.596,222070.8836,Mapping
Blocked,Male,tile,16,M_park.wav,None,724.0560431,105,218245.3149,210528.4777,211295.0409,212061.8533,212828.3841,213595.1739,214362.1888,215111.5735,219012.0896,219761.4044,220528.2597,221294.8498,222061.4798,222828.282,223595.2413,209761.596,222837.807,Mapping
Blocked,Male,tile,16,M_tile.wav,None,721.4024177,105,218245.3149,210528.4777,211295.0409,212061.8533,212828.3841,213595.1739,214362.1888,215111.5735,219012.0896,219761.4044,220528.2597,221294.8498,222061.4798,222828.282,223595.2413,224361.9115,223604.8791,Mapping
Blocked,Male,tile,16,M_bluff.wav,space,443.3938084,105,218245.3149,225111.5274,211295.0409,212061.8533,212828.3841,213595.1739,214362.1888,215111.5735,219012.0896,219761.4044,220528.2597,221294.8498,222061.4798,222828.282,223595.2413,224361.9115,224371.5511,Mapping
Blocked,Male,tile,16,M_ball.wav,None,733.9208018,105,218245.3149,225111.5274,225878.1524,212061.8533,212828.3841,213595.1739,214362.1888,215111.5735,219012.0896,219761.4044,220528.2597,221294.8498,222061.4798,222828.282,223595.2413,224361.9115,225120.2618,Mapping
Blocked,Male,tile,16,M_reek.wav,None,731.0093268,105,218245.3149,225111.5274,225878.1524,226644.7438,212828.3841,213595.1739,214362.1888,215111.5735,219012.0896,219761.4044,220528.2597,221294.8498,222061.4798,222828.282,223595.2413,224361.9115,225887.418,Mapping
Blocked,Male,tile,16,M_tile.wav,None,728.721143,105,218245.3149,225111.5274,225878.1524,226644.7438,227411.4192,213595.1739,214362.1888,215111.5735,219012.0896,219761.4044,220528.2597,221294.8498,222061.4798,222828.282,223595.2413,224361.9115,226654.1405,Mapping
Blocked,Male,tile,16,M_park.wav,space,570.3114879,105,218245.3149,225111.5274,225878.1524,226644.7438,227411.4192,228178.563,214362.1888,215111.5735,219012.0896,219761.4044,220528.2597,221294.8498,222061.4798,222828.282,223595.2413,224361.9115,227420.5961,Mapping
Blocked,Male,tile,16,M_tile.wav,None,723.1350189,105,218245.3149,225111.5274,225878.1524,226644.7438,227411.4192,228178.563,228945.0644,215111.5735,219012.0896,219761.4044,220528.2597,221294.8498,222061.4798,222828.282,223595.2413,224361.9115,228187.9736,Mapping
Blocked,Male,tile,16,M_cad.wav,space,371.8420761,105,218245.3149,225111.5274,225878.1524,226644.7438,227411.4192,228178.563,228945.0644,229694.7004,219012.0896,219761.4044,220528.2597,221294.8498,222061.4798,222828.282,223595.2413,224361.9115,228955.0266,Mapping
Blocked,Male,ball,2,M_cling.wav,None,734.8681056,105,232828.2023,225111.5274,225878.1524,226644.7438,227411.4192,228178.563,228945.0644,229694.7004,219012.0896,219761.4044,220528.2597,221294.8498,222061.4798,222828.282,223595.2413,224361.9115,229704.0362,Mapping
Blocked,Male,ball,2,M_done.wav,None,720.6681336,105,232828.2023,225111.5274,225878.1524,226644.7438,227411.4192,228178.563,228945.0644,229694.7004,233595.049,219761.4044,220528.2597,221294.8498,222061.4798,222828.282,223595.2413,224361.9115,232838.5085,Mapping
Blocked,Male,ball,2,M_ball.wav,None,718.6612965,105,232828.2023,225111.5274,225878.1524,226644.7438,227411.4192,228178.563,228945.0644,229694.7004,233595.049,234344.6086,220528.2597,221294.8498,222061.4798,222828.282,223595.2413,224361.9115,233604.9363,Mapping
Blocked,Male,ball,2,M_reek.wav,space,428.807062,105,232828.2023,225111.5274,225878.1524,226644.7438,227411.4192,228178.563,228945.0644,229694.7004,233595.049,234344.6086,235110.8519,221294.8498,222061.4798,222828.282,223595.2413,224361.9115,234353.9592,Mapping
Blocked,Male,ball,2,M_ball.wav,None,732.2639478,105,232828.2023,225111.5274,225878.1524,226644.7438,227411.4192,228178.563,228945.0644,229694.7004,233595.049,234344.6086,235110.8519,235877.9079,222061.4798,222828.282,223595.2413,224361.9115,235119.7517,Mapping
Blocked,Male,ball,2,M_bluff.wav,space,631.35662,105,232828.2023,225111.5274,225878.1524,226644.7438,227411.4192,228178.563,228945.0644,229694.7004,233595.049,234344.6086,235110.8519,235877.9079,236644.5876,222828.282,223595.2413,224361.9115,235887.3577,Mapping
Blocked,Male,ball,2,M_greet.wav,None,726.1939691,105,232828.2023,225111.5274,225878.1524,226644.7438,227411.4192,228178.563,228945.0644,229694.7004,233595.049,234344.6086,235110.8519,235877.9079,236644.5876,237411.3868,223595.2413,224361.9115,236654.3943,Mapping
Blocked,Male,ball,2,M_dime.wav,None,724.5986403,105,232828.2023,225111.5274,225878.1524,226644.7438,227411.4192,228178.563,228945.0644,229694.7004,233595.049,234344.6086,235110.8519,235877.9079,236644.5876,237411.3868,238177.8921,224361.9115,237420.8607,Mapping
Blocked,Male,ball,2,M_cave.wav,None,722.6891926,105,232828.2023,225111.5274,225878.1524,226644.7438,227411.4192,228178.563,228945.0644,229694.7004,233595.049,234344.6086,235110.8519,235877.9079,236644.5876,237411.3868,238177.8921,238944.6699,238187.5093,Mapping
Blocked,Male,ball,2,M_depth.wav,None,720.7683054,105,232828.2023,239694.3174,225878.1524,226644.7438,227411.4192,228178.563,228945.0644,229694.7004,233595.049,234344.6086,235110.8519,235877.9079,236644.5876,237411.3868,238177.8921,238944.6699,238953.9859,Mapping
Blocked,Male,ball,2,M_cad.wav,None,734.8121454,105,232828.2023,239694.3174,240461.1258,226644.7438,227411.4192,228178.563,228945.0644,229694.7004,233595.049,234344.6086,235110.8519,235877.9079,236644.5876,237411.3868,238177.8921,238944.6699,239704.3377,Mapping
Blocked,Male,ball,2,M_ball.wav,None,733.1163356,105,232828.2023,239694.3174,240461.1258,241227.5474,227411.4192,228178.563,228945.0644,229694.7004,233595.049,234344.6086,235110.8519,235877.9079,236644.5876,237411.3868,238177.8921,238944.6699,240470.5843,Mapping
Blocked,Male,ball,2,M_reek.wav,space,585.8115292,105,232828.2023,239694.3174,240461.1258,241227.5474,241994.4915,228178.563,228945.0644,229694.7004,233595.049,234344.6086,235110.8519,235877.9079,236644.5876,237411.3868,238177.8921,238944.6699,241236.8037,Mapping
Blocked,Male,ball,2,M_ball.wav,None,727.7509605,105,232828.2023,239694.3174,240461.1258,241227.5474,241994.4915,242761.4408,228945.0644,229694.7004,233595.049,234344.6086,235110.8519,235877.9079,236644.5876,237411.3868,238177.8921,238944.6699,242004.1649,Mapping
Blocked,Male,ball,2,M_cad.wav,None,725.0123128,105,232828.2023,239694.3174,240461.1258,241227.5474,241994.4915,242761.4408,243527.9564,229694.7004,233595.049,234344.6086,235110.8519,235877.9079,236644.5876,237411.3868,238177.8921,238944.6699,242771.2877,Mapping
Blocked,Male,ball,2,M_bluff.wav,space,213.01071,105,232828.2023,239694.3174,240461.1258,241227.5474,241994.4915,242761.4408,243527.9564,244294.472,233595.049,234344.6086,235110.8519,235877.9079,236644.5876,237411.3868,238177.8921,238944.6699,243537.5553,Mapping
Blocked,Male,done,23,M_reek.wav,None,720.241785,105,247411.3871,239694.3174,240461.1258,241227.5474,241994.4915,242761.4408,243527.9564,244294.472,233595.049,234344.6086,235110.8519,235877.9079,236644.5876,237411.3868,238177.8921,238944.6699,244304.33,Mapping
Blocked,Male,done,23,M_jaw.wav,None,720.2071578,105,247411.3871,239694.3174,240461.1258,241227.5474,241994.4915,242761.4408,243527.9564,244294.472,248160.7204,234344.6086,235110.8519,235877.9079,236644.5876,237411.3868,238177.8921,238944.6699,247421.0629,Mapping
Blocked,Male,done,23,M_done.wav,None,735.443166,105,247411.3871,239694.3174,240461.1258,241227.5474,241994.4915,242761.4408,243527.9564,244294.472,248160.7204,248927.6914,235110.8519,235877.9079,236644.5876,237411.3868,238177.8921,238944.6699,248170.4788,Mapping
Blocked,Male,done,23,M_romp.wav,space,613.2415999,105,247411.3871,239694.3174,240461.1258,241227.5474,241994.4915,242761.4408,243527.9564,244294.472,248160.7204,248927.6914,249694.2722,235877.9079,236644.5876,237411.3868,238177.8921,238944.6699,248937.2148,Mapping
Blocked,Male,done,23,M_cave.wav,None,730.4287013,105,247411.3871,239694.3174,240461.1258,241227.5474,241994.4915,242761.4408,243527.9564,244294.472,248160.7204,248927.6914,249694.2722,250460.5414,236644.5876,237411.3868,238177.8921,238944.6699,249703.599,Mapping
Blocked,Male,done,23,M_done.wav,None,729.035262,105,247411.3871,239694.3174,240461.1258,241227.5474,241994.4915,242761.4408,243527.9564,244294.472,248160.7204,248927.6914,249694.2722,250460.5414,251227.5687,237411.3868,238177.8921,238944.6699,250469.3269,Mapping
Blocked,Male,done,23,M_tile.wav,space,489.2765153,105,247411.3871,239694.3174,240461.1258,241227.5474,241994.4915,242761.4408,243527.9564,244294.472,248160.7204,248927.6914,249694.2722,250460.5414,251227.5687,251994.4661,238177.8921,238944.6699,251237.1209,Mapping
Blocked,Male,done,23,M_priest.wav,None,722.6248847,105,247411.3871,239694.3174,240461.1258,241227.5474,241994.4915,242761.4408,243527.9564,244294.472,248160.7204,248927.6914,249694.2722,250460.5414,251227.5687,251994.4661,252761.1558,238944.6699,252003.8585,Mapping
Blocked,Male,done,23,M_jaw.wav,None,719.8339869,105,247411.3871,239694.3174,240461.1258,241227.5474,241994.4915,242761.4408,243527.9564,244294.472,248160.7204,248927.6914,249694.2722,250460.5414,251227.5687,251994.4661,252761.1558,253510.8663,252771.4716,Mapping
Blocked,Male,done,23,M_done.wav,None,735.9554644,105,247411.3871,254277.215,240461.1258,241227.5474,241994.4915,242761.4408,243527.9564,244294.472,248160.7204,248927.6914,249694.2722,250460.5414,251227.5687,251994.4661,252761.1558,253510.8663,253520.0358,Mapping
Blocked,Male,done,23,M_knife.wav,None,734.228119,105,247411.3871,254277.215,255044.1773,241227.5474,241994.4915,242761.4408,243527.9564,244294.472,248160.7204,248927.6914,249694.2722,250460.5414,251227.5687,251994.4661,252761.1558,253510.8663,254286.4283,Mapping
Blocked,Male,done,23,M_reek.wav,space,0.036173151,105,247411.3871,254277.215,255044.1773,255810.4443,241994.4915,242761.4408,243527.9564,244294.472,248160.7204,248927.6914,249694.2722,250460.5414,251227.5687,251994.4661,252761.1558,253510.8663,255053.4995,Mapping
Blocked,Male,done,23,M_done.wav,None,729.6115591,105,247411.3871,254277.215,255044.1773,255810.4443,256577.5059,242761.4408,243527.9564,244294.472,248160.7204,248927.6914,249694.2722,250460.5414,251227.5687,251994.4661,252761.1558,253510.8663,255819.5037,Mapping
Blocked,Male,done,23,M_greet.wav,space,563.4382798,105,247411.3871,254277.215,255044.1773,255810.4443,256577.5059,257344.4816,243527.9564,244294.472,248160.7204,248927.6914,249694.2722,250460.5414,251227.5687,251994.4661,252761.1558,253510.8663,256586.7718,Mapping
Blocked,Male,done,23,M_tile.wav,None,722.7531913,105,247411.3871,254277.215,255044.1773,255810.4443,256577.5059,257344.4816,258111.2909,244294.472,248160.7204,248927.6914,249694.2722,250460.5414,251227.5687,251994.4661,252761.1558,253510.8663,257354.6994,Mapping
Blocked,Male,done,23,M_gnash.wav,None,721.6887111,105,247411.3871,254277.215,255044.1773,255810.4443,256577.5059,257344.4816,258111.2909,258877.7437,248160.7204,248927.6914,249694.2722,250460.5414,251227.5687,251994.4661,252761.1558,253510.8663,258120.934,Mapping
Blocked,Male,ball,5,M_cling.wav,None,719.737216,105,261994.5474,254277.215,255044.1773,255810.4443,256577.5059,257344.4816,258111.2909,258877.7437,248160.7204,248927.6914,249694.2722,250460.5414,251227.5687,251994.4661,252761.1558,253510.8663,258887.5185,Mapping
Blocked,Male,ball,5,M_reek.wav,None,719.6432276,105,261994.5474,254277.215,255044.1773,255810.4443,256577.5059,257344.4816,258111.2909,258877.7437,262743.5636,248927.6914,249694.2722,250460.5414,251227.5687,251994.4661,252761.1558,253510.8663,262004.3448,Mapping
Blocked,Male,ball,5,M_done.wav,None,736.0673847,105,261994.5474,254277.215,255044.1773,255810.4443,256577.5059,257344.4816,258111.2909,258877.7437,262743.5636,263510.7624,249694.2722,250460.5414,251227.5687,251994.4661,252761.1558,253510.8663,262752.5426,Mapping
Blocked,Male,ball,5,M_ball.wav,None,733.3615093,105,261994.5474,254277.215,255044.1773,255810.4443,256577.5059,257344.4816,258111.2909,258877.7437,262743.5636,263510.7624,264277.3525,250460.5414,251227.5687,251994.4661,252761.1558,253510.8663,263519.9245,Mapping
Blocked,Male,ball,5,M_knife.wav,space,310.8566143,105,261994.5474,254277.215,255044.1773,255810.4443,256577.5059,257344.4816,258111.2909,258877.7437,262743.5636,263510.7624,264277.3525,265044.0032,251227.5687,251994.4661,252761.1558,253510.8663,264287.2819,Mapping
Blocked,Male,ball,5,M_priest.wav,None,728.541514,105,261994.5474,254277.215,255044.1773,255810.4443,256577.5059,257344.4816,258111.2909,258877.7437,262743.5636,263510.7624,264277.3525,265044.0032,265810.6394,251994.4661,252761.1558,253510.8663,265053.3288,Mapping
Blocked,Male,ball,5,M_ball.wav,None,726.403897,105,261994.5474,254277.215,255044.1773,255810.4443,256577.5059,257344.4816,258111.2909,258877.7437,262743.5636,263510.7624,264277.3525,265044.0032,265810.6394,266577.2475,252761.1558,253510.8663,265820.1462,Mapping
Blocked,Male,ball,5,M_gnash.wav,space,523.6323534,105,261994.5474,254277.215,255044.1773,255810.4443,256577.5059,257344.4816,258111.2909,258877.7437,262743.5636,263510.7624,264277.3525,265044.0032,265810.6394,266577.2475,267344.1062,253510.8663,266586.4596,Mapping
Blocked,Male,ball,5,M_cling.wav,None,720.6338155,105,261994.5474,254277.215,255044.1773,255810.4443,256577.5059,257344.4816,258111.2909,258877.7437,262743.5636,263510.7624,264277.3525,265044.0032,265810.6394,266577.2475,267344.1062,268110.859,267354.5609,Mapping
Blocked,Male,ball,5,M_dime.wav,None,719.2910804,105,261994.5474,268860.5955,255044.1773,255810.4443,256577.5059,257344.4816,258111.2909,258877.7437,262743.5636,263510.7624,264277.3525,265044.0032,265810.6394,266577.2475,267344.1062,268110.859,268120.6934,Mapping
Blocked,Male,ball,5,M_ball.wav,None,734.5193593,105,261994.5474,268860.5955,269627.1797,255810.4443,256577.5059,257344.4816,258111.2909,258877.7437,262743.5636,263510.7624,264277.3525,265044.0032,265810.6394,266577.2475,267344.1062,268110.859,268870.1421,Mapping
Blocked,Male,ball,5,M_gnash.wav,space,417.8744223,105,261994.5474,268860.5955,269627.1797,270393.4776,256577.5059,257344.4816,258111.2909,258877.7437,262743.5636,263510.7624,264277.3525,265044.0032,265810.6394,266577.2475,267344.1062,268110.859,269636.1584,Mapping
Blocked,Male,ball,5,M_ball.wav,None,730.4206628,105,261994.5474,268860.5955,269627.1797,270393.4776,271160.6224,257344.4816,258111.2909,258877.7437,262743.5636,263510.7624,264277.3525,265044.0032,265810.6394,266577.2475,267344.1062,268110.859,270402.6947,Mapping
Blocked,Male,ball,5,M_lash.wav,space,707.9218895,105,261994.5474,268860.5955,269627.1797,270393.4776,271160.6224,271927.1204,258111.2909,258877.7437,262743.5636,263510.7624,264277.3525,265044.0032,265810.6394,266577.2475,267344.1062,268110.859,271170.0593,Mapping
Blocked,Male,ball,5,M_dime.wav,None,725.4420622,105,261994.5474,268860.5955,269627.1797,270393.4776,271160.6224,271927.1204,272694.1322,258877.7437,262743.5636,263510.7624,264277.3525,265044.0032,265810.6394,266577.2475,267344.1062,268110.859,271936.304,Mapping
Blocked,Male,ball,5,M_depth.wav,None,722.2189415,105,261994.5474,268860.5955,269627.1797,270393.4776,271160.6224,271927.1204,272694.1322,273461.1997,262743.5636,263510.7624,264277.3525,265044.0032,265810.6394,266577.2475,267344.1062,268110.859,272704.0746,Mapping
Blocked,Male,done,22,M_greet.wav,None,719.7492737,105,276577.4011,268860.5955,269627.1797,270393.4776,271160.6224,271927.1204,272694.1322,273461.1997,262743.5636,263510.7624,264277.3525,265044.0032,265810.6394,266577.2475,267344.1062,268110.859,273471.2332,Mapping
Blocked,Male,done,22,M_jaw.wav,None,721.1659009,105,276577.4011,268860.5955,269627.1797,270393.4776,271160.6224,271927.1204,272694.1322,273461.1997,277344.2444,263510.7624,264277.3525,265044.0032,265810.6394,266577.2475,267344.1062,268110.859,276586.8834,Mapping
Blocked,Male,done,22,M_depth.wav,None,718.2538076,105,276577.4011,268860.5955,269627.1797,270393.4776,271160.6224,271927.1204,272694.1322,273461.1997,277344.2444,278093.5994,264277.3525,265044.0032,265810.6394,266577.2475,267344.1062,268110.859,277354.4072,Mapping
Blocked,Male,done,22,M_dime.wav,None,734.3904344,105,276577.4011,268860.5955,269627.1797,270393.4776,271160.6224,271927.1204,272694.1322,273461.1997,277344.2444,278093.5994,278860.3079,265044.0032,265810.6394,266577.2475,267344.1062,268110.859,278103.3649,Mapping
Blocked,Male,done,22,M_knife.wav,None,732.5357102,105,276577.4011,268860.5955,269627.1797,270393.4776,271160.6224,271927.1204,272694.1322,273461.1997,277344.2444,278093.5994,278860.3079,279626.9472,265810.6394,266577.2475,267344.1062,268110.859,278870.0357,Mapping
Blocked,Male,done,22,M_done.wav,None,730.9239953,105,276577.4011,268860.5955,269627.1797,270393.4776,271160.6224,271927.1204,272694.1322,273461.1997,277344.2444,278093.5994,278860.3079,279626.9472,280393.6468,266577.2475,267344.1062,268110.859,279636.4663,Mapping
Blocked,Male,done,22,M_park.wav,space,338.4700241,105,276577.4011,268860.5955,269627.1797,270393.4776,271160.6224,271927.1204,272694.1322,273461.1997,277344.2444,278093.5994,278860.3079,279626.9472,280393.6468,281160.2681,267344.1062,268110.859,280403.3554,Mapping
Blocked,Male,done,22,M_ball.wav,None,725.7985378,105,276577.4011,268860.5955,269627.1797,270393.4776,271160.6224,271927.1204,272694.1322,273461.1997,277344.2444,278093.5994,278860.3079,279626.9472,280393.6468,281160.2681,281927.0925,268110.859,281169.8846,Mapping
Blocked,Male,done,22,M_jolt.wav,None,723.1000824,105,276577.4011,268860.5955,269627.1797,270393.4776,271160.6224,271927.1204,272694.1322,273461.1997,277344.2444,278093.5994,278860.3079,279626.9472,280393.6468,281160.2681,281927.0925,282693.9229,281937.5518,Mapping
Blocked,Male,done,22,M_done.wav,None,721.6163648,105,276577.4011,283461.0939,269627.1797,270393.4776,271160.6224,271927.1204,272694.1322,273461.1997,277344.2444,278093.5994,278860.3079,279626.9472,280393.6468,281160.2681,281927.0925,282693.9229,282703.8322,Mapping
Blocked,Male,done,22,M_priest.wav,space,494.879953,105,276577.4011,283461.0939,284210.1861,270393.4776,271160.6224,271927.1204,272694.1322,273461.1997,277344.2444,278093.5994,278860.3079,279626.9472,280393.6468,281160.2681,281927.0925,282693.9229,283470.8529,Mapping
Blocked,Male,done,22,M_done.wav,None,734.0219012,105,276577.4011,283461.0939,284210.1861,284976.8319,271160.6224,271927.1204,272694.1322,273461.1997,277344.2444,278093.5994,278860.3079,279626.9472,280393.6468,281160.2681,281927.0925,282693.9229,284219.5064,Mapping
Blocked,Male,done,22,M_cave.wav,space,498.8237542,105,276577.4011,283461.0939,284210.1861,284976.8319,285743.4612,271927.1204,272694.1322,273461.1997,277344.2444,278093.5994,278860.3079,279626.9472,280393.6468,281160.2681,281927.0925,282693.9229,284986.8432,Mapping
Blocked,Male,done,22,M_done.wav,None,729.0989515,105,276577.4011,283461.0939,284210.1861,284976.8319,285743.4612,286510.1797,272694.1322,273461.1997,277344.2444,278093.5994,278860.3079,279626.9472,280393.6468,281160.2681,281927.0925,282693.9229,285752.8993,Mapping
Blocked,Male,done,22,M_gnash.wav,space,422.2198381,105,276577.4011,283461.0939,284210.1861,284976.8319,285743.4612,286510.1797,287276.4105,273461.1997,277344.2444,278093.5994,278860.3079,279626.9472,280393.6468,281160.2681,281927.0925,282693.9229,286519.3982,Mapping
Blocked,Male,done,22,M_cling.wav,None,725.190396,105,276577.4011,283461.0939,284210.1861,284976.8319,285743.4612,286510.1797,287276.4105,288043.6483,277344.2444,278093.5994,278860.3079,279626.9472,280393.6468,281160.2681,281927.0925,282693.9229,287285.8341,Mapping
Blocked,Male,cave,12,M_knife.wav,None,723.5088082,105,291177.0849,283461.0939,284210.1861,284976.8319,285743.4612,286510.1797,287276.4105,288043.6483,277344.2444,278093.5994,278860.3079,279626.9472,280393.6468,281160.2681,281927.0925,282693.9229,288052.8487,Mapping
Blocked,Male,cave,12,M_gnash.wav,None,720.7562477,105,291177.0849,283461.0939,284210.1861,284976.8319,285743.4612,286510.1797,287276.4105,288043.6483,291943.7937,278093.5994,278860.3079,279626.9472,280393.6468,281160.2681,281927.0925,282693.9229,291186.6161,Mapping
Blocked,Male,cave,12,M_knife.wav,None,718.511348,105,291177.0849,283461.0939,284210.1861,284976.8319,285743.4612,286510.1797,287276.4105,288043.6483,291943.7937,292693.4121,278860.3079,279626.9472,280393.6468,281160.2681,281927.0925,282693.9229,291953.7092,Mapping
Blocked,Male,cave,12,M_ball.wav,None,734.0008774,105,291177.0849,283461.0939,284210.1861,284976.8319,285743.4612,286510.1797,287276.4105,288043.6483,291943.7937,292693.4121,293460.0653,279626.9472,280393.6468,281160.2681,281927.0925,282693.9229,292703.0973,Mapping
Blocked,Male,cave,12,M_dime.wav,None,732.612694,105,291177.0849,283461.0939,284210.1861,284976.8319,285743.4612,286510.1797,287276.4105,288043.6483,291943.7937,292693.4121,293460.0653,294226.3812,280393.6468,281160.2681,281927.0925,282693.9229,293469.3046,Mapping
Blocked,Male,cave,12,M_cave.wav,None,731.4675201,105,291177.0849,283461.0939,284210.1861,284976.8319,285743.4612,286510.1797,287276.4105,288043.6483,291943.7937,292693.4121,293460.0653,294226.3812,294993.3244,281160.2681,281927.0925,282693.9229,294235.5577,Mapping
Blocked,Male,cave,12,M_cling.wav,space,442.7875217,105,291177.0849,283461.0939,284210.1861,284976.8319,285743.4612,286510.1797,287276.4105,288043.6483,291943.7937,292693.4121,293460.0653,294226.3812,294993.3244,295759.925,281927.0925,282693.9229,295002.7244,Mapping
Blocked,Male,cave,12,M_romp.wav,None,726.863327,105,291177.0849,283461.0939,284210.1861,284976.8319,285743.4612,286510.1797,287276.4105,288043.6483,291943.7937,292693.4121,293460.0653,294226.3812,294993.3244,295759.925,296526.5921,282693.9229,295769.3992,Mapping
Blocked,Male,cave,12,M_cave.wav,None,725.4810179,105,291177.0849,283461.0939,284210.1861,284976.8319,285743.4612,286510.1797,287276.4105,288043.6483,291943.7937,292693.4121,293460.0653,294226.3812,294993.3244,295759.925,296526.5921,297293.6623,296535.6363,Mapping
Blocked,Male,cave,12,M_tile.wav,space,557.8048523,105,291177.0849,298060.3377,284210.1861,284976.8319,285743.4612,286510.1797,287276.4105,288043.6483,291943.7937,292693.4121,293460.0653,294226.3812,294993.3244,295759.925,296526.5921,297293.6623,297303.6251,Mapping
Blocked,Male,cave,12,M_cling.wav,None,719.2338835,105,291177.0849,298060.3377,298809.6711,284976.8319,285743.4612,286510.1797,287276.4105,288043.6483,291943.7937,292693.4121,293460.0653,294226.3812,294993.3244,295759.925,296526.5921,297293.6623,298070.0566,Mapping
Blocked,Male,cave,12,M_cave.wav,None,735.2122143,105,291177.0849,298060.3377,298809.6711,299576.5976,285743.4612,286510.1797,287276.4105,288043.6483,291943.7937,292693.4121,293460.0653,294226.3812,294993.3244,295759.925,296526.5921,297293.6623,298819.303,Mapping
Blocked,Male,cave,12,M_romp.wav,space,467.7961553,105,291177.0849,298060.3377,298809.6711,299576.5976,300343.2065,286510.1797,287276.4105,288043.6483,291943.7937,292693.4121,293460.0653,294226.3812,294993.3244,295759.925,296526.5921,297293.6623,299585.5694,Mapping
Blocked,Male,cave,12,M_priest.wav,None,730.2855546,105,291177.0849,298060.3377,298809.6711,299576.5976,300343.2065,301109.9766,287276.4105,288043.6483,291943.7937,292693.4121,293460.0653,294226.3812,294993.3244,295759.925,296526.5921,297293.6623,300352.597,Mapping
Blocked,Male,cave,12,M_cave.wav,None,728.4209368,105,291177.0849,298060.3377,298809.6711,299576.5976,300343.2065,301109.9766,301876.5005,288043.6483,291943.7937,292693.4121,293460.0653,294226.3812,294993.3244,295759.925,296526.5921,297293.6623,301119.2561,Mapping
Blocked,Male,cave,12,M_gnash.wav,space,575.0996385,105,291177.0849,298060.3377,298809.6711,299576.5976,300343.2065,301109.9766,301876.5005,302643.6063,291943.7937,292693.4121,293460.0653,294226.3812,294993.3244,295759.925,296526.5921,297293.6623,301886.267,Mapping
Blocked,Male,ball,6,M_depth.wav,None,722.6728064,105,305760.3965,298060.3377,298809.6711,299576.5976,300343.2065,301109.9766,301876.5005,302643.6063,291943.7937,292693.4121,293460.0653,294226.3812,294993.3244,295759.925,296526.5921,297293.6623,302653.2176,Mapping
Blocked,Male,ball,6,M_dime.wav,None,720.4300709,105,305760.3965,298060.3377,298809.6711,299576.5976,300343.2065,301109.9766,301876.5005,302643.6063,306509.7242,292693.4121,293460.0653,294226.3812,294993.3244,295759.925,296526.5921,297293.6623,305769.5133,Mapping
Blocked,Male,ball,6,M_ball.wav,None,735.7647051,105,305760.3965,298060.3377,298809.6711,299576.5976,300343.2065,301109.9766,301876.5005,302643.6063,306509.7242,307276.4699,293460.0653,294226.3812,294993.3244,295759.925,296526.5921,297293.6623,306519.0718,Mapping
Blocked,Male,ball,6,M_park.wav,space,599.8287804,105,305760.3965,298060.3377,298809.6711,299576.5976,300343.2065,301109.9766,301876.5005,302643.6063,306509.7242,307276.4699,308043.0321,294226.3812,294993.3244,295759.925,296526.5921,297293.6623,307285.3153,Mapping
Blocked,Male,ball,6,M_ball.wav,None,731.0164378,105,305760.3965,298060.3377,298809.6711,299576.5976,300343.2065,301109.9766,301876.5005,302643.6063,306509.7242,307276.4699,308043.0321,308809.8418,294993.3244,295759.925,296526.5921,297293.6623,308052.3478,Mapping
Blocked,Male,ball,6,M_greet.wav,space,561.8296566,105,305760.3965,298060.3377,298809.6711,299576.5976,300343.2065,301109.9766,301876.5005,302643.6063,306509.7242,307276.4699,308043.0321,308809.8418,309576.4251,295759.925,296526.5921,297293.6623,308819.3568,Mapping
Blocked,Male,ball,6,M_reek.wav,None,726.1911866,105,305760.3965,298060.3377,298809.6711,299576.5976,300343.2065,301109.9766,301876.5005,302643.6063,306509.7242,307276.4699,308043.0321,308809.8418,309576.4251,310342.9744,296526.5921,297293.6623,309585.7262,Mapping
Blocked,Male,ball,6,M_romp.wav,None,724.53526,105,305760.3965,298060.3377,298809.6711,299576.5976,300343.2065,301109.9766,301876.5005,302643.6063,306509.7242,307276.4699,308043.0321,308809.8418,309576.4251,310342.9744,311110.103,297293.6623,310352.819,Mapping
Blocked,Male,ball,6,M_knife.wav,None,722.5574852,105,305760.3965,298060.3377,298809.6711,299576.5976,300343.2065,301109.9766,301876.5005,302643.6063,306509.7242,307276.4699,308043.0321,308809.8418,309576.4251,310342.9744,311110.103,311876.2535,311119.7752,Mapping
Blocked,Male,ball,6,M_ball.wav,None,721.5999787,105,305760.3965,312643.2792,298809.6711,299576.5976,300343.2065,301109.9766,301876.5005,302643.6063,306509.7242,307276.4699,308043.0321,308809.8418,309576.4251,310342.9744,311110.103,311876.2535,311885.6505,Mapping
Blocked,Male,ball,6,M_jaw.wav,space,367.941559,105,305760.3965,312643.2792,313392.9023,299576.5976,300343.2065,301109.9766,301876.5005,302643.6063,306509.7242,307276.4699,308043.0321,308809.8418,309576.4251,310342.9744,311110.103,311876.2535,312653.1836,Mapping
Blocked,Male,ball,6,M_park.wav,None,733.2539173,105,305760.3965,312643.2792,313392.9023,314159.6235,300343.2065,301109.9766,301876.5005,302643.6063,306509.7242,307276.4699,308043.0321,308809.8418,309576.4251,310342.9744,311110.103,311876.2535,313402.67,Mapping
Blocked,Male,ball,6,M_jolt.wav,None,732.0376337,105,305760.3965,312643.2792,313392.9023,314159.6235,314926.2269,301109.9766,301876.5005,302643.6063,306509.7242,307276.4699,308043.0321,308809.8418,309576.4251,310342.9744,311110.103,311876.2535,314168.8451,Mapping
Blocked,Male,ball,6,M_bluff.wav,None,730.0524387,105,305760.3965,312643.2792,313392.9023,314159.6235,314926.2269,315692.8838,301876.5005,302643.6063,306509.7242,307276.4699,308043.0321,308809.8418,309576.4251,310342.9744,311110.103,311876.2535,314935.7169,Mapping
Blocked,Male,ball,6,M_ball.wav,None,728.5031766,105,305760.3965,312643.2792,313392.9023,314159.6235,314926.2269,315692.8838,316459.5567,302643.6063,306509.7242,307276.4699,308043.0321,308809.8418,309576.4251,310342.9744,311110.103,311876.2535,315702.2028,Mapping
Blocked,Male,ball,6,M_reek.wav,space,368.0095769,105,305760.3965,312643.2792,313392.9023,314159.6235,314926.2269,315692.8838,316459.5567,317226.0593,306509.7242,307276.4699,308043.0321,308809.8418,309576.4251,310342.9744,311110.103,311876.2535,316469.0291,Mapping
Blocked,Male,done,21,M_knife.wav,None,724.1889871,105,320342.0434,312643.2792,313392.9023,314159.6235,314926.2269,315692.8838,316459.5567,317226.0593,306509.7242,307276.4699,308043.0321,308809.8418,309576.4251,310342.9744,311110.103,311876.2535,317235.366,Mapping
Blocked,Male,done,21,M_jolt.wav,None,726.6333028,105,320342.0434,312643.2792,313392.9023,314159.6235,314926.2269,315692.8838,316459.5567,317226.0593,321109.7101,307276.4699,308043.0321,308809.8418,309576.4251,310342.9744,311110.103,311876.2535,320350.8348,Mapping
Blocked,Male,done,21,M_done.wav,None,723.0360838,105,320342.0434,312643.2792,313392.9023,314159.6235,314926.2269,315692.8838,316459.5567,317226.0593,321109.7101,321876.4968,308043.0321,308809.8418,309576.4251,310342.9744,311110.103,311876.2535,321119.5133,Mapping
Blocked,Male,done,21,M_ball.wav,space,590.2629912,105,320342.0434,312643.2792,313392.9023,314159.6235,314926.2269,315692.8838,316459.5567,317226.0593,321109.7101,321876.4968,322626.007,308809.8418,309576.4251,310342.9744,311110.103,311876.2535,321886.6661,Mapping
Blocked,Male,done,21,M_depth.wav,None,735.8345781,105,320342.0434,312643.2792,313392.9023,314159.6235,314926.2269,315692.8838,316459.5567,317226.0593,321109.7101,321876.4968,322626.007,323392.6423,309576.4251,310342.9744,311110.103,311876.2535,322635.3415,Mapping
Blocked,Male,done,21,M_priest.wav,None,733.9708877,105,320342.0434,312643.2792,313392.9023,314159.6235,314926.2269,315692.8838,316459.5567,317226.0593,321109.7101,321876.4968,322626.007,323392.6423,324159.459,310342.9744,311110.103,311876.2535,323402.1066,Mapping
Blocked,Male,done,21,M_dime.wav,None,732.1792346,105,320342.0434,312643.2792,313392.9023,314159.6235,314926.2269,315692.8838,316459.5567,317226.0593,321109.7101,321876.4968,322626.007,323392.6423,324159.459,324926.071,311110.103,311876.2535,324168.8182,Mapping
Blocked,Male,done,21,M_ball.wav,None,730.6049295,105,320342.0434,312643.2792,313392.9023,314159.6235,314926.2269,315692.8838,316459.5567,317226.0593,321109.7101,321876.4968,322626.007,323392.6423,324159.459,324926.071,325692.211,311876.2535,324935.8758,Mapping
Blocked,Male,done,21,M_done.wav,None,729.9763823,105,320342.0434,312643.2792,313392.9023,314159.6235,314926.2269,315692.8838,316459.5567,317226.0593,321109.7101,321876.4968,322626.007,323392.6423,324159.459,324926.071,325692.211,326459.2553,325701.5251,Mapping
Blocked,Male,done,21,M_jolt.wav,space,376.2793161,105,320342.0434,327225.9768,313392.9023,314159.6235,314926.2269,315692.8838,316459.5567,317226.0593,321109.7101,321876.4968,322626.007,323392.6423,324159.459,324926.071,325692.211,326459.2553,326468.5505,Mapping
Blocked,Male,done,21,M_cad.wav,None,725.3910488,105,320342.0434,327225.9768,327992.8909,314159.6235,314926.2269,315692.8838,316459.5567,317226.0593,321109.7101,321876.4968,322626.007,323392.6423,324159.459,324926.071,325692.211,326459.2553,327234.9759,Mapping
Blocked,Male,done,21,M_gnash.wav,None,721.9836615,105,320342.0434,327225.9768,327992.8909,328759.6872,314926.2269,315692.8838,316459.5567,317226.0593,321109.7101,321876.4968,322626.007,323392.6423,324159.459,324926.071,325692.211,326459.2553,328003.4686,Mapping
Blocked,Male,done,21,M_done.wav,None,721.5137197,105,320342.0434,327225.9768,327992.8909,328759.6872,329526.3967,315692.8838,316459.5567,317226.0593,321109.7101,321876.4968,322626.007,323392.6423,324159.459,324926.071,325692.211,326459.2553,328769.0149,Mapping
Blocked,Male,done,21,M_gnash.wav,None,719.7022795,105,320342.0434,327225.9768,327992.8909,328759.6872,329526.3967,330275.6144,316459.5567,317226.0593,321109.7101,321876.4968,322626.007,323392.6423,324159.459,324926.071,325692.211,326459.2553,329536.0336,Mapping
Blocked,Male,done,21,M_done.wav,space,55.83959894,105,320342.0434,327225.9768,327992.8909,328759.6872,329526.3967,330275.6144,331042.5319,317226.0593,321109.7101,321876.4968,322626.007,323392.6423,324159.459,324926.071,325692.211,326459.2553,330284.9192,Mapping
Blocked,Male,done,21,M_tile.wav,space,448.488967,105,320342.0434,327225.9768,327992.8909,328759.6872,329526.3967,330275.6144,331042.5319,331809.0543,321109.7101,321876.4968,322626.007,323392.6423,324159.459,324926.071,325692.211,326459.2553,331052.2359,Mapping
Blocked,Male,tile,17,M_ball.wav,None,729.7432664,105,334942.796,327225.9768,327992.8909,328759.6872,329526.3967,330275.6144,331042.5319,331809.0543,321109.7101,321876.4968,322626.007,323392.6423,324159.459,324926.071,325692.211,326459.2553,331818.4667,Mapping
Blocked,Male,tile,17,M_reek.wav,None,719.8021422,105,334942.796,327225.9768,327992.8909,328759.6872,329526.3967,330275.6144,331042.5319,331809.0543,335692.5604,321876.4968,322626.007,323392.6423,324159.459,324926.071,325692.211,326459.2553,334952.6249,Mapping
Blocked,Male,tile,17,M_tile.wav,None,735.9041417,105,334942.796,327225.9768,327992.8909,328759.6872,329526.3967,330275.6144,331042.5319,331809.0543,335692.5604,336459.0064,322626.007,323392.6423,324159.459,324926.071,325692.211,326459.2553,335701.8179,Mapping
Blocked,Male,tile,17,M_reek.wav,space,504.5004658,105,334942.796,327225.9768,327992.8909,328759.6872,329526.3967,330275.6144,331042.5319,331809.0543,335692.5604,336459.0064,337225.7508,323392.6423,324159.459,324926.071,325692.211,326459.2553,336468.1248,Mapping
Blocked,Male,tile,17,M_park.wav,None,732.0438171,105,334942.796,327225.9768,327992.8909,328759.6872,329526.3967,330275.6144,331042.5319,331809.0543,335692.5604,336459.0064,337225.7508,337992.4491,324159.459,324926.071,325692.211,326459.2553,337234.6763,Mapping
Blocked,Male,tile,17,M_knife.wav,None,730.024304,105,334942.796,327225.9768,327992.8909,328759.6872,329526.3967,330275.6144,331042.5319,331809.0543,335692.5604,336459.0064,337225.7508,337992.4491,338758.9925,324926.071,325692.211,326459.2553,338001.8863,Mapping
Blocked,Male,tile,17,M_tile.wav,None,729.0630876,105,334942.796,327225.9768,327992.8909,328759.6872,329526.3967,330275.6144,331042.5319,331809.0543,335692.5604,336459.0064,337225.7508,337992.4491,338758.9925,339525.7313,325692.211,326459.2553,338768.2872,Mapping
Blocked,Male,tile,17,M_jaw.wav,space,677.2210857,105,334942.796,327225.9768,327992.8909,328759.6872,329526.3967,330275.6144,331042.5319,331809.0543,335692.5604,336459.0064,337225.7508,337992.4491,338758.9925,339525.7313,340292.8399,326459.2553,339535.2538,Mapping
Blocked,Male,tile,17,M_tile.wav,None,723.9527795,105,334942.796,327225.9768,327992.8909,328759.6872,329526.3967,330275.6144,331042.5319,331809.0543,335692.5604,336459.0064,337225.7508,337992.4491,338758.9925,339525.7313,340292.8399,341059.4003,340302.1655,Mapping
Blocked,Male,tile,17,M_bluff.wav,None,722.1005286,105,334942.796,341825.6961,327992.8909,328759.6872,329526.3967,330275.6144,331042.5319,331809.0543,335692.5604,336459.0064,337225.7508,337992.4491,338758.9925,339525.7313,340292.8399,341059.4003,341069.1835,Mapping
Blocked,Male,tile,17,M_tile.wav,space,0.028443872,105,334942.796,341825.6961,342575.4131,328759.6872,329526.3967,330275.6144,331042.5319,331809.0543,335692.5604,336459.0064,337225.7508,337992.4491,338758.9925,339525.7313,340292.8399,341059.4003,341835.4554,Mapping
Blocked,Male,tile,17,M_knife.wav,space,307.3431809,105,334942.796,341825.6961,342575.4131,343342.2932,329526.3967,330275.6144,331042.5319,331809.0543,335692.5604,336459.0064,337225.7508,337992.4491,338758.9925,339525.7313,340292.8399,341059.4003,342585.0878,Mapping
Blocked,Male,tile,17,M_knife.wav,None,731.9655966,105,334942.796,341825.6961,342575.4131,343342.2932,344108.8364,330275.6144,331042.5319,331809.0543,335692.5604,336459.0064,337225.7508,337992.4491,338758.9925,339525.7313,340292.8399,341059.4003,343351.6476,Mapping
Blocked,Male,tile,17,M_reek.wav,None,730.6169872,105,334942.796,341825.6961,342575.4131,343342.2932,344108.8364,344875.65,331042.5319,331809.0543,335692.5604,336459.0064,337225.7508,337992.4491,338758.9925,339525.7313,340292.8399,341059.4003,344118.1492,Mapping
Blocked,Male,tile,17,M_priest.wav,None,729.1459457,105,334942.796,341825.6961,342575.4131,343342.2932,344108.8364,344875.65,345642.2157,331809.0543,335692.5604,336459.0064,337225.7508,337992.4491,338758.9925,339525.7313,340292.8399,341059.4003,344885.1277,Mapping
Blocked,Male,tile,17,M_greet.wav,None,727.7234442,105,334942.796,341825.6961,342575.4131,343342.2932,344108.8364,344875.65,345642.2157,346408.4502,335692.5604,336459.0064,337225.7508,337992.4491,338758.9925,339525.7313,340292.8399,341059.4003,345651.9398,Mapping
Blocked,Male,done,24,M_cad.wav,None,727.4550827,105,349542.2924,341825.6961,342575.4131,343342.2932,344108.8364,344875.65,345642.2157,346408.4502,335692.5604,336459.0064,337225.7508,337992.4491,338758.9925,339525.7313,340292.8399,341059.4003,346417.419,Mapping
Blocked,Male,done,24,M_jolt.wav,None,720.6910123,105,349542.2924,341825.6961,342575.4131,343342.2932,344108.8364,344875.65,345642.2157,346408.4502,350291.9229,336459.0064,337225.7508,337992.4491,338758.9925,339525.7313,340292.8399,341059.4003,349551.5936,Mapping
Blocked,Male,done,24,M_cave.wav,None,736.7893019,105,349542.2924,341825.6961,342575.4131,343342.2932,344108.8364,344875.65,345642.2157,346408.4502,350291.9229,351058.6664,337225.7508,337992.4491,338758.9925,339525.7313,340292.8399,341059.4003,350300.6453,Mapping
Blocked,Male,done,24,M_done.wav,None,734.0803347,105,349542.2924,341825.6961,342575.4131,343342.2932,344108.8364,344875.65,345642.2157,346408.4502,350291.9229,351058.6664,351825.4237,337992.4491,338758.9925,339525.7313,340292.8399,341059.4003,351068.4177,Mapping
Blocked,Male,done,24,M_park.wav,space,438.8644351,105,349542.2924,341825.6961,342575.4131,343342.2932,344108.8364,344875.65,345642.2157,346408.4502,350291.9229,351058.6664,351825.4237,352591.8354,338758.9925,339525.7313,340292.8399,341059.4003,351829.4643,Mapping
Blocked,Male,done,24,M_cad.wav,None,730.9787187,105,349542.2924,341825.6961,342575.4131,343342.2932,344108.8364,344875.65,345642.2157,346408.4502,350291.9229,351058.6664,351825.4237,352591.8354,353358.7731,339525.7313,340292.8399,341059.4003,352600.6274,Mapping
Blocked,Male,done,24,M_cad.wav,None,728.6577627,105,349542.2924,341825.6961,342575.4131,343342.2932,344108.8364,344875.65,345642.2157,346408.4502,350291.9229,351058.6664,351825.4237,352591.8354,353358.7731,354125.4296,340292.8399,341059.4003,353368.0151,Mapping
Blocked,Male,done,24,M_done.wav,None,726.7585176,105,349542.2924,341825.6961,342575.4131,343342.2932,344108.8364,344875.65,345642.2157,346408.4502,350291.9229,351058.6664,351825.4237,352591.8354,353358.7731,354125.4296,354892.0222,341059.4003,354135.0375,Mapping
Blocked,Male,done,24,M_knife.wav,space,462.8030236,105,349542.2924,341825.6961,342575.4131,343342.2932,344108.8364,344875.65,345642.2157,346408.4502,350291.9229,351058.6664,351825.4237,352591.8354,353358.7731,354125.4296,354892.0222,355659.162,354901.4313,Mapping
Blocked,Male,done,24,M_greet.wav,None,721.99541,105,349542.2924,356425.2102,342575.4131,343342.2932,344108.8364,344875.65,345642.2157,346408.4502,350291.9229,351058.6664,351825.4237,352591.8354,353358.7731,354125.4296,354892.0222,355659.162,355668.8827,Mapping
Blocked,Male,done,24,M_jaw.wav,None,721.7690959,105,349542.2924,356425.2102,357192.3796,343342.2932,344108.8364,344875.65,345642.2157,346408.4502,350291.9229,351058.6664,351825.4237,352591.8354,353358.7731,354125.4296,354892.0222,355659.162,356434.2572,Mapping
Blocked,Male,done,24,M_cad.wav,None,719.2134782,105,349542.2924,356425.2102,357192.3796,357941.781,344108.8364,344875.65,345642.2157,346408.4502,350291.9229,351058.6664,351825.4237,352591.8354,353358.7731,354125.4296,354892.0222,355659.162,357202.1603,Mapping
Blocked,Male,done,24,M_done.wav,None,735.0183633,105,349542.2924,356425.2102,357192.3796,357941.781,358708.3674,344875.65,345642.2157,346408.4502,350291.9229,351058.6664,351825.4237,352591.8354,353358.7731,354125.4296,354892.0222,355659.162,357951.3839,Mapping
Blocked,Male,done,24,M_depth.wav,space,453.9254518,105,349542.2924,356425.2102,357192.3796,357941.781,358708.3674,359475.3035,345642.2157,346408.4502,350291.9229,351058.6664,351825.4237,352591.8354,353358.7731,354125.4296,354892.0222,355659.162,358718.2201,Mapping
Blocked,Male,done,24,M_done.wav,None,731.2622297,105,349542.2924,356425.2102,357192.3796,357941.781,358708.3674,359475.3035,360241.9604,346408.4502,350291.9229,351058.6664,351825.4237,352591.8354,353358.7731,354125.4296,354892.0222,355659.162,359483.9955,Mapping
Blocked,Male,done,24,M_cling.wav,None,729.1947949,105,349542.2924,356425.2102,357192.3796,357941.781,358708.3674,359475.3035,360241.9604,361008.9097,350291.9229,351058.6664,351825.4237,352591.8354,353358.7731,354125.4296,354892.0222,355659.162,360251.1598,Mapping
Blocked,Male,cave,10,M_greet.wav,space,50.49493839,105,364142.4097,356425.2102,357192.3796,357941.781,358708.3674,359475.3035,360241.9604,361008.9097,350291.9229,351058.6664,351825.4237,352591.8354,353358.7731,354125.4296,354892.0222,355659.162,361017.6404,Mapping
Blocked,Male,cave,10,M_dime.wav,None,719.4382464,105,364142.4097,356425.2102,357192.3796,357941.781,358708.3674,359475.3035,360241.9604,361008.9097,364908.9729,351058.6664,351825.4237,352591.8354,353358.7731,354125.4296,354892.0222,355659.162,364152.28,Mapping
Blocked,Male,cave,10,M_jolt.wav,None,718.6705717,105,364142.4097,356425.2102,357192.3796,357941.781,358708.3674,359475.3035,360241.9604,361008.9097,364908.9729,365658.3183,351825.4237,352591.8354,353358.7731,354125.4296,354892.0222,355659.162,364918.7285,Mapping
Blocked,Male,cave,10,M_cave.wav,None,734.9964121,105,364142.4097,356425.2102,357192.3796,357941.781,358708.3674,359475.3035,360241.9604,361008.9097,364908.9729,365658.3183,366425.2006,352591.8354,353358.7731,354125.4296,354892.0222,355659.162,365667.6167,Mapping
Blocked,Male,cave,10,M_dime.wav,space,521.2511088,105,364142.4097,356425.2102,357192.3796,357941.781,358708.3674,359475.3035,360241.9604,361008.9097,364908.9729,365658.3183,366425.2006,367191.7576,353358.7731,354125.4296,354892.0222,355659.162,366434.7039,Mapping
Blocked,Male,cave,10,M_lash.wav,None,729.929079,105,364142.4097,356425.2102,357192.3796,357941.781,358708.3674,359475.3035,360241.9604,361008.9097,364908.9729,365658.3183,366425.2006,367191.7576,367958.0688,354125.4296,354892.0222,355659.162,367201.6632,Mapping
Blocked,Male,cave,10,M_park.wav,None,730.0029711,105,364142.4097,356425.2102,357192.3796,357941.781,358708.3674,359475.3035,360241.9604,361008.9097,364908.9729,365658.3183,366425.2006,367191.7576,367958.0688,368725.1357,354892.0222,355659.162,367967.1239,Mapping
Blocked,Male,cave,10,M_park.wav,None,727.9550142,105,364142.4097,356425.2102,357192.3796,357941.781,358708.3674,359475.3035,360241.9604,361008.9097,364908.9729,365658.3183,366425.2006,367191.7576,367958.0688,368725.1357,369491.7419,355659.162,368734.5221,Mapping
Blocked,Male,cave,10,M_cave.wav,None,727.208054,105,364142.4097,356425.2102,357192.3796,357941.781,358708.3674,359475.3035,360241.9604,361008.9097,364908.9729,365658.3183,366425.2006,367191.7576,367958.0688,368725.1357,369491.7419,370258.3357,369501.1398,Mapping
Blocked,Male,cave,10,M_knife.wav,space,663.7776581,105,364142.4097,371024.991,357192.3796,357941.781,358708.3674,359475.3035,360241.9604,361008.9097,364908.9729,365658.3183,366425.2006,367191.7576,367958.0688,368725.1357,369491.7419,370258.3357,370268.0931,Mapping
Blocked,Male,cave,10,M_cave.wav,None,723.4308968,105,364142.4097,371024.991,371792.1305,357941.781,358708.3674,359475.3035,360241.9604,361008.9097,364908.9729,365658.3183,366425.2006,367191.7576,367958.0688,368725.1357,369491.7419,370258.3357,371034.0566,Mapping
Blocked,Male,cave,10,M_done.wav,None,720.4662441,105,364142.4097,371024.991,371792.1305,372558.6916,358708.3674,359475.3035,360241.9604,361008.9097,364908.9729,365658.3183,366425.2006,367191.7576,367958.0688,368725.1357,369491.7419,370258.3357,371802.1941,Mapping
Blocked,Male,cave,10,M_done.wav,None,720.0436057,105,364142.4097,371024.991,371792.1305,372558.6916,373308.1433,359475.3035,360241.9604,361008.9097,364908.9729,365658.3183,366425.2006,367191.7576,367958.0688,368725.1357,369491.7419,370258.3357,372568.0227,Mapping
Blocked,Male,cave,10,M_cave.wav,None,736.1811601,105,364142.4097,371024.991,371792.1305,372558.6916,373308.1433,374074.9226,360241.9604,361008.9097,364908.9729,365658.3183,366425.2006,367191.7576,367958.0688,368725.1357,369491.7419,370258.3357,373317.3724,Mapping
Blocked,Male,cave,10,M_park.wav,space,551.44116,105,364142.4097,371024.991,371792.1305,372558.6916,373308.1433,374074.9226,374841.6237,361008.9097,364908.9729,365658.3183,366425.2006,367191.7576,367958.0688,368725.1357,369491.7419,370258.3357,374084.3913,Mapping
Blocked,Male,cave,10,M_jolt.wav,None,731.3651841,105,364142.4097,371024.991,371792.1305,372558.6916,373308.1433,374074.9226,374841.6237,375608.7815,364908.9729,365658.3183,366425.2006,367191.7576,367958.0688,368725.1357,369491.7419,370258.3357,374851.3104,Mapping
Blocked,Male,ball,4,M_bluff.wav,None,729.0290786,105,378741.9209,371024.991,371792.1305,372558.6916,373308.1433,374074.9226,374841.6237,375608.7815,364908.9729,365658.3183,366425.2006,367191.7576,367958.0688,368725.1357,369491.7419,370258.3357,375618.8583,Mapping
Blocked,Male,ball,4,M_reek.wav,None,721.0320294,105,378741.9209,371024.991,371792.1305,372558.6916,373308.1433,374074.9226,374841.6237,375608.7815,379508.5231,365658.3183,366425.2006,367191.7576,367958.0688,368725.1357,369491.7419,370258.3357,378751.9174,Mapping
Blocked,Male,ball,4,M_dime.wav,None,719.9932106,105,378741.9209,371024.991,371792.1305,372558.6916,373308.1433,374074.9226,374841.6237,375608.7815,379508.5231,380258.3165,366425.2006,367191.7576,367958.0688,368725.1357,369491.7419,370258.3357,379518.2506,Mapping
Blocked,Male,ball,4,M_reek.wav,None,736.2810227,105,378741.9209,371024.991,371792.1305,372558.6916,373308.1433,374074.9226,374841.6237,375608.7815,379508.5231,380258.3165,381024.7999,367191.7576,367958.0688,368725.1357,369491.7419,370258.3357,380267.2117,Mapping
Blocked,Male,ball,4,M_cad.wav,None,735.4607888,105,378741.9209,371024.991,371792.1305,372558.6916,373308.1433,374074.9226,374841.6237,375608.7815,379508.5231,380258.3165,381024.7999,381791.4151,367958.0688,368725.1357,369491.7419,370258.3357,381033.8006,Mapping
Blocked,Male,ball,4,M_romp.wav,None,733.0359509,105,378741.9209,371024.991,371792.1305,372558.6916,373308.1433,374074.9226,374841.6237,375608.7815,379508.5231,380258.3165,381024.7999,381791.4151,382558.1564,368725.1357,369491.7419,370258.3357,381801.4048,Mapping
Blocked,Male,ball,4,M_ball.wav,None,737.0592093,105,378741.9209,371024.991,371792.1305,372558.6916,373308.1433,374074.9226,374841.6237,375608.7815,379508.5231,380258.3165,381024.7999,381791.4151,382558.1564,383324.8188,369491.7419,370258.3357,382562.7334,Mapping
Blocked,Male,ball,4,M_bluff.wav,None,731.3976471,105,378741.9209,371024.991,371792.1305,372558.6916,373308.1433,374074.9226,374841.6237,375608.7815,379508.5231,380258.3165,381024.7999,381791.4151,382558.1564,383324.8188,384091.1665,370258.3357,383333.7861,Mapping
Blocked,Male,ball,4,M_ball.wav,space,359.273606,105,378741.9209,371024.991,371792.1305,372558.6916,373308.1433,374074.9226,374841.6237,375608.7815,379508.5231,380258.3165,381024.7999,381791.4151,382558.1564,383324.8188,384091.1665,384858.0748,384100.2837,Mapping
Blocked,Male,ball,4,M_tile.wav,space,616.0278601,105,378741.9209,385625.086,371792.1305,372558.6916,373308.1433,374074.9226,374841.6237,375608.7815,379508.5231,380258.3165,381024.7999,381791.4151,382558.1564,383324.8188,384091.1665,384858.0748,384867.5525,Mapping
Blocked,Male,ball,4,M_jolt.wav,None,723.158516,105,378741.9209,385625.086,386392.1006,372558.6916,373308.1433,374074.9226,374841.6237,375608.7815,379508.5231,380258.3165,381024.7999,381791.4151,382558.1564,383324.8188,384091.1665,384858.0748,385634.9557,Mapping
Blocked,Male,ball,4,M_ball.wav,None,721.6664507,105,378741.9209,385625.086,386392.1006,387158.3985,373308.1433,374074.9226,374841.6237,375608.7815,379508.5231,380258.3165,381024.7999,381791.4151,382558.1564,383324.8188,384091.1665,384858.0748,386401.8009,Mapping
Blocked,Male,ball,4,M_cad.wav,space,475.0125447,105,378741.9209,385625.086,386392.1006,387158.3985,387908.3122,374074.9226,374841.6237,375608.7815,379508.5231,380258.3165,381024.7999,381791.4151,382558.1564,383324.8188,384091.1665,384858.0748,387168.5301,Mapping
Blocked,Male,ball,4,M_done.wav,None,734.5796479,105,378741.9209,385625.086,386392.1006,387158.3985,387908.3122,388674.68,374841.6237,375608.7815,379508.5231,380258.3165,381024.7999,381791.4151,382558.1564,383324.8188,384091.1665,384858.0748,387917.8752,Mapping
Blocked,Male,ball,4,M_ball.wav,None,734.0113893,105,378741.9209,385625.086,386392.1006,387158.3985,387908.3122,388674.68,389441.0787,375608.7815,379508.5231,380258.3165,381024.7999,381791.4151,382558.1564,383324.8188,384091.1665,384858.0748,388683.7997,Mapping
Blocked,Male,ball,4,M_lash.wav,space,633.4623921,105,378741.9209,385625.086,386392.1006,387158.3985,387908.3122,388674.68,389441.0787,390207.628,379508.5231,380258.3165,381024.7999,381791.4151,382558.1564,383324.8188,384091.1665,384858.0748,389450.054,Mapping
Blocked,Male,done,19,M_romp.wav,None,730.4107693,105,393341.5849,385625.086,386392.1006,387158.3985,387908.3122,388674.68,389441.0787,390207.628,379508.5231,380258.3165,381024.7999,381791.4151,382558.1564,383324.8188,384091.1665,384858.0748,390216.5087,Mapping
Blocked,Male,done,19,M_done.wav,None,719.6172571,105,393341.5849,385625.086,386392.1006,387158.3985,387908.3122,388674.68,389441.0787,390207.628,394091.2612,380258.3165,381024.7999,381791.4151,382558.1564,383324.8188,384091.1665,384858.0748,393351.4788,Mapping
Blocked,Male,done,19,M_tile.wav,space,598.7485326,105,393341.5849,385625.086,386392.1006,387158.3985,387908.3122,388674.68,389441.0787,390207.628,394091.2612,394857.5715,381024.7999,381791.4151,382558.1564,383324.8188,384091.1665,384858.0748,394100.6031,Mapping
Blocked,Male,done,19,M_dime.wav,None,733.3169885,105,393341.5849,385625.086,386392.1006,387158.3985,387908.3122,388674.68,389441.0787,390207.628,394091.2612,394857.5715,395624.5313,381791.4151,382558.1564,383324.8188,384091.1665,384858.0748,394866.5996,Mapping
Blocked,Male,done,19,M_done.wav,None,731.4576266,105,393341.5849,385625.086,386392.1006,387158.3985,387908.3122,388674.68,389441.0787,390207.628,394091.2612,394857.5715,395624.5313,396390.7916,382558.1564,383324.8188,384091.1665,384858.0748,395634.0786,Mapping
Blocked,Male,done,19,M_jolt.wav,space,467.3082815,105,393341.5849,385625.086,386392.1006,387158.3985,387908.3122,388674.68,389441.0787,390207.628,394091.2612,394857.5715,395624.5313,396390.7916,397157.8637,383324.8188,384091.1665,384858.0748,396400.0537,Mapping
Blocked,Male,done,19,M_priest.wav,None,727.5892634,105,393341.5849,385625.086,386392.1006,387158.3985,387908.3122,388674.68,389441.0787,390207.628,394091.2612,394857.5715,395624.5313,396390.7916,397157.8637,397924.3879,384091.1665,384858.0748,397166.9069,Mapping
Blocked,Male,done,19,M_gnash.wav,None,726.4233749,105,393341.5849,385625.086,386392.1006,387158.3985,387908.3122,388674.68,389441.0787,390207.628,394091.2612,394857.5715,395624.5313,396390.7916,397157.8637,397924.3879,398691.0646,384858.0748,397933.8232,Mapping
Blocked,Male,done,19,M_done.wav,None,724.8694752,105,393341.5849,385625.086,386392.1006,387158.3985,387908.3122,388674.68,389441.0787,390207.628,394091.2612,394857.5715,395624.5313,396390.7916,397157.8637,397924.3879,398691.0646,399458.1512,398700.7816,Mapping
Blocked,Male,done,19,M_reek.wav,space,415.3661078,105,393341.5849,400224.9132,386392.1006,387158.3985,387908.3122,388674.68,389441.0787,390207.628,394091.2612,394857.5715,395624.5313,396390.7916,397157.8637,397924.3879,398691.0646,399458.1512,399467.9473,Mapping
Blocked,Male,done,19,M_greet.wav,None,721.34553,105,393341.5849,400224.9132,400990.9657,387158.3985,387908.3122,388674.68,389441.0787,390207.628,394091.2612,394857.5715,395624.5313,396390.7916,397157.8637,397924.3879,398691.0646,399458.1512,400234.496,Mapping
Blocked,Male,done,19,M_cad.wav,None,721.1816687,105,393341.5849,400224.9132,400990.9657,401758.0693,387908.3122,388674.68,389441.0787,390207.628,394091.2612,394857.5715,395624.5313,396390.7916,397157.8637,397924.3879,398691.0646,399458.1512,401000.2606,Mapping
Blocked,Male,done,19,M_tile.wav,None,719.1253641,105,393341.5849,400224.9132,400990.9657,401758.0693,402507.5591,388674.68,389441.0787,390207.628,394091.2612,394857.5715,395624.5313,396390.7916,397157.8637,397924.3879,398691.0646,399458.1512,401767.876,Mapping
Blocked,Male,done,19,M_cad.wav,None,735.8277763,105,393341.5849,400224.9132,400990.9657,401758.0693,402507.5591,403274.3579,389441.0787,390207.628,394091.2612,394857.5715,395624.5313,396390.7916,397157.8637,397924.3879,398691.0646,399458.1512,402516.7242,Mapping
Blocked,Male,done,19,M_done.wav,None,734.0314855,105,393341.5849,400224.9132,400990.9657,401758.0693,402507.5591,403274.3579,404040.9431,390207.628,394091.2612,394857.5715,395624.5313,396390.7916,397157.8637,397924.3879,398691.0646,399458.1512,403283.8347,Mapping
Blocked,Male,done,19,M_reek.wav,space,696.7824136,105,393341.5849,400224.9132,400990.9657,401758.0693,402507.5591,403274.3579,404040.9431,404807.6828,394091.2612,394857.5715,395624.5313,396390.7916,397157.8637,397924.3879,398691.0646,399458.1512,404050.409,Mapping
Blocked,Male,ball,1,M_romp.wav,None,729.4832526,105,407941.4218,400224.9132,400990.9657,401758.0693,402507.5591,403274.3579,404040.9431,404807.6828,394091.2612,394857.5715,395624.5313,396390.7916,397157.8637,397924.3879,398691.0646,399458.1512,404817.9952,Mapping
Blocked,Male,ball,1,M_dime.wav,None,719.4237153,105,407941.4218,400224.9132,400990.9657,401758.0693,402507.5591,403274.3579,404040.9431,404807.6828,408691.0034,394857.5715,395624.5313,396390.7916,397157.8637,397924.3879,398691.0646,399458.1512,407951.2942,Mapping
Blocked,Male,ball,1,M_ball.wav,None,735.5461203,105,407941.4218,400224.9132,400990.9657,401758.0693,402507.5591,403274.3579,404040.9431,404807.6828,408691.0034,409457.4874,395624.5313,396390.7916,397157.8637,397924.3879,398691.0646,399458.1512,408700.6458,Mapping
Blocked,Male,ball,1,M_done.wav,space,640.2385202,105,407941.4218,400224.9132,400990.9657,401758.0693,402507.5591,403274.3579,404040.9431,404807.6828,408691.0034,409457.4874,410224.1808,396390.7916,397157.8637,397924.3879,398691.0646,399458.1512,409466.8498,Mapping
Blocked,Male,ball,1,M_dime.wav,None,732.9373249,105,407941.4218,400224.9132,400990.9657,401758.0693,402507.5591,403274.3579,404040.9431,404807.6828,408691.0034,409457.4874,410224.1808,410990.6837,397157.8637,397924.3879,398691.0646,399458.1512,410233.8489,Mapping
Blocked,Male,ball,1,M_cave.wav,None,732.0450538,105,407941.4218,400224.9132,400990.9657,401758.0693,402507.5591,403274.3579,404040.9431,404807.6828,408691.0034,409457.4874,410224.1808,410990.6837,411757.5255,397924.3879,398691.0646,399458.1512,411000.2495,Mapping
Blocked,Male,ball,1,M_cad.wav,None,731.2656306,105,407941.4218,400224.9132,400990.9657,401758.0693,402507.5591,403274.3579,404040.9431,404807.6828,408691.0034,409457.4874,410224.1808,410990.6837,411757.5255,412524.1787,398691.0646,399458.1512,411766.5573,Mapping
Blocked,Male,ball,1,M_dime.wav,None,729.6356745,105,407941.4218,400224.9132,400990.9657,401758.0693,402507.5591,403274.3579,404040.9431,404807.6828,408691.0034,409457.4874,410224.1808,410990.6837,411757.5255,412524.1787,413290.809,399458.1512,412533.5645,Mapping
Blocked,Male,ball,1,M_ball.wav,None,729.4177081,105,407941.4218,400224.9132,400990.9657,401758.0693,402507.5591,403274.3579,404040.9431,404807.6828,408691.0034,409457.4874,410224.1808,410990.6837,411757.5255,412524.1787,413290.809,414057.5206,413300.1095,Mapping
Blocked,Male,ball,1,M_greet.wav,space,447.8403237,105,407941.4218,414824.0816,400990.9657,401758.0693,402507.5591,403274.3579,404040.9431,404807.6828,408691.0034,409457.4874,410224.1808,410990.6837,411757.5255,412524.1787,413290.809,414057.5206,414067.1151,Mapping
Blocked,Male,ball,1,M_ball.wav,None,725.1962703,105,407941.4218,414824.0816,415590.3962,401758.0693,402507.5591,403274.3579,404040.9431,404807.6828,408691.0034,409457.4874,410224.1808,410990.6837,411757.5255,412524.1787,413290.809,414057.5206,414833.4956,Mapping
Blocked,Male,ball,1,M_priest.wav,space,667.6930155,105,407941.4218,414824.0816,415590.3962,416357.8366,402507.5591,403274.3579,404040.9431,404807.6828,408691.0034,409457.4874,410224.1808,410990.6837,411757.5255,412524.1787,413290.809,414057.5206,415599.1869,Mapping
Blocked,Male,ball,1,M_ball.wav,None,722.8273926,105,407941.4218,414824.0816,415590.3962,416357.8366,417124.5476,403274.3579,404040.9431,404807.6828,408691.0034,409457.4874,410224.1808,410990.6837,411757.5255,412524.1787,413290.809,414057.5206,416367.594,Mapping
Blocked,Male,ball,1,M_gnash.wav,space,452.9484675,105,407941.4218,414824.0816,415590.3962,416357.8366,417124.5476,417891.1878,404040.9431,404807.6828,408691.0034,409457.4874,410224.1808,410990.6837,411757.5255,412524.1787,413290.809,414057.5206,417133.9752,Mapping
Blocked,Male,ball,1,M_cling.wav,None,718.6260509,105,407941.4218,414824.0816,415590.3962,416357.8366,417124.5476,417891.1878,418640.7199,404807.6828,408691.0034,409457.4874,410224.1808,410990.6837,411757.5255,412524.1787,413290.809,414057.5206,417901.0151,Mapping
Blocked,Male,ball,1,M_jaw.wav,None,735.1673843,105,407941.4218,414824.0816,415590.3962,416357.8366,417124.5476,417891.1878,418640.7199,419407.1829,408691.0034,409457.4874,410224.1808,410990.6837,411757.5255,412524.1787,413290.809,414057.5206,418650.0974,Mapping
Blocked,Male,tile,18,M_cling.wav,None,734.2880985,105,422540.9581,414824.0816,415590.3962,416357.8366,417124.5476,417891.1878,418640.7199,419407.1829,408691.0034,409457.4874,410224.1808,410990.6837,411757.5255,412524.1787,413290.809,414057.5206,419416.8637,Mapping
Blocked,Male,tile,18,M_cling.wav,None,719.9224102,105,422540.9581,414824.0816,415590.3962,416357.8366,417124.5476,417891.1878,418640.7199,419407.1829,423307.5095,409457.4874,410224.1808,410990.6837,411757.5255,412524.1787,413290.809,414057.5206,422550.646,Mapping
Blocked,Male,tile,18,M_tile.wav,None,718.8341239,105,422540.9581,414824.0816,415590.3962,416357.8366,417124.5476,417891.1878,418640.7199,419407.1829,423307.5095,424057.1502,410224.1808,410990.6837,411757.5255,412524.1787,413290.809,414057.5206,423317.463,Mapping
Blocked,Male,tile,18,M_reek.wav,space,560.4025175,105,422540.9581,414824.0816,415590.3962,416357.8366,417124.5476,417891.1878,418640.7199,419407.1829,423307.5095,424057.1502,424823.6247,410990.6837,411757.5255,412524.1787,413290.809,414057.5206,424066.3709,Mapping
Blocked,Male,tile,18,M_depth.wav,None,732.5653907,105,422540.9581,414824.0816,415590.3962,416357.8366,417124.5476,417891.1878,418640.7199,419407.1829,423307.5095,424057.1502,424823.6247,425590.4052,411757.5255,412524.1787,413290.809,414057.5206,424833.0117,Mapping
Blocked,Male,tile,18,M_gnash.wav,None,731.9547755,105,422540.9581,414824.0816,415590.3962,416357.8366,417124.5476,417891.1878,418640.7199,419407.1829,423307.5095,424057.1502,424823.6247,425590.4052,426357.221,412524.1787,413290.809,414057.5206,425599.6238,Mapping
Blocked,Male,tile,18,M_tile.wav,None,730.826606,105,422540.9581,414824.0816,415590.3962,416357.8366,417124.5476,417891.1878,418640.7199,419407.1829,423307.5095,424057.1502,424823.6247,425590.4052,426357.221,427123.8998,413290.809,414057.5206,426366.3914,Mapping
Blocked,Male,tile,18,M_cling.wav,space,525.8382973,105,422540.9581,414824.0816,415590.3962,416357.8366,417124.5476,417891.1878,418640.7199,419407.1829,423307.5095,424057.1502,424823.6247,425590.4052,426357.221,427123.8998,427890.2337,414057.5206,427132.8686,Mapping
Blocked,Male,tile,18,M_dime.wav,None,727.4083977,105,422540.9581,414824.0816,415590.3962,416357.8366,417124.5476,417891.1878,418640.7199,419407.1829,423307.5095,424057.1502,424823.6247,425590.4052,426357.221,427123.8998,427890.2337,428656.9923,427899.2912,Mapping
Blocked,Male,tile,18,M_tile.wav,None,726.10029,105,422540.9581,429423.8102,415590.3962,416357.8366,417124.5476,417891.1878,418640.7199,419407.1829,423307.5095,424057.1502,424823.6247,425590.4052,426357.221,427123.8998,427890.2337,428656.9923,428666.2149,Mapping
Blocked,Male,tile,18,M_cad.wav,space,537.9603227,105,422540.9581,429423.8102,430190.7852,416357.8366,417124.5476,417891.1878,418640.7199,419407.1829,423307.5095,424057.1502,424823.6247,425590.4052,426357.221,427123.8998,427890.2337,428656.9923,429432.6924,Mapping
Blocked,Male,tile,18,M_romp.wav,None,721.4729089,105,422540.9581,429423.8102,430190.7852,430957.3067,417124.5476,417891.1878,418640.7199,419407.1829,423307.5095,424057.1502,424823.6247,425590.4052,426357.221,427123.8998,427890.2337,428656.9923,430200.6012,Mapping
Blocked,Male,tile,18,M_lash.wav,None,720.3298992,105,422540.9581,429423.8102,430190.7852,430957.3067,431724.2786,417891.1878,418640.7199,419407.1829,423307.5095,424057.1502,424823.6247,425590.4052,426357.221,427123.8998,427890.2337,428656.9923,430967.5712,Mapping
Blocked,Male,tile,18,M_cling.wav,None,719.5520218,105,422540.9581,429423.8102,430190.7852,430957.3067,431724.2786,432490.2686,418640.7199,419407.1829,423307.5095,424057.1502,424823.6247,425590.4052,426357.221,427123.8998,427890.2337,428656.9923,431733.9857,Mapping
Blocked,Male,tile,18,M_tile.wav,None,719.8095623,105,422540.9581,429423.8102,430190.7852,430957.3067,431724.2786,432490.2686,433240.2247,419407.1829,423307.5095,424057.1502,424823.6247,425590.4052,426357.221,427123.8998,427890.2337,428656.9923,432499.5352,Mapping
Blocked,Male,tile,18,M_dime.wav,space,529.1226341,105,422540.9581,429423.8102,430190.7852,430957.3067,431724.2786,432490.2686,433240.2247,434007.0952,423307.5095,424057.1502,424823.6247,425590.4052,426357.221,427123.8998,427890.2337,428656.9923,433249.4535,Mapping
Blocked,Male,cave,11,M_greet.wav,None,729.0433005,105,437140.8722,429423.8102,430190.7852,430957.3067,431724.2786,432490.2686,433240.2247,434007.0952,423307.5095,424057.1502,424823.6247,425590.4052,426357.221,427123.8998,427890.2337,428656.9923,434019.6739,Mapping
Blocked,Male,cave,11,M_cad.wav,None,719.3380746,105,437140.8722,429423.8102,430190.7852,430957.3067,431724.2786,432490.2686,433240.2247,434007.0952,437907.2307,424057.1502,424823.6247,425590.4052,426357.221,427123.8998,427890.2337,428656.9923,437150.6544,Mapping
Blocked,Male,cave,11,M_priest.wav,None,719.0047869,105,437140.8722,429423.8102,430190.7852,430957.3067,431724.2786,432490.2686,433240.2247,434007.0952,437907.2307,438656.6951,424823.6247,425590.4052,426357.221,427123.8998,427890.2337,428656.9923,437917.0067,Mapping
Blocked,Male,cave,11,M_cave.wav,None,736.037395,105,437140.8722,429423.8102,430190.7852,430957.3067,431724.2786,432490.2686,433240.2247,434007.0952,437907.2307,438656.6951,439423.5975,425590.4052,426357.221,427123.8998,427890.2337,428656.9923,438665.6695,Mapping
Blocked,Male,cave,11,M_romp.wav,space,361.2414873,105,437140.8722,429423.8102,430190.7852,430957.3067,431724.2786,432490.2686,433240.2247,434007.0952,437907.2307,438656.6951,439423.5975,440190.2482,426357.221,427123.8998,427890.2337,428656.9923,439433.1754,Mapping
Blocked,Male,cave,11,M_depth.wav,None,730.8278427,105,437140.8722,429423.8102,430190.7852,430957.3067,431724.2786,432490.2686,433240.2247,434007.0952,437907.2307,438656.6951,439423.5975,440190.2482,440956.8457,427123.8998,427890.2337,428656.9923,440199.8492,Mapping
Blocked,Male,cave,11,M_gnash.wav,None,730.040381,105,437140.8722,429423.8102,430190.7852,430957.3067,431724.2786,432490.2686,433240.2247,434007.0952,437907.2307,438656.6951,439423.5975,440190.2482,440956.8457,441723.5586,427890.2337,428656.9923,440966.2273,Mapping
Blocked,Male,cave,11,M_cling.wav,None,729.4062687,105,437140.8722,429423.8102,430190.7852,430957.3067,431724.2786,432490.2686,433240.2247,434007.0952,437907.2307,438656.6951,439423.5975,440190.2482,440956.8457,441723.5586,442489.9598,428656.9923,441732.8223,Mapping
Blocked,Male,cave,11,M_cave.wav,None,729.1496558,105,437140.8722,429423.8102,430190.7852,430957.3067,431724.2786,432490.2686,433240.2247,434007.0952,437907.2307,438656.6951,439423.5975,440190.2482,440956.8457,441723.5586,442489.9598,443256.8167,442498.756,Mapping
Blocked,Male,cave,11,M_depth.wav,space,504.2052062,105,437140.8722,444023.8795,430190.7852,430957.3067,431724.2786,432490.2686,433240.2247,434007.0952,437907.2307,438656.6951,439423.5975,440190.2482,440956.8457,441723.5586,442489.9598,443256.8167,443266.1583,Mapping
Blocked,Male,cave,11,M_ball.wav,None,728.5158527,105,437140.8722,444023.8795,444790.6193,430957.3067,431724.2786,432490.2686,433240.2247,434007.0952,437907.2307,438656.6951,439423.5975,440190.2482,440956.8457,441723.5586,442489.9598,443256.8167,444028.2151,Mapping
Blocked,Male,cave,11,M_cave.wav,None,721.9660387,105,437140.8722,444023.8795,444790.6193,445557.2007,431724.2786,432490.2686,433240.2247,434007.0952,437907.2307,438656.6951,439423.5975,440190.2482,440956.8457,441723.5586,442489.9598,443256.8167,444800.5848,Mapping
Blocked,Male,cave,11,M_cad.wav,space,602.9109185,105,437140.8722,444023.8795,444790.6193,445557.2007,446307.0507,432490.2686,433240.2247,434007.0952,437907.2307,438656.6951,439423.5975,440190.2482,440956.8457,441723.5586,442489.9598,443256.8167,445567.3867,Mapping
Blocked,Male,cave,11,M_knife.wav,None,734.6866215,105,437140.8722,444023.8795,444790.6193,445557.2007,446307.0507,447073.4278,433240.2247,434007.0952,437907.2307,438656.6951,439423.5975,440190.2482,440956.8457,441723.5586,442489.9598,443256.8167,446316.9186,Mapping
Blocked,Male,cave,11,M_cave.wav,None,734.7367074,105,437140.8722,444023.8795,444790.6193,445557.2007,446307.0507,447073.4278,447839.7941,434007.0952,437907.2307,438656.6951,439423.5975,440190.2482,440956.8457,441723.5586,442489.9598,443256.8167,447082.4776,Mapping
Blocked,Male,cave,11,M_greet.wav,space,641.5713617,105,437140.8722,444023.8795,444790.6193,445557.2007,446307.0507,447073.4278,447839.7941,448606.7746,437907.2307,438656.6951,439423.5975,440190.2482,440956.8457,441723.5586,442489.9598,443256.8167,447848.6719,Mapping
Blocked,Male,cave,9,M_bluff.wav,None,730.246908,105,451740.2273,444023.8795,444790.6193,445557.2007,446307.0507,447073.4278,447839.7941,448606.7746,437907.2307,438656.6951,439423.5975,440190.2482,440956.8457,441723.5586,442489.9598,443256.8167,448616.2755,Mapping
Blocked,Male,cave,9,M_dime.wav,None,719.4651444,105,451740.2273,444023.8795,444790.6193,445557.2007,446307.0507,447073.4278,447839.7941,448606.7746,452506.8223,438656.6951,439423.5975,440190.2482,440956.8457,441723.5586,442489.9598,443256.8167,451750.3907,Mapping
Blocked,Male,cave,9,M_greet.wav,None,718.7404447,105,451740.2273,444023.8795,444790.6193,445557.2007,446307.0507,447073.4278,447839.7941,448606.7746,452506.8223,453256.3715,439423.5975,440190.2482,440956.8457,441723.5586,442489.9598,443256.8167,452516.7777,Mapping
Blocked,Male,cave,9,M_cave.wav,None,735.3460859,105,451740.2273,444023.8795,444790.6193,445557.2007,446307.0507,447073.4278,447839.7941,448606.7746,452506.8223,453256.3715,454023.0522,440190.2482,440956.8457,441723.5586,442489.9598,443256.8167,453265.9633,Mapping
Blocked,Male,cave,9,M_cad.wav,space,409.7945149,105,451740.2273,444023.8795,444790.6193,445557.2007,446307.0507,447073.4278,447839.7941,448606.7746,452506.8223,453256.3715,454023.0522,454789.9672,440956.8457,441723.5586,442489.9598,443256.8167,454032.323,Mapping
Blocked,Male,cave,9,M_done.wav,None,731.6533325,105,451740.2273,444023.8795,444790.6193,445557.2007,446307.0507,447073.4278,447839.7941,448606.7746,452506.8223,453256.3715,454023.0522,454789.9672,455556.8189,441723.5586,442489.9598,443256.8167,454799.61,Mapping
Blocked,Male,cave,9,M_romp.wav,None,730.1374611,105,451740.2273,444023.8795,444790.6193,445557.2007,446307.0507,447073.4278,447839.7941,448606.7746,452506.8223,453256.3715,454023.0522,454789.9672,455556.8189,456323.2983,442489.9598,443256.8167,455566.7103,Mapping
Blocked,Male,cave,9,M_cad.wav,None,730.401185,105,451740.2273,444023.8795,444790.6193,445557.2007,446307.0507,447073.4278,447839.7941,448606.7746,452506.8223,453256.3715,454023.0522,454789.9672,455556.8189,456323.2983,457089.8829,443256.8167,456332.3311,Mapping
Blocked,Male,cave,9,M_cave.wav,None,729.534266,105,451740.2273,444023.8795,444790.6193,445557.2007,446307.0507,447073.4278,447839.7941,448606.7746,452506.8223,453256.3715,454023.0522,454789.9672,455556.8189,456323.2983,457089.8829,457856.1415,457099.3092,Mapping
Blocked,Male,cave,9,M_greet.wav,space,544.8625931,105,451740.2273,458623.1858,444790.6193,445557.2007,446307.0507,447073.4278,447839.7941,448606.7746,452506.8223,453256.3715,454023.0522,454789.9672,455556.8189,456323.2983,457089.8829,457856.1415,457865.2368,Mapping
Blocked,Male,cave,9,M_bluff.wav,None,718.2018666,105,451740.2273,458623.1858,459389.8582,445557.2007,446307.0507,447073.4278,447839.7941,448606.7746,452506.8223,453256.3715,454023.0522,454789.9672,455556.8189,456323.2983,457089.8829,457856.1415,458640.5805,Mapping
Blocked,Male,cave,9,M_knife.wav,None,724.8969916,105,451740.2273,458623.1858,459389.8582,460156.0757,446307.0507,447073.4278,447839.7941,448606.7746,452506.8223,453256.3715,454023.0522,454789.9672,455556.8189,456323.2983,457089.8829,457856.1415,459399.6645,Mapping
Blocked,Male,cave,9,M_cave.wav,None,725.4000148,105,451740.2273,458623.1858,459389.8582,460156.0757,460923.4091,447073.4278,447839.7941,448606.7746,452506.8223,453256.3715,454023.0522,454789.9672,455556.8189,456323.2983,457089.8829,457856.1415,460165.1468,Mapping
