"Condition","Talker","Target","Trial","current_stimulus","response_response","response_time_response","subject_nr","time_Audio1","time_Audio10","time_Audio11","time_Audio12","time_Audio13","time_Audio14","time_Audio15","time_Audio16","time_Audio2","time_Audio3","time_Audio4","time_Audio5","time_Audio6","time_Audio7","time_Audio8","time_Audio9","time_response","title"
"Blocked","Female","cave","12","F_cling.wav","NA","NA","142","250939.793157","NA","NA","NA","NA","NA","NA","NA","NA","NA","NA","NA","NA","NA","NA","NA","NA","Mapping"
"Blocked","Female","cave","12","F_gnash.wav","None","714.375595329","142","250939.793157","NA","NA","NA","NA","NA","NA","NA","251706.661415","NA","NA","NA","NA","NA","NA","NA","250956.237461","Mapping"
"Blocked","Female","cave","12","F_cave.wav","None","717.950874241","142","250939.793157","NA","NA","NA","NA","NA","NA","NA","251706.661415","252456.362831","NA","NA","NA","NA","NA","NA","251717.071276","Mapping"
"Blocked","Female","cave","12","F_depth.wav","space","614.396402729","142","250939.793157","NA","NA","NA","NA","NA","NA","NA","251706.661415","252456.362831","253222.761145","NA","NA","NA","NA","NA","252466.795571","Mapping"
"Blocked","Female","cave","12","F_park.wav","None","731.036011595","142","250939.793157","NA","NA","NA","NA","NA","NA","NA","251706.661415","252456.362831","253222.761145","253989.19687","NA","NA","NA","NA","253232.674166","Mapping"
"Blocked","Female","cave","12","F_cave.wav","None","728.519650875","142","250939.793157","NA","NA","NA","NA","NA","NA","NA","251706.661415","252456.362831","253222.761145","253989.19687","254755.93342","NA","NA","NA","254000.188905","Mapping"
"Blocked","Female","cave","12","F_depth.wav","space","396.078385296","142","250939.793157","NA","NA","NA","NA","NA","NA","NA","251706.661415","252456.362831","253222.761145","253989.19687","254755.93342","255522.671516","NA","NA","254765.039498","Mapping"
"Blocked","Female","cave","12","F_cling.wav","None","725.682368502","142","250939.793157","NA","NA","NA","NA","NA","NA","NA","251706.661415","252456.362831","253222.761145","253989.19687","254755.93342","255522.671516","256289.41023","NA","255532.038537","Mapping"
"Blocked","Female","cave","12","F_cad.wav","None","722.54395124","142","250939.793157","NA","NA","NA","NA","NA","NA","NA","251706.661415","252456.362831","253222.761145","253989.19687","254755.93342","255522.671516","256289.41023","257056.30415","256299.884709","Mapping"
"Blocked","Female","cave","12","F_cave.wav","None","721.01879993","142","250939.793157","257822.968044","NA","NA","NA","NA","NA","NA","251706.661415","252456.362831","253222.761145","253989.19687","254755.93342","255522.671516","256289.41023","257056.30415","257066.093501","Mapping"
"Blocked","Female","cave","12","F_depth.wav","space","334.285483812","142","250939.793157","257822.968044","258572.530951","NA","NA","NA","NA","NA","251706.661415","252456.362831","253222.761145","253989.19687","254755.93342","255522.671516","256289.41023","257056.30415","257842.759457","Mapping"
"Blocked","Female","cave","12","F_cave.wav","None","733.938838821","142","250939.793157","257822.968044","258572.530951","259339.120334","NA","NA","NA","NA","251706.661415","252456.362831","253222.761145","253989.19687","254755.93342","255522.671516","256289.41023","257056.30415","258582.063688","Mapping"
"Blocked","Female","cave","12","F_lash.wav","space","460.349928471","142","250939.793157","257822.968044","258572.530951","259339.120334","260105.62655","NA","NA","NA","251706.661415","252456.362831","253222.761145","253989.19687","254755.93342","255522.671516","256289.41023","257056.30415","259348.708723","Mapping"
"Blocked","Female","cave","12","F_tile.wav","None","729.973383364","142","250939.793157","257822.968044","258572.530951","259339.120334","260105.62655","260872.620333","NA","NA","251706.661415","252456.362831","253222.761145","253989.19687","254755.93342","255522.671516","256289.41023","257056.30415","260115.044275","Mapping"
"Blocked","Female","cave","12","F_ball.wav","None","727.621502709","142","250939.793157","257822.968044","258572.530951","259339.120334","260105.62655","260872.620333","261638.731425","NA","251706.661415","252456.362831","253222.761145","253989.19687","254755.93342","255522.671516","256289.41023","257056.30415","260882.057535","Mapping"
"Blocked","Female","cave","12","F_lash.wav","None","726.676051156","142","250939.793157","257822.968044","258572.530951","259339.120334","260105.62655","260872.620333","261638.731425","262405.489308","251706.661415","252456.362831","253222.761145","253989.19687","254755.93342","255522.671516","256289.41023","257056.30415","261647.646744","Mapping"
"Blocked","Female","done","19","F_lash.wav","None","724.108986091","142","265539.336261","257822.968044","258572.530951","259339.120334","260105.62655","260872.620333","261638.731425","262405.489308","251706.661415","252456.362831","253222.761145","253989.19687","254755.93342","255522.671516","256289.41023","257056.30415","262414.78491","Mapping"
"Blocked","Female","done","19","F_reek.wav","None","722.138006939","142","265539.336261","257822.968044","258572.530951","259339.120334","260105.62655","260872.620333","261638.731425","262405.489308","266306.322004","252456.362831","253222.761145","253989.19687","254755.93342","255522.671516","256289.41023","257056.30415","265548.88322","Mapping"
"Blocked","Female","done","19","F_cave.wav","None","719.957717462","142","265539.336261","257822.968044","258572.530951","259339.120334","260105.62655","260872.620333","261638.731425","262405.489308","266306.322004","267055.581612","253222.761145","253989.19687","254755.93342","255522.671516","256289.41023","257056.30415","266315.914412","Mapping"
"Blocked","Female","done","19","F_cling.wav","None","734.993737657","142","265539.336261","257822.968044","258572.530951","259339.120334","260105.62655","260872.620333","261638.731425","262405.489308","266306.322004","267055.581612","267822.888587","253989.19687","254755.93342","255522.671516","256289.41023","257056.30415","267065.317476","Mapping"
"Blocked","Female","done","19","F_done.wav","None","733.215064276","142","265539.336261","257822.968044","258572.530951","259339.120334","260105.62655","260872.620333","261638.731425","262405.489308","266306.322004","267055.581612","267822.888587","268588.92455","254755.93342","255522.671516","256289.41023","257056.30415","267831.878416","Mapping"
"Blocked","Female","done","19","F_cling.wav","space","338.343381998","142","265539.336261","257822.968044","258572.530951","259339.120334","260105.62655","260872.620333","261638.731425","262405.489308","266306.322004","267055.581612","267822.888587","268588.92455","269355.212799","255522.671516","256289.41023","257056.30415","268598.547257","Mapping"
"Blocked","Female","done","19","F_cave.wav","None","730.68479076","142","265539.336261","257822.968044","258572.530951","259339.120334","260105.62655","260872.620333","261638.731425","262405.489308","266306.322004","267055.581612","267822.888587","268588.92455","269355.212799","270122.367042","256289.41023","257056.30415","269363.923445","Mapping"
"Blocked","Female","done","19","F_dime.wav","None","727.247712435","142","265539.336261","257822.968044","258572.530951","259339.120334","260105.62655","260872.620333","261638.731425","262405.489308","266306.322004","267055.581612","267822.888587","268588.92455","269355.212799","270122.367042","270888.557902","257056.30415","270132.168142","Mapping"
"Blocked","Female","done","19","F_reek.wav","space","367.394841625","142","265539.336261","257822.968044","258572.530951","259339.120334","260105.62655","260872.620333","261638.731425","262405.489308","266306.322004","267055.581612","267822.888587","268588.92455","269355.212799","270122.367042","270888.557902","271656.157973","270897.442921","Mapping"
"Blocked","Female","done","19","F_done.wav","None","723.066144856","142","265539.336261","272421.952781","258572.530951","259339.120334","260105.62655","260872.620333","261638.731425","262405.489308","266306.322004","267055.581612","267822.888587","268588.92455","269355.212799","270122.367042","270888.557902","271656.157973","271665.673396","Mapping"
"Blocked","Female","done","19","F_jolt.wav","space","681.967442273","142","265539.336261","272421.952781","273189.212143","259339.120334","260105.62655","260872.620333","261638.731425","262405.489308","266306.322004","267055.581612","267822.888587","268588.92455","269355.212799","270122.367042","270888.557902","271656.157973","272430.812139","Mapping"
"Blocked","Female","done","19","F_reek.wav","None","720.244939323","142","265539.336261","272421.952781","273189.212143","273939.08886","260105.62655","260872.620333","261638.731425","262405.489308","266306.322004","267055.581612","267822.888587","268588.92455","269355.212799","270122.367042","270888.557902","271656.157973","273199.282223","Mapping"
"Blocked","Female","done","19","F_done.wav","None","736.150973011","142","265539.336261","272421.952781","273189.212143","273939.08886","274705.742861","260872.620333","261638.731425","262405.489308","266306.322004","267055.581612","267822.888587","268588.92455","269355.212799","270122.367042","270888.557902","271656.157973","273948.141142","Mapping"
"Blocked","Female","done","19","F_cave.wav","space","485.392030096","142","265539.336261","272421.952781","273189.212143","273939.08886","274705.742861","275472.308129","261638.731425","262405.489308","266306.322004","267055.581612","267822.888587","268588.92455","269355.212799","270122.367042","270888.557902","271656.157973","274715.36495","Mapping"
"Blocked","Female","done","19","F_done.wav","None","731.715265079","142","265539.336261","272421.952781","273189.212143","273939.08886","274705.742861","275472.308129","276238.837534","262405.489308","266306.322004","267055.581612","267822.888587","268588.92455","269355.212799","270122.367042","270888.557902","271656.157973","275481.779032","Mapping"
"Blocked","Female","done","19","F_ball.wav","space","624.517187476","142","265539.336261","272421.952781","273189.212143","273939.08886","274705.742861","275472.308129","276238.837534","277005.365083","266306.322004","267055.581612","267822.888587","268588.92455","269355.212799","270122.367042","270888.557902","271656.157973","276248.219703","Mapping"
"Blocked","Female","tile","13","F_gnash.wav","None","728.137203609","142","280139.212653","272421.952781","273189.212143","273939.08886","274705.742861","275472.308129","276238.837534","277005.365083","266306.322004","267055.581612","267822.888587","268588.92455","269355.212799","270122.367042","270888.557902","271656.157973","277014.775696","Mapping"
"Blocked","Female","tile","13","F_bluff.wav","None","720.45084869","142","280139.212653","272421.952781","273189.212143","273939.08886","274705.742861","275472.308129","276238.837534","277005.365083","280906.060197","267055.581612","267822.888587","268588.92455","269355.212799","270122.367042","270888.557902","271656.157973","280149.579231","Mapping"
"Blocked","Female","tile","13","F_jaw.wav","None","719.004845712","142","280139.212653","272421.952781","273189.212143","273939.08886","274705.742861","275472.308129","276238.837534","277005.365083","280906.060197","281655.287032","267822.888587","268588.92455","269355.212799","270122.367042","270888.557902","271656.157973","280915.77009","Mapping"
"Blocked","Female","tile","13","F_romp.wav","None","734.759384417","142","280139.212653","272421.952781","273189.212143","273939.08886","274705.742861","275472.308129","276238.837534","277005.365083","280906.060197","281655.287032","282422.168893","268588.92455","269355.212799","270122.367042","270888.557902","271656.157973","281664.930144","Mapping"
"Blocked","Female","tile","13","F_romp.wav","None","732.85920592","142","280139.212653","272421.952781","273189.212143","273939.08886","274705.742861","275472.308129","276238.837534","277005.365083","280906.060197","281655.287032","282422.168893","283188.590705","269355.212799","270122.367042","270888.557902","271656.157973","282431.901975","Mapping"
"Blocked","Female","tile","13","F_cling.wav","None","731.863359106","142","280139.212653","272421.952781","273189.212143","273939.08886","274705.742861","275472.308129","276238.837534","277005.365083","280906.060197","281655.287032","282422.168893","283188.590705","283955.308396","270122.367042","270888.557902","271656.157973","283197.664938","Mapping"
"Blocked","Female","tile","13","F_cling.wav","None","729.349471745","142","280139.212653","272421.952781","273189.212143","273939.08886","274705.742861","275472.308129","276238.837534","277005.365083","280906.060197","281655.287032","282422.168893","283188.590705","283955.308396","284722.186856","270888.557902","271656.157973","283965.100838","Mapping"
"Blocked","Female","tile","13","F_tile.wav","None","727.926965919","142","280139.212653","272421.952781","273189.212143","273939.08886","274705.742861","275472.308129","276238.837534","277005.365083","280906.060197","281655.287032","282422.168893","283188.590705","283955.308396","284722.186856","285488.34989","271656.157973","284731.614784","Mapping"
"Blocked","Female","tile","13","F_priest.wav","space","631.073514349","142","280139.212653","272421.952781","273189.212143","273939.08886","274705.742861","275472.308129","276238.837534","277005.365083","280906.060197","281655.287032","282422.168893","283188.590705","283955.308396","284722.186856","285488.34989","286254.870637","285497.506673","Mapping"
"Blocked","Female","tile","13","F_tile.wav","None","725.227883784","142","280139.212653","287022.016533","273189.212143","273939.08886","274705.742861","275472.308129","276238.837534","277005.365083","280906.060197","281655.287032","282422.168893","283188.590705","283955.308396","284722.186856","285488.34989","286254.870637","286263.613128","Mapping"
"Blocked","Female","tile","13","F_jaw.wav","space","689.388217288","142","280139.212653","287022.016533","287788.944461","273939.08886","274705.742861","275472.308129","276238.837534","277005.365083","280906.060197","281655.287032","282422.168893","283188.590705","283955.308396","284722.186856","285488.34989","286254.870637","287031.138688","Mapping"
"Blocked","Female","tile","13","F_tile.wav","None","719.598458149","142","280139.212653","287022.016533","287788.944461","288538.909911","274705.742861","275472.308129","276238.837534","277005.365083","280906.060197","281655.287032","282422.168893","283188.590705","283955.308396","284722.186856","285488.34989","286254.870637","287798.735358","Mapping"
"Blocked","Female","tile","13","F_cave.wav","space","658.056914457","142","280139.212653","287022.016533","287788.944461","288538.909911","289305.184865","275472.308129","276238.837534","277005.365083","280906.060197","281655.287032","282422.168893","283188.590705","283955.308396","284722.186856","285488.34989","286254.870637","288542.448089","Mapping"
"Blocked","Female","tile","13","F_cling.wav","None","733.525783406","142","280139.212653","287022.016533","287788.944461","288538.909911","289305.184865","290071.666348","276238.837534","277005.365083","280906.060197","281655.287032","282422.168893","283188.590705","283955.308396","284722.186856","285488.34989","286254.870637","289315.12602","Mapping"
"Blocked","Female","tile","13","F_tile.wav","None","733.017193386","142","280139.212653","287022.016533","287788.944461","288538.909911","289305.184865","290071.666348","290838.507089","277005.365083","280906.060197","281655.287032","282422.168893","283188.590705","283955.308396","284722.186856","285488.34989","286254.870637","290080.560642","Mapping"
"Blocked","Female","tile","13","F_jaw.wav","space","504.92775708","142","280139.212653","287022.016533","287788.944461","288538.909911","289305.184865","290071.666348","290838.507089","291605.086579","280906.060197","281655.287032","282422.168893","283188.590705","283955.308396","284722.186856","285488.34989","286254.870637","290847.53371","Mapping"
"Blocked","Female","ball","1","F_done.wav","None","728.631880716","142","294738.924257","287022.016533","287788.944461","288538.909911","289305.184865","290071.666348","290838.507089","291605.086579","280906.060197","281655.287032","282422.168893","283188.590705","283955.308396","284722.186856","285488.34989","286254.870637","291614.502758","Mapping"
"Blocked","Female","ball","1","F_depth.wav","None","720.393651747","142","294738.924257","287022.016533","287788.944461","288538.909911","289305.184865","290071.666348","290838.507089","291605.086579","295504.915699","281655.287032","282422.168893","283188.590705","283955.308396","284722.186856","285488.34989","286254.870637","294749.274757","Mapping"
"Blocked","Female","ball","1","F_ball.wav","None","720.351294964","142","294738.924257","287022.016533","287788.944461","288538.909911","289305.184865","290071.666348","290838.507089","291605.086579","295504.915699","296255.10901","282422.168893","283188.590705","283955.308396","284722.186856","285488.34989","286254.870637","295514.086395","Mapping"
"Blocked","Female","ball","1","F_jolt.wav","space","471.981951734","142","294738.924257","287022.016533","287788.944461","288538.909911","289305.184865","290071.666348","290838.507089","291605.086579","295504.915699","296255.10901","297021.900284","283188.590705","283955.308396","284722.186856","285488.34989","286254.870637","296264.399974","Mapping"
"Blocked","Female","ball","1","F_ball.wav","None","732.326809666","142","294738.924257","287022.016533","287788.944461","288538.909911","289305.184865","290071.666348","290838.507089","291605.086579","295504.915699","296255.10901","297021.900284","297788.354868","283955.308396","284722.186856","285488.34989","286254.870637","297031.356964","Mapping"
"Blocked","Female","ball","1","F_cad.wav","space","538.376278011","142","294738.924257","287022.016533","287788.944461","288538.909911","289305.184865","290071.666348","290838.507089","291605.086579","295504.915699","296255.10901","297021.900284","297788.354868","298555.258062","284722.186856","285488.34989","286254.870637","297797.974173","Mapping"
"Blocked","Female","ball","1","F_bluff.wav","None","728.547167382","142","294738.924257","287022.016533","287788.944461","288538.909911","289305.184865","290071.666348","290838.507089","291605.086579","295504.915699","296255.10901","297021.900284","297788.354868","298555.258062","299321.601344","285488.34989","286254.870637","298564.280973","Mapping"
"Blocked","Female","ball","1","F_lash.wav","None","726.668940159","142","294738.924257","287022.016533","287788.944461","288538.909911","289305.184865","290071.666348","290838.507089","291605.086579","295504.915699","296255.10901","297021.900284","297788.354868","298555.258062","299321.601344","300089.155657","286254.870637","299330.868811","Mapping"
"Blocked","Female","ball","1","F_depth.wav","None","723.209910328","142","294738.924257","287022.016533","287788.944461","288538.909911","289305.184865","290071.666348","290838.507089","291605.086579","295504.915699","296255.10901","297021.900284","297788.354868","298555.258062","299321.601344","300089.155657","300855.60715","300099.204095","Mapping"
"Blocked","Female","ball","1","F_ball.wav","None","721.863151994","142","294738.924257","301622.129443","287788.944461","288538.909911","289305.184865","290071.666348","290838.507089","291605.086579","295504.915699","296255.10901","297021.900284","297788.354868","298555.258062","299321.601344","300089.155657","300855.60715","300865.420925","Mapping"
"Blocked","Female","ball","1","F_lash.wav","space","384.243544424","142","294738.924257","301622.129443","302371.663596","288538.909911","289305.184865","290071.666348","290838.507089","291605.086579","295504.915699","296255.10901","297021.900284","297788.354868","298555.258062","299321.601344","300089.155657","300855.60715","301632.060395","Mapping"
"Blocked","Female","ball","1","F_park.wav","None","735.506965197","142","294738.924257","301622.129443","302371.663596","303138.302138","289305.184865","290071.666348","290838.507089","291605.086579","295504.915699","296255.10901","297021.900284","297788.354868","298555.258062","299321.601344","300089.155657","300855.60715","302381.222304","Mapping"
"Blocked","Female","ball","1","F_cave.wav","None","733.514343854","142","294738.924257","301622.129443","302371.663596","303138.302138","303905.013645","290071.666348","290838.507089","291605.086579","295504.915699","296255.10901","297021.900284","297788.354868","298555.258062","299321.601344","300089.155657","300855.60715","303148.179913","Mapping"
"Blocked","Female","ball","1","F_dime.wav","None","731.981772347","142","294738.924257","301622.129443","302371.663596","303138.302138","303905.013645","304671.457099","290838.507089","291605.086579","295504.915699","296255.10901","297021.900284","297788.354868","298555.258062","299321.601344","300089.155657","300855.60715","303914.656448","Mapping"
"Blocked","Female","ball","1","F_ball.wav","None","731.357551645","142","294738.924257","301622.129443","302371.663596","303138.302138","303905.013645","304671.457099","305438.236006","291605.086579","295504.915699","296255.10901","297021.900284","297788.354868","298555.258062","299321.601344","300089.155657","300855.60715","304680.168054","Mapping"
"Blocked","Female","ball","1","F_gnash.wav","space","400.382385356","142","294738.924257","301622.129443","302371.663596","303138.302138","303905.013645","304671.457099","305438.236006","306204.901137","295504.915699","296255.10901","297021.900284","297788.354868","298555.258062","299321.601344","300089.155657","300855.60715","305447.822849","Mapping"
"Blocked","Female","cave","11","F_ball.wav","None","726.566912956","142","309338.857537","301622.129443","302371.663596","303138.302138","303905.013645","304671.457099","305438.236006","306204.901137","295504.915699","296255.10901","297021.900284","297788.354868","298555.258062","299321.601344","300089.155657","300855.60715","306214.803336","Mapping"
"Blocked","Female","cave","11","F_jolt.wav","None","720.649028779","142","309338.857537","301622.129443","302371.663596","303138.302138","303905.013645","304671.457099","305438.236006","306204.901137","310105.406728","296255.10901","297021.900284","297788.354868","298555.258062","299321.601344","300089.155657","300855.60715","309348.708413","Mapping"
"Blocked","Female","cave","11","F_tile.wav","None","719.192204648","142","309338.857537","301622.129443","302371.663596","303138.302138","303905.013645","304671.457099","305438.236006","306204.901137","310105.406728","310854.55627","297021.900284","297788.354868","298555.258062","299321.601344","300089.155657","300855.60715","310115.023251","Mapping"
"Blocked","Female","cave","11","F_cave.wav","None","735.066702473","142","309338.857537","301622.129443","302371.663596","303138.302138","303905.013645","304671.457099","305438.236006","306204.901137","310105.406728","310854.55627","311621.379388","297788.354868","298555.258062","299321.601344","300089.155657","300855.60715","310864.037685","Mapping"
"Blocked","Female","cave","11","F_knife.wav","space","345.499814139","142","309338.857537","301622.129443","302371.663596","303138.302138","303905.013645","304671.457099","305438.236006","306204.901137","310105.406728","310854.55627","311621.379388","312388.095533","298555.258062","299321.601344","300089.155657","300855.60715","311630.604498","Mapping"
"Blocked","Female","cave","11","F_cling.wav","None","731.119797449","142","309338.857537","301622.129443","302371.663596","303138.302138","303905.013645","304671.457099","305438.236006","306204.901137","310105.406728","310854.55627","311621.379388","312388.095533","313154.799929","299321.601344","300089.155657","300855.60715","312397.544794","Mapping"
"Blocked","Female","cave","11","F_cad.wav","None","729.239406064","142","309338.857537","301622.129443","302371.663596","303138.302138","303905.013645","304671.457099","305438.236006","306204.901137","310105.406728","310854.55627","311621.379388","312388.095533","313154.799929","313921.63356","300089.155657","300855.60715","313164.390173","Mapping"
"Blocked","Female","cave","11","F_cave.wav","None","727.065918618","142","309338.857537","301622.129443","302371.663596","303138.302138","303905.013645","304671.457099","305438.236006","306204.901137","310105.406728","310854.55627","311621.379388","312388.095533","313154.799929","313921.63356","314688.150906","300855.60715","313931.573478","Mapping"
"Blocked","Female","cave","11","F_jolt.wav","space","302.420238731","142","309338.857537","301622.129443","302371.663596","303138.302138","303905.013645","304671.457099","305438.236006","306204.901137","310105.406728","310854.55627","311621.379388","312388.095533","313154.799929","313921.63356","314688.150906","315454.998449","314697.623973","Mapping"
"Blocked","Female","cave","11","F_cling.wav","None","723.102008924","142","309338.857537","316221.887422","302371.663596","303138.302138","303905.013645","304671.457099","305438.236006","306204.901137","310105.406728","310854.55627","311621.379388","312388.095533","313154.799929","313921.63356","314688.150906","315454.998449","315464.997729","Mapping"
"Blocked","Female","cave","11","F_tile.wav","None","721.169985598","142","309338.857537","316221.887422","316988.204115","303138.302138","303905.013645","304671.457099","305438.236006","306204.901137","310105.406728","310854.55627","311621.379388","312388.095533","313154.799929","313921.63356","314688.150906","315454.998449","316232.024593","Mapping"
"Blocked","Female","cave","11","F_cave.wav","None","720.181249781","142","309338.857537","316221.887422","316988.204115","317738.341465","303905.013645","304671.457099","305438.236006","306204.901137","310105.406728","310854.55627","311621.379388","312388.095533","313154.799929","313921.63356","314688.150906","315454.998449","316998.005833","Mapping"
"Blocked","Female","cave","11","F_bluff.wav","space","338.078111294","142","309338.857537","316221.887422","316988.204115","317738.341465","318504.952182","304671.457099","305438.236006","306204.901137","310105.406728","310854.55627","311621.379388","312388.095533","313154.799929","313921.63356","314688.150906","315454.998449","317749.907016","Mapping"
"Blocked","Female","cave","11","F_lash.wav","None","733.064187691","142","309338.857537","316221.887422","316988.204115","317738.341465","318504.952182","319271.540947","305438.236006","306204.901137","310105.406728","310854.55627","311621.379388","312388.095533","313154.799929","313921.63356","314688.150906","315454.998449","318514.925182","Mapping"
"Blocked","Female","cave","11","F_cave.wav","None","731.651266338","142","309338.857537","316221.887422","316988.204115","317738.341465","318504.952182","319271.540947","320037.989348","306204.901137","310105.406728","310854.55627","311621.379388","312388.095533","313154.799929","313921.63356","314688.150906","315454.998449","319281.351631","Mapping"
"Blocked","Female","cave","11","F_knife.wav","space","556.137041654","142","309338.857537","316221.887422","316988.204115","317738.341465","318504.952182","319271.540947","320037.989348","320804.86348","310105.406728","310854.55627","311621.379388","312388.095533","313154.799929","313921.63356","314688.150906","315454.998449","320043.811697","Mapping"
"Blocked","Female","tile","16","F_ball.wav","None","728.310340666","142","323938.218229","316221.887422","316988.204115","317738.341465","318504.952182","319271.540947","320037.989348","320804.86348","310105.406728","310854.55627","311621.379388","312388.095533","313154.799929","313921.63356","314688.150906","315454.998449","320814.104667","Mapping"
"Blocked","Female","tile","16","F_cave.wav","None","719.225595356","142","323938.218229","316221.887422","316988.204115","317738.341465","318504.952182","319271.540947","320037.989348","320804.86348","324704.716097","310854.55627","311621.379388","312388.095533","313154.799929","313921.63356","314688.150906","315454.998449","323949.922289","Mapping"
"Blocked","Female","tile","16","F_jolt.wav","None","719.282483216","142","323938.218229","316221.887422","316988.204115","317738.341465","318504.952182","319271.540947","320037.989348","320804.86348","324704.716097","325454.424315","311621.379388","312388.095533","313154.799929","313921.63356","314688.150906","315454.998449","324715.018366","Mapping"
"Blocked","Female","tile","16","F_knife.wav","None","735.315587022","142","323938.218229","316221.887422","316988.204115","317738.341465","318504.952182","319271.540947","320037.989348","320804.86348","324704.716097","325454.424315","326221.328128","312388.095533","313154.799929","313921.63356","314688.150906","315454.998449","325464.095562","Mapping"
"Blocked","Female","tile","16","F_park.wav","None","733.327912516","142","323938.218229","316221.887422","316988.204115","317738.341465","318504.952182","319271.540947","320037.989348","320804.86348","324704.716097","325454.424315","326221.328128","326988.045818","313154.799929","313921.63356","314688.150906","315454.998449","326231.166019","Mapping"
"Blocked","Female","tile","16","F_greet.wav","None","731.239138287","142","323938.218229","316221.887422","316988.204115","317738.341465","318504.952182","319271.540947","320037.989348","320804.86348","324704.716097","325454.424315","326221.328128","326988.045818","327754.488654","313921.63356","314688.150906","315454.998449","326998.241423","Mapping"
"Blocked","Female","tile","16","F_tile.wav","None","728.348369012","142","323938.218229","316221.887422","316988.204115","317738.341465","318504.952182","319271.540947","320037.989348","320804.86348","324704.716097","325454.424315","326221.328128","326988.045818","327754.488654","328520.982194","314688.150906","315454.998449","327766.183748","Mapping"
"Blocked","Female","tile","16","F_greet.wav","space","549.272159929","142","323938.218229","316221.887422","316988.204115","317738.341465","318504.952182","319271.540947","320037.989348","320804.86348","324704.716097","325454.424315","326221.328128","326988.045818","327754.488654","328520.982194","329287.551172","315454.998449","328530.528535","Mapping"
"Blocked","Female","tile","16","F_tile.wav","None","727.06870106","142","323938.218229","316221.887422","316988.204115","317738.341465","318504.952182","319271.540947","320037.989348","320804.86348","324704.716097","325454.424315","326221.328128","326988.045818","327754.488654","328520.982194","329287.551172","330054.108711","329297.182845","Mapping"
"Blocked","Female","tile","16","F_reek.wav","space","648.190270178","142","323938.218229","330821.645092","316988.204115","317738.341465","318504.952182","319271.540947","320037.989348","320804.86348","324704.716097","325454.424315","326221.328128","326988.045818","327754.488654","328520.982194","329287.551172","330054.108711","330063.570647","Mapping"
"Blocked","Female","tile","16","F_gnash.wav","None","721.852640039","142","323938.218229","330821.645092","331588.085763","317738.341465","318504.952182","319271.540947","320037.989348","320804.86348","324704.716097","325454.424315","326221.328128","326988.045818","327754.488654","328520.982194","329287.551172","330054.108711","330832.226545","Mapping"
"Blocked","Female","tile","16","F_cling.wav","None","721.320243785","142","323938.218229","330821.645092","331588.085763","332354.747494","318504.952182","319271.540947","320037.989348","320804.86348","324704.716097","325454.424315","326221.328128","326988.045818","327754.488654","328520.982194","329287.551172","330054.108711","331597.955809","Mapping"
"Blocked","Female","tile","16","F_tile.wav","None","716.754064779","142","323938.218229","330821.645092","331588.085763","332354.747494","333104.303907","319271.540947","320037.989348","320804.86348","324704.716097","325454.424315","326221.328128","326988.045818","327754.488654","328520.982194","329287.551172","330054.108711","332367.737096","Mapping"
"Blocked","Female","tile","16","F_done.wav","space","677.404355025","142","323938.218229","330821.645092","331588.085763","332354.747494","333104.303907","333871.302636","320037.989348","320804.86348","324704.716097","325454.424315","326221.328128","326988.045818","327754.488654","328520.982194","329287.551172","330054.108711","333114.285564","Mapping"
"Blocked","Female","tile","16","F_tile.wav","None","733.526710887","142","323938.218229","330821.645092","331588.085763","332354.747494","333104.303907","333871.302636","334637.79494","320804.86348","324704.716097","325454.424315","326221.328128","326988.045818","327754.488654","328520.982194","329287.551172","330054.108711","333880.671203","Mapping"
"Blocked","Female","tile","16","F_dime.wav","None","731.439482537","142","323938.218229","330821.645092","331588.085763","332354.747494","333104.303907","333871.302636","334637.79494","335404.67711","324704.716097","325454.424315","326221.328128","326988.045818","327754.488654","328520.982194","329287.551172","330054.108711","334647.729293","Mapping"
"Blocked","Female","cave","8","F_cling.wav","space","65.2108112117","142","338537.949928","330821.645092","331588.085763","332354.747494","333104.303907","333871.302636","334637.79494","335404.67711","324704.716097","325454.424315","326221.328128","326988.045818","327754.488654","328520.982194","329287.551172","330054.108711","335414.453167","Mapping"
"Blocked","Female","cave","8","F_park.wav","None","720.838551875","142","338537.949928","330821.645092","331588.085763","332354.747494","333104.303907","333871.302636","334637.79494","335404.67711","339304.794071","325454.424315","326221.328128","326988.045818","327754.488654","328520.982194","329287.551172","330054.108711","338548.542202","Mapping"
"Blocked","Female","cave","8","F_bluff.wav","None","719.570941757","142","338537.949928","330821.645092","331588.085763","332354.747494","333104.303907","333871.302636","334637.79494","335404.67711","339304.794071","340054.081194","326221.328128","326988.045818","327754.488654","328520.982194","329287.551172","330054.108711","339314.803244","Mapping"
"Blocked","Female","cave","8","F_cave.wav","None","735.975980991","142","338537.949928","330821.645092","331588.085763","332354.747494","333104.303907","333871.302636","334637.79494","335404.67711","339304.794071","340054.081194","340820.648318","326988.045818","327754.488654","328520.982194","329287.551172","330054.108711","340063.534474","Mapping"
"Blocked","Female","cave","8","F_romp.wav","space","376.155882608","142","338537.949928","330821.645092","331588.085763","332354.747494","333104.303907","333871.302636","334637.79494","335404.67711","339304.794071","340054.081194","340820.648318","341587.285314","327754.488654","328520.982194","329287.551172","330054.108711","340831.433516","Mapping"
"Blocked","Female","cave","8","F_cave.wav","None","732.05473728","142","338537.949928","330821.645092","331588.085763","332354.747494","333104.303907","333871.302636","334637.79494","335404.67711","339304.794071","340054.081194","340820.648318","341587.285314","342353.893866","328520.982194","329287.551172","330054.108711","341597.077757","Mapping"
"Blocked","Female","cave","8","F_jaw.wav","space","596.098605311","142","338537.949928","330821.645092","331588.085763","332354.747494","333104.303907","333871.302636","334637.79494","335404.67711","339304.794071","340054.081194","340820.648318","341587.285314","342353.893866","343120.794278","329287.551172","330054.108711","342363.430314","Mapping"
"Blocked","Female","cave","8","F_lash.wav","None","728.784921579","142","338537.949928","330821.645092","331588.085763","332354.747494","333104.303907","333871.302636","334637.79494","335404.67711","339304.794071","340054.081194","340820.648318","341587.285314","342353.893866","343120.794278","343887.81434","330054.108711","343130.194689","Mapping"
"Blocked","Female","cave","8","F_knife.wav","None","726.831874461","142","338537.949928","330821.645092","331588.085763","332354.747494","333104.303907","333871.302636","334637.79494","335404.67711","339304.794071","340054.081194","340820.648318","341587.285314","342353.893866","343120.794278","343887.81434","344654.425366","343897.4995","Mapping"
"Blocked","Female","cave","8","F_cave.wav","None","725.54602311","142","338537.949928","345421.44821","331588.085763","332354.747494","333104.303907","333871.302636","334637.79494","335404.67711","339304.794071","340054.081194","340820.648318","341587.285314","342353.893866","343120.794278","343887.81434","344654.425366","344663.678611","Mapping"
"Blocked","Female","cave","8","F_tile.wav","space","488.032678375","142","338537.949928","345421.44821","346187.880534","332354.747494","333104.303907","333871.302636","334637.79494","335404.67711","339304.794071","340054.081194","340820.648318","341587.285314","342353.893866","343120.794278","343887.81434","344654.425366","345431.465731","Mapping"
"Blocked","Female","cave","8","F_cave.wav","None","721.02250997","142","338537.949928","345421.44821","346187.880534","346954.83567","333104.303907","333871.302636","334637.79494","335404.67711","339304.794071","340054.081194","340820.648318","341587.285314","342353.893866","343120.794278","343887.81434","344654.425366","346197.951542","Mapping"
"Blocked","Female","cave","8","F_done.wav","space","657.100641751","142","338537.949928","345421.44821","346187.880534","346954.83567","347704.09435","333871.302636","334637.79494","335404.67711","339304.794071","340054.081194","340820.648318","341587.285314","342353.893866","343120.794278","343887.81434","344654.425366","346966.384835","Mapping"
"Blocked","Female","cave","8","F_knife.wav","None","734.329015249","142","338537.949928","345421.44821","346187.880534","346954.83567","347704.09435","348470.966008","334637.79494","335404.67711","339304.794071","340054.081194","340820.648318","341587.285314","342353.893866","343120.794278","343887.81434","344654.425366","347714.275732","Mapping"
"Blocked","Female","cave","8","F_priest.wav","None","733.020285144","142","338537.949928","345421.44821","346187.880534","346954.83567","347704.09435","348470.966008","349237.42523","335404.67711","339304.794071","340054.081194","340820.648318","341587.285314","342353.893866","343120.794278","343887.81434","344654.425366","348480.858623","Mapping"
"Blocked","Female","cave","8","F_jaw.wav","None","732.109460863","142","338537.949928","345421.44821","346187.880534","346954.83567","347704.09435","348470.966008","349237.42523","350004.084796","339304.794071","340054.081194","340820.648318","341587.285314","342353.893866","343120.794278","343887.81434","344654.425366","349246.833371","Mapping"
"Blocked","Female","done","24","F_park.wav","None","729.738411726","142","353137.839615","345421.44821","346187.880534","346954.83567","347704.09435","348470.966008","349237.42523","350004.084796","339304.794071","340054.081194","340820.648318","341587.285314","342353.893866","343120.794278","343887.81434","344654.425366","350014.338835","Mapping"
"Blocked","Female","done","24","F_jaw.wav","None","721.239240374","142","353137.839615","345421.44821","346187.880534","346954.83567","347704.09435","348470.966008","349237.42523","350004.084796","353904.083343","340054.081194","340820.648318","341587.285314","342353.893866","343120.794278","343887.81434","344654.425366","353148.212067","Mapping"
"Blocked","Female","done","24","F_done.wav","None","721.318697906","142","353137.839615","345421.44821","346187.880534","346954.83567","347704.09435","348470.966008","349237.42523","350004.084796","353904.083343","354671.384753","340820.648318","341587.285314","342353.893866","343120.794278","343887.81434","344654.425366","353913.544661","Mapping"
"Blocked","Female","done","24","F_jaw.wav","space","565.91990008","142","353137.839615","345421.44821","346187.880534","346954.83567","347704.09435","348470.966008","349237.42523","350004.084796","353904.083343","354671.384753","355420.714233","341587.285314","342353.893866","343120.794278","343887.81434","344654.425366","354681.439065","Mapping"
"Blocked","Female","done","24","F_gnash.wav","None","734.415583778","142","353137.839615","345421.44821","346187.880534","346954.83567","347704.09435","348470.966008","349237.42523","350004.084796","353904.083343","354671.384753","355420.714233","356187.006811","342353.893866","343120.794278","343887.81434","344654.425366","355430.387335","Mapping"
"Blocked","Female","done","24","F_jolt.wav","None","733.825681265","142","353137.839615","345421.44821","346187.880534","346954.83567","347704.09435","348470.966008","349237.42523","350004.084796","353904.083343","354671.384753","355420.714233","356187.006811","356954.017288","343120.794278","343887.81434","344654.425366","356196.223264","Mapping"
"Blocked","Female","done","24","F_greet.wav","None","730.258750147","142","353137.839615","345421.44821","346187.880534","346954.83567","347704.09435","348470.966008","349237.42523","350004.084796","353904.083343","354671.384753","355420.714233","356187.006811","356954.017288","357721.042606","343887.81434","344654.425366","356964.96944","Mapping"
"Blocked","Female","done","24","F_jaw.wav","None","729.073689319","142","353137.839615","345421.44821","346187.880534","346954.83567","347704.09435","348470.966008","349237.42523","350004.084796","353904.083343","354671.384753","355420.714233","356187.006811","356954.017288","357721.042606","358486.995711","344654.425366","357731.319523","Mapping"
"Blocked","Female","done","24","F_done.wav","None","729.516734486","142","353137.839615","345421.44821","346187.880534","346954.83567","347704.09435","348470.966008","349237.42523","350004.084796","353904.083343","354671.384753","355420.714233","356187.006811","356954.017288","357721.042606","358486.995711","359253.621887","358496.214019","Mapping"
"Blocked","Female","done","24","F_greet.wav","space","360.371354152","142","353137.839615","360020.756961","346187.880534","346954.83567","347704.09435","348470.966008","349237.42523","350004.084796","353904.083343","354671.384753","355420.714233","356187.006811","356954.017288","357721.042606","358486.995711","359253.621887","359262.855963","Mapping"
"Blocked","Female","done","24","F_done.wav","None","725.513559883","142","353137.839615","360020.756961","360787.238443","346954.83567","347704.09435","348470.966008","349237.42523","350004.084796","353904.083343","354671.384753","355420.714233","356187.006811","356954.017288","357721.042606","358486.995711","359253.621887","360030.417696","Mapping"
"Blocked","Female","done","24","F_cling.wav","space","602.507456439","142","353137.839615","360020.756961","360787.238443","361554.256341","347704.09435","348470.966008","349237.42523","350004.084796","353904.083343","354671.384753","355420.714233","356187.006811","356954.017288","357721.042606","358486.995711","359253.621887","360796.713984","Mapping"
"Blocked","Female","done","24","F_cling.wav","None","721.549031907","142","353137.839615","360020.756961","360787.238443","361554.256341","362321.036485","348470.966008","349237.42523","350004.084796","353904.083343","354671.384753","355420.714233","356187.006811","356954.017288","357721.042606","358486.995711","359253.621887","361564.620445","Mapping"
"Blocked","Female","done","24","F_priest.wav","None","720.369226998","142","353137.839615","360020.756961","360787.238443","361554.256341","362321.036485","363087.125626","349237.42523","350004.084796","353904.083343","354671.384753","355420.714233","356187.006811","356954.017288","357721.042606","358486.995711","359253.621887","362331.152941","Mapping"
"Blocked","Female","done","24","F_done.wav","None","720.290387748","142","353137.839615","360020.756961","360787.238443","361554.256341","362321.036485","363087.125626","363837.275961","350004.084796","353904.083343","354671.384753","355420.714233","356187.006811","356954.017288","357721.042606","358486.995711","359253.621887","363096.784197","Mapping"
"Blocked","Female","done","24","F_bluff.wav","space","400.102892774","142","353137.839615","360020.756961","360787.238443","361554.256341","362321.036485","363087.125626","363837.275961","364603.836283","353904.083343","354671.384753","355420.714233","356187.006811","356954.017288","357721.042606","358486.995711","359253.621887","363847.062221","Mapping"
"Blocked","Female","ball","2","F_depth.wav","None","732.883012271","142","367736.708103","360020.756961","360787.238443","361554.256341","362321.036485","363087.125626","363837.275961","364603.836283","353904.083343","354671.384753","355420.714233","356187.006811","356954.017288","357721.042606","358486.995711","359253.621887","364613.756105","Mapping"
"Blocked","Female","ball","2","F_ball.wav","None","729.776749155","142","367736.708103","360020.756961","360787.238443","361554.256341","362321.036485","363087.125626","363837.275961","364603.836283","368504.336927","354671.384753","355420.714233","356187.006811","356954.017288","357721.042606","358486.995711","359253.621887","367740.525465","Mapping"
"Blocked","Female","ball","2","F_romp.wav","space","459.985413239","142","367736.708103","360020.756961","360787.238443","361554.256341","362321.036485","363087.125626","363837.275961","364603.836283","368504.336927","369271.141186","355420.714233","356187.006811","356954.017288","357721.042606","358486.995711","359253.621887","368515.125526","Mapping"
"Blocked","Female","ball","2","F_lash.wav","None","719.768812647","142","367736.708103","360020.756961","360787.238443","361554.256341","362321.036485","363087.125626","363837.275961","364603.836283","368504.336927","369271.141186","370037.581239","356187.006811","356954.017288","357721.042606","358486.995711","359253.621887","369281.486121","Mapping"
"Blocked","Female","ball","2","F_jolt.wav","None","719.004845712","142","367736.708103","360020.756961","360787.238443","361554.256341","362321.036485","363087.125626","363837.275961","364603.836283","368504.336927","369271.141186","370037.581239","370786.930198","356954.017288","357721.042606","358486.995711","359253.621887","370047.704806","Mapping"
"Blocked","Female","ball","2","F_priest.wav","None","735.113696894","142","367736.708103","360020.756961","360787.238443","361554.256341","362321.036485","363087.125626","363837.275961","364603.836283","368504.336927","369271.141186","370037.581239","370786.930198","371553.709723","357721.042606","358486.995711","359253.621887","370796.700689","Mapping"
"Blocked","Female","ball","2","F_ball.wav","None","733.698301949","142","367736.708103","360020.756961","360787.238443","361554.256341","362321.036485","363087.125626","363837.275961","364603.836283","368504.336927","369271.141186","370037.581239","370786.930198","371553.709723","372320.515528","358486.995711","359253.621887","371563.325628","Mapping"
"Blocked","Female","ball","2","F_greet.wav","None","731.230790727","142","367736.708103","360020.756961","360787.238443","361554.256341","362321.036485","363087.125626","363837.275961","364603.836283","368504.336927","369271.141186","370037.581239","370786.930198","371553.709723","372320.515528","373087.103366","359253.621887","372331.045349","Mapping"
"Blocked","Female","ball","2","F_ball.wav","space","0.0336999073625","142","367736.708103","360020.756961","360787.238443","361554.256341","362321.036485","363087.125626","363837.275961","364603.836283","368504.336927","369271.141186","370037.581239","370786.930198","371553.709723","372320.515528","373087.103366","373853.785192","373096.505941","Mapping"
"Blocked","Female","ball","2","F_depth.wav","None","728.183270548","142","367736.708103","374620.478149","360787.238443","361554.256341","362321.036485","363087.125626","363837.275961","364603.836283","368504.336927","369271.141186","370037.581239","370786.930198","371553.709723","372320.515528","373087.103366","373853.785192","373864.047578","Mapping"
"Blocked","Female","ball","2","F_tile.wav","space","80.5380726233","142","367736.708103","374620.478149","375386.905526","361554.256341","362321.036485","363087.125626","363837.275961","364603.836283","368504.336927","369271.141186","370037.581239","370786.930198","371553.709723","372320.515528","373087.103366","373853.785192","374630.445893","Mapping"
"Blocked","Female","ball","2","F_ball.wav","None","725.357118179","142","367736.708103","374620.478149","375386.905526","376154.157158","362321.036485","363087.125626","363837.275961","364603.836283","368504.336927","369271.141186","370037.581239","370786.930198","371553.709723","372320.515528","373087.103366","373853.785192","375396.661795","Mapping"
"Blocked","Female","ball","2","F_jaw.wav","space","490.630969987","142","367736.708103","374620.478149","375386.905526","376154.157158","376920.802502","363087.125626","363837.275961","364603.836283","368504.336927","369271.141186","370037.581239","370786.930198","371553.709723","372320.515528","373087.103366","373853.785192","376164.259393","Mapping"
"Blocked","Female","ball","2","F_romp.wav","None","721.000867896","142","367736.708103","374620.478149","375386.905526","376154.157158","376920.802502","377687.210401","363837.275961","364603.836283","368504.336927","369271.141186","370037.581239","370786.930198","371553.709723","372320.515528","373087.103366","373853.785192","376930.927306","Mapping"
"Blocked","Female","ball","2","F_tile.wav","None","719.970702659","142","367736.708103","374620.478149","375386.905526","376154.157158","376920.802502","377687.210401","378454.101847","364603.836283","368504.336927","369271.141186","370037.581239","370786.930198","371553.709723","372320.515528","373087.103366","373853.785192","377697.407552","Mapping"
"Blocked","Female","ball","2","F_knife.wav","None","716.919163242","142","367736.708103","374620.478149","375386.905526","376154.157158","376920.802502","377687.210401","378454.101847","379203.514186","368504.336927","369271.141186","370037.581239","370786.930198","371553.709723","372320.515528","373087.103366","373853.785192","378465.916592","Mapping"
"Blocked","Female","cave","9","F_park.wav","None","734.460104723","142","382337.592709","374620.478149","375386.905526","376154.157158","376920.802502","377687.210401","378454.101847","379203.514186","368504.336927","369271.141186","370037.581239","370786.930198","371553.709723","372320.515528","373087.103366","373853.785192","379213.751529","Mapping"
"Blocked","Female","cave","9","F_romp.wav","None","720.441882731","142","382337.592709","374620.478149","375386.905526","376154.157158","376920.802502","377687.210401","378454.101847","379203.514186","383103.829017","369271.141186","370037.581239","370786.930198","371553.709723","372320.515528","373087.103366","373853.785192","382347.801918","Mapping"
"Blocked","Female","cave","9","F_cave.wav","None","719.580217032","142","382337.592709","374620.478149","375386.905526","376154.157158","376920.802502","377687.210401","378454.101847","379203.514186","383103.829017","383853.593814","370037.581239","370786.930198","371553.709723","372320.515528","373087.103366","373853.785192","383113.934034","Mapping"
"Blocked","Female","cave","9","F_bluff.wav","space","303.528315504","142","382337.592709","374620.478149","375386.905526","376154.157158","376920.802502","377687.210401","378454.101847","379203.514186","383103.829017","383853.593814","384620.311504","370786.930198","371553.709723","372320.515528","373087.103366","373853.785192","383863.288558","Mapping"
"Blocked","Female","cave","9","F_cave.wav","None","730.779397883","142","382337.592709","374620.478149","375386.905526","376154.157158","376920.802502","377687.210401","378454.101847","379203.514186","383103.829017","383853.593814","384620.311504","385386.743519","371553.709723","372320.515528","373087.103366","373853.785192","384632.474069","Mapping"
"Blocked","Female","cave","9","F_lash.wav","space","442.114274716","142","382337.592709","374620.478149","375386.905526","376154.157158","376920.802502","377687.210401","378454.101847","379203.514186","383103.829017","383853.593814","384620.311504","385386.743519","386153.458427","372320.515528","373087.103366","373853.785192","385396.647882","Mapping"
"Blocked","Female","cave","9","F_cave.wav","None","729.707185179","142","382337.592709","374620.478149","375386.905526","376154.157158","376920.802502","377687.210401","378454.101847","379203.514186","383103.829017","383853.593814","384620.311504","385386.743519","386153.458427","386920.318646","373087.103366","373853.785192","386163.156263","Mapping"
"Blocked","Female","cave","9","F_bluff.wav","space","388.343180995","142","382337.592709","374620.478149","375386.905526","376154.157158","376920.802502","377687.210401","378454.101847","379203.514186","383103.829017","383853.593814","384620.311504","385386.743519","386153.458427","386920.318646","387686.857635","373853.785192","386930.393055","Mapping"
"Blocked","Female","cave","9","F_depth.wav","None","725.853959564","142","382337.592709","374620.478149","375386.905526","376154.157158","376920.802502","377687.210401","378454.101847","379203.514186","383103.829017","383853.593814","384620.311504","385386.743519","386153.458427","386920.318646","387686.857635","388453.533587","387696.69027","Mapping"
"Blocked","Female","cave","9","F_priest.wav","None","724.363126443","142","382337.592709","389220.619194","375386.905526","376154.157158","376920.802502","377687.210401","378454.101847","379203.514186","383103.829017","383853.593814","384620.311504","385386.743519","386153.458427","386920.318646","387686.857635","388453.533587","388463.49793","Mapping"
"Blocked","Female","cave","9","F_bluff.wav","None","720.820619841","142","382337.592709","389220.619194","389987.126955","376154.157158","376920.802502","377687.210401","378454.101847","379203.514186","383103.829017","383853.593814","384620.311504","385386.743519","386153.458427","386920.318646","387686.857635","388453.533587","389232.425591","Mapping"
"Blocked","Female","cave","9","F_cave.wav","None","721.130411373","142","382337.592709","389220.619194","389987.126955","390753.81311","376920.802502","377687.210401","378454.101847","379203.514186","383103.829017","383853.593814","384620.311504","385386.743519","386153.458427","386920.318646","387686.857635","388453.533587","389997.571135","Mapping"
"Blocked","Female","cave","9","F_depth.wav","space","426.609238843","142","382337.592709","389220.619194","389987.126955","390753.81311","391520.416407","377687.210401","378454.101847","379203.514186","383103.829017","383853.593814","384620.311504","385386.743519","386153.458427","386920.318646","387686.857635","388453.533587","390764.054163","Mapping"
"Blocked","Female","cave","9","F_greet.wav","None","718.280761968","142","382337.592709","389220.619194","389987.126955","390753.81311","391520.416407","392269.905421","378454.101847","379203.514186","383103.829017","383853.593814","384620.311504","385386.743519","386153.458427","386920.318646","387686.857635","388453.533587","391530.83307","Mapping"
"Blocked","Female","cave","9","F_tile.wav","None","734.879652853","142","382337.592709","389220.619194","389987.126955","390753.81311","391520.416407","392269.905421","393036.602706","379203.514186","383103.829017","383853.593814","384620.311504","385386.743519","386153.458427","386920.318646","387686.857635","388453.533587","392279.638193","Mapping"
"Blocked","Female","cave","9","F_lash.wav","None","733.623791253","142","382337.592709","389220.619194","389987.126955","390753.81311","391520.416407","392269.905421","393036.602706","393802.945988","383103.829017","383853.593814","384620.311504","385386.743519","386153.458427","386920.318646","387686.857635","388453.533587","393046.456365","Mapping"
"Blocked","Female","done","23","F_tile.wav","None","733.410770888","142","396937.209706","389220.619194","389987.126955","390753.81311","391520.416407","392269.905421","393036.602706","393802.945988","383103.829017","383853.593814","384620.311504","385386.743519","386153.458427","386920.318646","387686.857635","388453.533587","393812.231077","Mapping"
"Blocked","Female","done","23","F_romp.wav","None","721.039514523","142","396937.209706","389220.619194","389987.126955","390753.81311","391520.416407","392269.905421","393036.602706","393802.945988","397703.449105","383853.593814","384620.311504","385386.743519","386153.458427","386920.318646","387686.857635","388453.533587","396947.09861","Mapping"
"Blocked","Female","done","23","F_priest.wav","None","719.911341555","142","396937.209706","389220.619194","389987.126955","390753.81311","391520.416407","392269.905421","393036.602706","393802.945988","397703.449105","398453.57718","384620.311504","385386.743519","386153.458427","386920.318646","387686.857635","388453.533587","397713.704999","Mapping"
"Blocked","Female","done","23","F_done.wav","None","735.545302625","142","396937.209706","389220.619194","389987.126955","390753.81311","391520.416407","392269.905421","393036.602706","393802.945988","397703.449105","398453.57718","399237.680298","385386.743519","386153.458427","386920.318646","387686.857635","388453.533587","398463.449699","Mapping"
"Blocked","Female","done","23","F_cling.wav","space","391.242916463","142","396937.209706","389220.619194","389987.126955","390753.81311","391520.416407","392269.905421","393036.602706","393802.945988","397703.449105","398453.57718","399237.680298","399986.158007","386153.458427","386920.318646","387686.857635","388453.533587","399247.324029","Mapping"
"Blocked","Female","done","23","F_done.wav","None","735.145541723","142","396937.209706","389220.619194","389987.126955","390753.81311","391520.416407","392269.905421","393036.602706","393802.945988","397703.449105","398453.57718","399237.680298","399986.158007","400753.120562","386920.318646","387686.857635","388453.533587","399995.515443","Mapping"
"Blocked","Female","done","23","F_lash.wav","space","411.37349268","142","396937.209706","389220.619194","389987.126955","390753.81311","391520.416407","392269.905421","393036.602706","393802.945988","397703.449105","398453.57718","399237.680298","399986.158007","400753.120562","401519.952338","387686.857635","388453.533587","400763.141484","Mapping"
"Blocked","Female","done","23","F_done.wav","None","731.066619745","142","396937.209706","389220.619194","389987.126955","390753.81311","391520.416407","392269.905421","393036.602706","393802.945988","397703.449105","398453.57718","399237.680298","399986.158007","400753.120562","401519.952338","402286.491017","388453.533587","401529.618638","Mapping"
"Blocked","Female","done","23","F_lash.wav","space","413.002526271","142","396937.209706","389220.619194","389987.126955","390753.81311","391520.416407","392269.905421","393036.602706","393802.945988","397703.449105","398453.57718","399237.680298","399986.158007","400753.120562","401519.952338","402286.491017","403052.936017","402297.454917","Mapping"
"Blocked","Female","done","23","F_cave.wav","None","728.454106255","142","396937.209706","403819.97803","389987.126955","390753.81311","391520.416407","392269.905421","393036.602706","393802.945988","397703.449105","398453.57718","399237.680298","399986.158007","400753.120562","401519.952338","402286.491017","403052.936017","403062.282013","Mapping"
"Blocked","Female","done","23","F_jaw.wav","None","726.522082812","142","396937.209706","403819.97803","404586.173836","390753.81311","391520.416407","392269.905421","393036.602706","393802.945988","397703.449105","398453.57718","399237.680298","399986.158007","400753.120562","401519.952338","402286.491017","403052.936017","403829.889195","Mapping"
"Blocked","Female","done","23","F_ball.wav","None","726.342762471","142","396937.209706","403819.97803","404586.173836","405353.19328","391520.416407","392269.905421","393036.602706","393802.945988","397703.449105","398453.57718","399237.680298","399986.158007","400753.120562","401519.952338","402286.491017","403052.936017","404595.522615","Mapping"
"Blocked","Female","done","23","F_reek.wav","None","723.823000793","142","396937.209706","403819.97803","404586.173836","405353.19328","406120.388334","392269.905421","393036.602706","393802.945988","397703.449105","398453.57718","399237.680298","399986.158007","400753.120562","401519.952338","402286.491017","403052.936017","405363.404962","Mapping"
"Blocked","Female","done","23","F_priest.wav","None","722.357210703","142","396937.209706","403819.97803","404586.173836","405353.19328","406120.388334","406887.050682","393036.602706","393802.945988","397703.449105","398453.57718","399237.680298","399986.158007","400753.120562","401519.952338","402286.491017","403052.936017","406130.640826","Mapping"
"Blocked","Female","done","23","F_done.wav","None","721.051263041","142","396937.209706","403819.97803","404586.173836","405353.19328","406120.388334","406887.050682","407653.654906","393802.945988","397703.449105","398453.57718","399237.680298","399986.158007","400753.120562","401519.952338","402286.491017","403052.936017","406897.467655","Mapping"
"Blocked","Female","done","23","F_cling.wav","space","438.634839607","142","396937.209706","403819.97803","404586.173836","405353.19328","406120.388334","406887.050682","407653.654906","408420.243053","397703.449105","398453.57718","399237.680298","399986.158007","400753.120562","401519.952338","402286.491017","403052.936017","407663.738281","Mapping"
"Blocked","Female","cave","7","F_cad.wav","None","718.393610208","142","411536.73766","403819.97803","404586.173836","405353.19328","406120.388334","406887.050682","407653.654906","408420.243053","397703.449105","398453.57718","399237.680298","399986.158007","400753.120562","401519.952338","402286.491017","403052.936017","408430.276033","Mapping"
"Blocked","Female","cave","7","F_cave.wav","None","725.021356135","142","411536.73766","403819.97803","404586.173836","405353.19328","406120.388334","406887.050682","407653.654906","408420.243053","412303.562324","398453.57718","399237.680298","399986.158007","400753.120562","401519.952338","402286.491017","403052.936017","411542.78045","Mapping"
"Blocked","Female","cave","7","F_greet.wav","None","719.221576001","142","411536.73766","403819.97803","404586.173836","405353.19328","406120.388334","406887.050682","407653.654906","408420.243053","412303.562324","413053.681124","399237.680298","399986.158007","400753.120562","401519.952338","402286.491017","403052.936017","412314.064938","Mapping"
"Blocked","Female","cave","7","F_cave.wav","None","735.398754594","142","411536.73766","403819.97803","404586.173836","405353.19328","406120.388334","406887.050682","407653.654906","408420.243053","412303.562324","413053.681124","413819.593728","399986.158007","400753.120562","401519.952338","402286.491017","403052.936017","413063.197166","Mapping"
"Blocked","Female","cave","7","F_bluff.wav","None","735.035785241","142","411536.73766","403819.97803","404586.173836","405353.19328","406120.388334","406887.050682","407653.654906","408420.243053","412303.562324","413053.681124","413819.593728","414586.224541","400753.120562","401519.952338","402286.491017","403052.936017","413829.081635","Mapping"
"Blocked","Female","cave","7","F_bluff.wav","space","402.666866197","142","411536.73766","403819.97803","404586.173836","405353.19328","406120.388334","406887.050682","407653.654906","408420.243053","412303.562324","413053.681124","413819.593728","414586.224541","415352.846078","401519.952338","402286.491017","403052.936017","414595.590634","Mapping"
"Blocked","Female","cave","7","F_park.wav","None","731.018388644","142","411536.73766","403819.97803","404586.173836","405353.19328","406120.388334","406887.050682","407653.654906","408420.243053","412303.562324","413053.681124","413819.593728","414586.224541","415352.846078","416119.39496","402286.491017","403052.936017","415363.105682","Mapping"
"Blocked","Female","cave","7","F_cling.wav","None","729.669775115","142","411536.73766","403819.97803","404586.173836","405353.19328","406120.388334","406887.050682","407653.654906","408420.243053","412303.562324","413053.681124","413819.593728","414586.224541","415352.846078","416119.39496","416886.228282","403052.936017","416129.910559","Mapping"
"Blocked","Female","cave","7","F_cave.wav","None","729.095331393","142","411536.73766","403819.97803","404586.173836","405353.19328","406120.388334","406887.050682","407653.654906","408420.243053","412303.562324","413053.681124","413819.593728","414586.224541","415352.846078","416119.39496","416886.228282","417652.968542","416896.210866","Mapping"
"Blocked","Female","cave","7","F_cling.wav","space","407.573444885","142","411536.73766","418419.732608","404586.173836","405353.19328","406120.388334","406887.050682","407653.654906","408420.243053","412303.562324","413053.681124","413819.593728","414586.224541","415352.846078","416119.39496","416886.228282","417652.968542","417662.606398","Mapping"
"Blocked","Female","cave","7","F_lash.wav","None","725.7497682","142","411536.73766","418419.732608","419186.187193","405353.19328","406120.388334","406887.050682","407653.654906","408420.243053","412303.562324","413053.681124","413819.593728","414586.224541","415352.846078","416119.39496","416886.228282","417652.968542","418429.548858","Mapping"
"Blocked","Female","cave","7","F_cave.wav","None","725.192947313","142","411536.73766","418419.732608","419186.187193","419953.524775","406120.388334","406887.050682","407653.654906","408420.243053","412303.562324","413053.681124","413819.593728","414586.224541","415352.846078","416119.39496","416886.228282","417652.968542","419195.904506","Mapping"
"Blocked","Female","cave","7","F_lash.wav","space","466.454553185","142","411536.73766","418419.732608","419186.187193","419953.524775","420720.026045","406887.050682","407653.654906","408420.243053","412303.562324","413053.681124","413819.593728","414586.224541","415352.846078","416119.39496","416886.228282","417652.968542","419963.706776","Mapping"
"Blocked","Female","cave","7","F_romp.wav","None","719.207354123","142","411536.73766","418419.732608","419186.187193","419953.524775","420720.026045","421486.487431","407653.654906","408420.243053","412303.562324","413053.681124","413819.593728","414586.224541","415352.846078","416119.39496","416886.228282","417652.968542","420731.576755","Mapping"
"Blocked","Female","cave","7","F_gnash.wav","None","719.689355115","142","411536.73766","418419.732608","419186.187193","419953.524775","420720.026045","421486.487431","422253.1269","408420.243053","412303.562324","413053.681124","413819.593728","414586.224541","415352.846078","416119.39496","416886.228282","417652.968542","421496.772696","Mapping"
"Blocked","Female","cave","7","F_cad.wav","None","718.913021265","142","411536.73766","418419.732608","419186.187193","419953.524775","420720.026045","421486.487431","422253.1269","423002.306123","412303.562324","413053.681124","413819.593728","414586.224541","415352.846078","416119.39496","416886.228282","417652.968542","422263.083205","Mapping"
"Blocked","Female","done","21","F_lash.wav","None","736.037815572","142","426136.704331","418419.732608","419186.187193","419953.524775","420720.026045","421486.487431","422253.1269","423002.306123","412303.562324","413053.681124","413819.593728","414586.224541","415352.846078","416119.39496","416886.228282","417652.968542","423011.549783","Mapping"
"Blocked","Female","done","21","F_jolt.wav","None","720.422404818","142","426136.704331","418419.732608","419186.187193","419953.524775","420720.026045","421486.487431","422253.1269","423002.306123","426903.242083","413053.681124","413819.593728","414586.224541","415352.846078","416119.39496","416886.228282","417652.968542","426146.96579","Mapping"
"Blocked","Female","done","21","F_cling.wav","None","719.678843278","142","426136.704331","418419.732608","419186.187193","419953.524775","420720.026045","421486.487431","422253.1269","423002.306123","426903.242083","427670.268637","413819.593728","414586.224541","415352.846078","416119.39496","416886.228282","417652.968542","426913.31711","Mapping"
"Blocked","Female","done","21","F_done.wav","None","717.826277483","142","426136.704331","418419.732608","419186.187193","419953.524775","420720.026045","421486.487431","422253.1269","423002.306123","426903.242083","427670.268637","428419.128484","414586.224541","415352.846078","416119.39496","416886.228282","417652.968542","427680.681591","Mapping"
"Blocked","Female","done","21","F_jaw.wav","space","369.103332749","142","426136.704331","418419.732608","419186.187193","419953.524775","420720.026045","421486.487431","422253.1269","423002.306123","426903.242083","427670.268637","428419.128484","429185.997669","415352.846078","416119.39496","416886.228282","417652.968542","428428.893101","Mapping"
"Blocked","Female","done","21","F_done.wav","None","732.933407533","142","426136.704331","418419.732608","419186.187193","419953.524775","420720.026045","421486.487431","422253.1269","423002.306123","426903.242083","427670.268637","428419.128484","429185.997669","429952.924361","416119.39496","416886.228282","417652.968542","429195.860913","Mapping"
"Blocked","Female","done","21","F_bluff.wav","space","347.334447782","142","426136.704331","418419.732608","419186.187193","419953.524775","420720.026045","421486.487431","422253.1269","423002.306123","426903.242083","427670.268637","428419.128484","429185.997669","429952.924361","430719.496122","416886.228282","417652.968542","429962.642293","Mapping"
"Blocked","Female","done","21","F_cave.wav","None","729.202305316","142","426136.704331","418419.732608","419186.187193","419953.524775","420720.026045","421486.487431","422253.1269","423002.306123","426903.242083","427670.268637","428419.128484","429185.997669","429952.924361","430719.496122","431485.897219","417652.968542","430729.470358","Mapping"
"Blocked","Female","done","21","F_done.wav","None","729.119137628","142","426136.704331","418419.732608","419186.187193","419953.524775","420720.026045","421486.487431","422253.1269","423002.306123","426903.242083","427670.268637","428419.128484","429185.997669","429952.924361","430719.496122","431485.897219","432252.51381","431495.300722","Mapping"
"Blocked","Female","done","21","F_cling.wav","space","695.532416343","142","426136.704331","433019.433391","419186.187193","419953.524775","420720.026045","421486.487431","422253.1269","423002.306123","426903.242083","427670.268637","428419.128484","429185.997669","429952.924361","430719.496122","431485.897219","432252.51381","432262.411372","Mapping"
"Blocked","Female","done","21","F_done.wav","None","724.83245132","142","426136.704331","433019.433391","433786.890314","419953.524775","420720.026045","421486.487431","422253.1269","423002.306123","426903.242083","427670.268637","428419.128484","429185.997669","429952.924361","430719.496122","431485.897219","432252.51381","433029.43267","Mapping"
"Blocked","Female","done","21","F_knife.wav","space","543.250702671","142","426136.704331","433019.433391","433786.890314","434553.033561","420720.026045","421486.487431","422253.1269","423002.306123","426903.242083","427670.268637","428419.128484","429185.997669","429952.924361","430719.496122","431485.897219","432252.51381","433798.651572","Mapping"
"Blocked","Female","done","21","F_cad.wav","None","721.775037469","142","426136.704331","433019.433391","433786.890314","434553.033561","435319.810613","421486.487431","422253.1269","423002.306123","426903.242083","427670.268637","428419.128484","429185.997669","429952.924361","430719.496122","431485.897219","432252.51381","434563.529991","Mapping"
"Blocked","Female","done","21","F_cling.wav","None","720.695404802","142","426136.704331","433019.433391","433786.890314","434553.033561","435319.810613","436086.088041","422253.1269","423002.306123","426903.242083","427670.268637","428419.128484","429185.997669","429952.924361","430719.496122","431485.897219","432252.51381","435330.258503","Mapping"
"Blocked","Female","done","21","F_cad.wav","None","721.301075071","142","426136.704331","433019.433391","433786.890314","434553.033561","435319.810613","436086.088041","436853.229299","423002.306123","426903.242083","427670.268637","428419.128484","429185.997669","429952.924361","430719.496122","431485.897219","432252.51381","436095.393536","Mapping"
"Blocked","Female","done","21","F_park.wav","None","719.602168305","142","426136.704331","433019.433391","433786.890314","434553.033561","435319.810613","436086.088041","436853.229299","437602.881247","426903.242083","427670.268637","428419.128484","429185.997669","429952.924361","430719.496122","431485.897219","432252.51381","436862.837165","Mapping"
"Blocked","Female","ball","6","F_knife.wav","None","735.400609672","142","440736.337714","433019.433391","433786.890314","434553.033561","435319.810613","436086.088041","436853.229299","437602.881247","426903.242083","427670.268637","428419.128484","429185.997669","429952.924361","430719.496122","431485.897219","432252.51381","437612.859503","Mapping"
"Blocked","Female","ball","6","F_romp.wav","None","721.180188353","142","440736.337714","433019.433391","433786.890314","434553.033561","435319.810613","436086.088041","436853.229299","437602.881247","441502.725826","427670.268637","428419.128484","429185.997669","429952.924361","430719.496122","431485.897219","432252.51381","440746.011434","Mapping"
"Blocked","Female","ball","6","F_cad.wav","space","164.972036728","142","440736.337714","433019.433391","433786.890314","434553.033561","435319.810613","436086.088041","436853.229299","437602.881247","441502.725826","442252.418894","428419.128484","429185.997669","429952.924361","430719.496122","431485.897219","432252.51381","441512.830533","Mapping"
"Blocked","Female","ball","6","F_greet.wav","None","734.556566807","142","440736.337714","433019.433391","433786.890314","434553.033561","435319.810613","436086.088041","436853.229299","437602.881247","441502.725826","442252.418894","443019.155753","429185.997669","429952.924361","430719.496122","431485.897219","432252.51381","442262.648817","Mapping"
"Blocked","Female","ball","6","F_ball.wav","None","733.881332562","142","440736.337714","433019.433391","433786.890314","434553.033561","435319.810613","436086.088041","436853.229299","437602.881247","441502.725826","442252.418894","443019.155753","443785.724731","429952.924361","430719.496122","431485.897219","432252.51381","443029.025798","Mapping"
"Blocked","Female","ball","6","F_gnash.wav","space","706.359970965","142","440736.337714","433019.433391","433786.890314","434553.033561","435319.810613","436086.088041","436853.229299","437602.881247","441502.725826","442252.418894","443019.155753","443785.724731","444552.36822","430719.496122","431485.897219","432252.51381","443795.350839","Mapping"
"Blocked","Female","ball","6","F_reek.wav","None","730.79516564","142","440736.337714","433019.433391","433786.890314","434553.033561","435319.810613","436086.088041","436853.229299","437602.881247","441502.725826","442252.418894","443019.155753","443785.724731","444552.36822","445319.239879","431485.897219","432252.51381","444562.295463","Mapping"
"Blocked","Female","ball","6","F_bluff.wav","None","729.392756009","142","440736.337714","433019.433391","433786.890314","434553.033561","435319.810613","436086.088041","436853.229299","437602.881247","441502.725826","442252.418894","443019.155753","443785.724731","444552.36822","445319.239879","446085.661073","432252.51381","445329.413842","Mapping"
"Blocked","Female","ball","6","F_ball.wav","None","729.354109382","142","440736.337714","433019.433391","433786.890314","434553.033561","435319.810613","436086.088041","436853.229299","437602.881247","441502.725826","442252.418894","443019.155753","443785.724731","444552.36822","445319.239879","446085.661073","446852.038363","446095.263065","Mapping"
"Blocked","Female","ball","6","F_cad.wav","space","647.104144678","142","440736.337714","447619.128608","433786.890314","434553.033561","435319.810613","436086.088041","436853.229299","437602.881247","441502.725826","442252.418894","443019.155753","443785.724731","444552.36822","445319.239879","446085.661073","446852.038363","446862.564165","Mapping"
"Blocked","Female","ball","6","F_ball.wav","None","725.910847425","142","440736.337714","447619.128608","448385.330597","434553.033561","435319.810613","436086.088041","436853.229299","437602.881247","441502.725826","442252.418894","443019.155753","443785.724731","444552.36822","445319.239879","446085.661073","446852.038363","447629.201161","Mapping"
"Blocked","Female","ball","6","F_dime.wav","None","726.207035361","142","440736.337714","447619.128608","448385.330597","449153.041352","435319.810613","436086.088041","436853.229299","437602.881247","441502.725826","442252.418894","443019.155753","443785.724731","444552.36822","445319.239879","446085.661073","446852.038363","448394.753269","Mapping"
"Blocked","Female","ball","6","F_ball.wav","space","43.0007361574","142","440736.337714","447619.128608","448385.330597","449153.041352","449919.584669","436086.088041","436853.229299","437602.881247","441502.725826","442252.418894","443019.155753","443785.724731","444552.36822","445319.239879","446085.661073","446852.038363","449162.676735","Mapping"
"Blocked","Female","ball","6","F_lash.wav","space","579.869794776","142","440736.337714","447619.128608","448385.330597","449153.041352","449919.584669","450686.01421","436853.229299","437602.881247","441502.725826","442252.418894","443019.155753","443785.724731","444552.36822","445319.239879","446085.661073","446852.038363","449929.70298","Mapping"
"Blocked","Female","ball","6","F_tile.wav","None","719.180765213","142","440736.337714","447619.128608","448385.330597","449153.041352","449919.584669","450686.01421","451452.594628","437602.881247","441502.725826","442252.418894","443019.155753","443785.724731","444552.36822","445319.239879","446085.661073","446852.038363","450696.375532","Mapping"
"Blocked","Female","ball","6","F_greet.wav","None","717.309648986","142","440736.337714","447619.128608","448385.330597","449153.041352","449919.584669","450686.01421","451452.594628","452202.197108","441502.725826","442252.418894","443019.155753","443785.724731","444552.36822","445319.239879","446085.661073","446852.038363","451464.312601","Mapping"
"Blocked","Female","tile","17","F_cad.wav","None","735.321770539","142","455336.019945","447619.128608","448385.330597","449153.041352","449919.584669","450686.01421","451452.594628","452202.197108","441502.725826","442252.418894","443019.155753","443785.724731","444552.36822","445319.239879","446085.661073","446852.038363","452211.974402","Mapping"
"Blocked","Female","tile","17","F_depth.wav","None","720.750746666","142","455336.019945","447619.128608","448385.330597","449153.041352","449919.584669","450686.01421","451452.594628","452202.197108","456102.517505","442252.418894","443019.155753","443785.724731","444552.36822","445319.239879","446085.661073","446852.038363","455346.396416","Mapping"
"Blocked","Female","tile","17","F_gnash.wav","None","720.455795527","142","455336.019945","447619.128608","448385.330597","449153.041352","449919.584669","450686.01421","451452.594628","452202.197108","456102.517505","456869.381434","443019.155753","443785.724731","444552.36822","445319.239879","446085.661073","446852.038363","456112.541518","Mapping"
"Blocked","Female","tile","17","F_cave.wav","None","719.120167196","142","455336.019945","447619.128608","448385.330597","449153.041352","449919.584669","450686.01421","451452.594628","452202.197108","456102.517505","456869.381434","457619.248567","443785.724731","444552.36822","445319.239879","446085.661073","446852.038363","456879.514277","Mapping"
"Blocked","Female","tile","17","F_park.wav","None","733.970065252","142","455336.019945","447619.128608","448385.330597","449153.041352","449919.584669","450686.01421","451452.594628","452202.197108","456102.517505","456869.381434","457619.248567","458385.458904","444552.36822","445319.239879","446085.661073","446852.038363","457630.386222","Mapping"
"Blocked","Female","tile","17","F_dime.wav","None","734.618710587","142","455336.019945","447619.128608","448385.330597","449153.041352","449919.584669","450686.01421","451452.594628","452202.197108","456102.517505","456869.381434","457619.248567","458385.458904","459152.054471","445319.239879","446085.661073","446852.038363","458395.524347","Mapping"
"Blocked","Female","tile","17","F_tile.wav","None","734.145366354","142","455336.019945","447619.128608","448385.330597","449153.041352","449919.584669","450686.01421","451452.594628","452202.197108","456102.517505","456869.381434","457619.248567","458385.458904","459152.054471","459918.995385","446085.661073","446852.038363","459161.886179","Mapping"
"Blocked","Female","tile","17","F_reek.wav","space","372.679230059","142","455336.019945","447619.128608","448385.330597","449153.041352","449919.584669","450686.01421","451452.594628","452202.197108","456102.517505","456869.381434","457619.248567","458385.458904","459152.054471","459918.995385","460685.245296","446852.038363","459928.755055","Mapping"
"Blocked","Female","tile","17","F_cad.wav","None","732.240859536","142","455336.019945","447619.128608","448385.330597","449153.041352","449919.584669","450686.01421","451452.594628","452202.197108","456102.517505","456869.381434","457619.248567","458385.458904","459152.054471","459918.995385","460685.245296","461451.743474","460694.442272","Mapping"
"Blocked","Female","tile","17","F_tile.wav","None","731.747110025","142","455336.019945","462218.897099","448385.330597","449153.041352","449919.584669","450686.01421","451452.594628","452202.197108","456102.517505","456869.381434","457619.248567","458385.458904","459152.054471","459918.995385","460685.245296","461451.743474","461461.150069","Mapping"
"Blocked","Female","tile","17","F_jaw.wav","space","672.578779631","142","455336.019945","462218.897099","462985.154121","449153.041352","449919.584669","450686.01421","451452.594628","452202.197108","456102.517505","456869.381434","457619.248567","458385.458904","459152.054471","459918.995385","460685.245296","461451.743474","462228.755395","Mapping"
"Blocked","Female","tile","17","F_knife.wav","None","731.560987653","142","455336.019945","462218.897099","462985.154121","463751.9995","449919.584669","450686.01421","451452.594628","452202.197108","456102.517505","456869.381434","457619.248567","458385.458904","459152.054471","459918.995385","460685.245296","461451.743474","462994.227118","Mapping"
"Blocked","Female","tile","17","F_tile.wav","None","735.668662819","142","455336.019945","462218.897099","462985.154121","463751.9995","464518.850754","450686.01421","451452.594628","452202.197108","456102.517505","456869.381434","457619.248567","458385.458904","459152.054471","459918.995385","460685.245296","461451.743474","463756.411093","Mapping"
"Blocked","Female","tile","17","F_bluff.wav","None","729.747686768","142","455336.019945","462218.897099","462985.154121","463751.9995","464518.850754","465285.445084","451452.594628","452202.197108","456102.517505","456869.381434","457619.248567","458385.458904","459152.054471","459918.995385","460685.245296","461451.743474","464528.917433","Mapping"
"Blocked","Female","tile","17","F_tile.wav","space","0.0726557336748","142","455336.019945","462218.897099","462985.154121","463751.9995","464518.850754","465285.445084","466052.099394","452202.197108","456102.517505","456869.381434","457619.248567","458385.458904","459152.054471","459918.995385","460685.245296","461451.743474","465295.222687","Mapping"
"Blocked","Female","tile","17","F_greet.wav","space","583.601824474","142","455336.019945","462218.897099","462985.154121","463751.9995","464518.850754","465285.445084","466052.099394","466818.823577","456102.517505","456869.381434","457619.248567","458385.458904","459152.054471","459918.995385","460685.245296","461451.743474","466061.744361","Mapping"
"Blocked","Female","cave","10","F_greet.wav","None","725.089374231","142","469952.406187","462218.897099","462985.154121","463751.9995","464518.850754","465285.445084","466052.099394","466818.823577","456102.517505","456869.381434","457619.248567","458385.458904","459152.054471","459918.995385","460685.245296","461451.743474","466828.714956","Mapping"
"Blocked","Female","cave","10","F_dime.wav","None","721.212960663","142","469952.406187","462218.897099","462985.154121","463751.9995","464518.850754","465285.445084","466052.099394","466818.823577","470719.202716","456869.381434","457619.248567","458385.458904","459152.054471","459918.995385","460685.245296","461451.743474","469962.766272","Mapping"
"Blocked","Female","cave","10","F_cave.wav","None","719.397804816","142","469952.406187","462218.897099","462985.154121","463751.9995","464518.850754","465285.445084","466052.099394","466818.823577","470719.202716","471485.900929","457619.248567","458385.458904","459152.054471","459918.995385","460685.245296","461451.743474","470730.383965","Mapping"
"Blocked","Female","cave","10","F_lash.wav","space","397.132047568","142","469952.406187","462218.897099","462985.154121","463751.9995","464518.850754","465285.445084","466052.099394","466818.823577","470719.202716","471485.900929","472234.993583","458385.458904","459152.054471","459918.995385","460685.245296","461451.743474","471496.134562","Mapping"
"Blocked","Female","cave","10","F_lash.wav","None","735.078760306","142","469952.406187","462218.897099","462985.154121","463751.9995","464518.850754","465285.445084","466052.099394","466818.823577","470719.202716","471485.900929","472234.993583","473001.485268","459152.054471","459918.995385","460685.245296","461451.743474","472244.968438","Mapping"
"Blocked","Female","cave","10","F_cad.wav","None","735.320842941","142","469952.406187","462218.897099","462985.154121","463751.9995","464518.850754","465285.445084","466052.099394","466818.823577","470719.202716","471485.900929","472234.993583","473001.485268","473768.658989","459918.995385","460685.245296","461451.743474","473010.584235","Mapping"
"Blocked","Female","cave","10","F_cave.wav","None","733.593801502","142","469952.406187","462218.897099","462985.154121","463751.9995","464518.850754","465285.445084","466052.099394","466818.823577","470719.202716","471485.900929","472234.993583","473001.485268","473768.658989","474535.06596","460685.245296","461451.743474","473778.310449","Mapping"
"Blocked","Female","cave","10","F_greet.wav","space","532.5075523","142","469952.406187","462218.897099","462985.154121","463751.9995","464518.850754","465285.445084","466052.099394","466818.823577","470719.202716","471485.900929","472234.993583","473001.485268","473768.658989","474535.06596","475301.767574","461451.743474","474544.674136","Mapping"
"Blocked","Female","cave","10","F_knife.wav","None","730.921926675","142","469952.406187","462218.897099","462985.154121","463751.9995","464518.850754","465285.445084","466052.099394","466818.823577","470719.202716","471485.900929","472234.993583","473001.485268","473768.658989","474535.06596","475301.767574","476068.168053","475312.081283","Mapping"
"Blocked","Female","cave","10","F_cave.wav","None","732.511386042","142","469952.406187","476834.869048","462985.154121","463751.9995","464518.850754","465285.445084","466052.099394","466818.823577","470719.202716","471485.900929","472234.993583","473001.485268","473768.658989","474535.06596","475301.767574","476068.168053","476077.037305","Mapping"
"Blocked","Female","cave","10","F_cling.wav","space","608.994219452","142","469952.406187","476834.869048","477601.819855","463751.9995","464518.850754","465285.445084","466052.099394","466818.823577","470719.202716","471485.900929","472234.993583","473001.485268","473768.658989","474535.06596","475301.767574","476068.168053","476844.142698","Mapping"
"Blocked","Female","cave","10","F_cave.wav","None","728.626006516","142","469952.406187","476834.869048","477601.819855","478368.569081","464518.850754","465285.445084","466052.099394","466818.823577","470719.202716","471485.900929","472234.993583","473001.485268","473768.658989","474535.06596","475301.767574","476068.168053","477611.450291","Mapping"
"Blocked","Female","cave","10","F_knife.wav","None","727.372309077","142","469952.406187","476834.869048","477601.819855","478368.569081","479135.654379","465285.445084","466052.099394","466818.823577","470719.202716","471485.900929","472234.993583","473001.485268","473768.658989","474535.06596","475301.767574","476068.168053","478378.772415","Mapping"
"Blocked","Female","cave","10","F_cad.wav","space","0.0346273882315","142","469952.406187","476834.869048","477601.819855","478368.569081","479135.654379","479901.552761","466052.099394","466818.823577","470719.202716","471485.900929","472234.993583","473001.485268","473768.658989","474535.06596","475301.767574","476068.168053","479145.384678","Mapping"
"Blocked","Female","cave","10","F_lash.wav","None","725.506758085","142","469952.406187","476834.869048","477601.819855","478368.569081","479135.654379","479901.552761","480668.565093","466818.823577","470719.202716","471485.900929","472234.993583","473001.485268","473768.658989","474535.06596","475301.767574","476068.168053","479910.947297","Mapping"
"Blocked","Female","cave","10","F_gnash.wav","None","724.195863702","142","469952.406187","476834.869048","477601.819855","478368.569081","479135.654379","479901.552761","480668.565093","481435.298551","470719.202716","471485.900929","472234.993583","473001.485268","473768.658989","474535.06596","475301.767574","476068.168053","480678.536856","Mapping"
"Blocked","Female","ball","3","F_jolt.wav","None","723.548145848","142","484568.315374","476834.869048","477601.819855","478368.569081","479135.654379","479901.552761","480668.565093","481435.298551","470719.202716","471485.900929","472234.993583","473001.485268","473768.658989","474535.06596","475301.767574","476068.168053","481445.069352","Mapping"
"Blocked","Female","ball","3","F_bluff.wav","None","722.038143896","142","484568.315374","476834.869048","477601.819855","478368.569081","479135.654379","479901.552761","480668.565093","481435.298551","485334.92269","471485.900929","472234.993583","473001.485268","473768.658989","474535.06596","475301.767574","476068.168053","484577.737427","Mapping"
"Blocked","Female","ball","3","F_ball.wav","None","721.322407946","142","484568.315374","476834.869048","477601.819855","478368.569081","479135.654379","479901.552761","480668.565093","481435.298551","485334.92269","486102.207404","472234.993583","473001.485268","473768.658989","474535.06596","475301.767574","476068.168053","485344.41678","Mapping"
"Blocked","Female","ball","3","F_done.wav","space","292.619139189","142","484568.315374","476834.869048","477601.819855","478368.569081","479135.654379","479901.552761","480668.565093","481435.298551","485334.92269","486102.207404","486851.372713","473001.485268","473768.658989","474535.06596","475301.767574","476068.168053","486112.339628","Mapping"
"Blocked","Female","ball","3","F_ball.wav","None","735.365363886","142","484568.315374","476834.869048","477601.819855","478368.569081","479135.654379","479901.552761","480668.565093","481435.298551","485334.92269","486102.207404","486851.372713","487618.343926","473768.658989","474535.06596","475301.767574","476068.168053","486860.925856","Mapping"
"Blocked","Female","ball","3","F_reek.wav","space","640.54039761","142","484568.315374","476834.869048","477601.819855","478368.569081","479135.654379","479901.552761","480668.565093","481435.298551","485334.92269","486102.207404","486851.372713","487618.343926","488384.980304","474535.06596","475301.767574","476068.168053","487628.388345","Mapping"
"Blocked","Female","ball","3","F_cave.wav","None","731.691767927","142","484568.315374","476834.869048","477601.819855","478368.569081","479135.654379","479901.552761","480668.565093","481435.298551","485334.92269","486102.207404","486851.372713","487618.343926","488384.980304","489151.539389","475301.767574","476068.168053","488394.987622","Mapping"
"Blocked","Female","ball","3","F_bluff.wav","None","730.864111218","142","484568.315374","476834.869048","477601.819855","478368.569081","479135.654379","479901.552761","480668.565093","481435.298551","485334.92269","486102.207404","486851.372713","487618.343926","488384.980304","489151.539389","489918.446293","476068.168053","489161.7925","Mapping"
"Blocked","Female","ball","3","F_romp.wav","None","730.387675343","142","484568.315374","476834.869048","477601.819855","478368.569081","479135.654379","479901.552761","480668.565093","481435.298551","485334.92269","486102.207404","486851.372713","487618.343926","488384.980304","489151.539389","489918.446293","490684.911389","489928.317884","Mapping"
"Blocked","Female","ball","3","F_depth.wav","None","730.190732051","142","484568.315374","491451.528599","477601.819855","478368.569081","479135.654379","479901.552761","480668.565093","481435.298551","485334.92269","486102.207404","486851.372713","487618.343926","488384.980304","489151.539389","489918.446293","490684.911389","490694.609225","Mapping"
"Blocked","Female","ball","3","F_cad.wav","None","729.522917885","142","484568.315374","491451.528599","492218.040689","478368.569081","479135.654379","479901.552761","480668.565093","481435.298551","485334.92269","486102.207404","486851.372713","487618.343926","488384.980304","489151.539389","489918.446293","490684.911389","491461.245603","Mapping"
"Blocked","Female","ball","3","F_gnash.wav","None","729.401103687","142","484568.315374","491451.528599","492218.040689","492984.860098","479135.654379","479901.552761","480668.565093","481435.298551","485334.92269","486102.207404","486851.372713","487618.343926","488384.980304","489151.539389","489918.446293","490684.911389","492227.416366","Mapping"
"Blocked","Female","ball","3","F_ball.wav","None","727.957883268","142","484568.315374","491451.528599","492218.040689","492984.860098","493751.430931","479901.552761","480668.565093","481435.298551","485334.92269","486102.207404","486851.372713","487618.343926","488384.980304","489151.539389","489918.446293","490684.911389","492994.898024","Mapping"
"Blocked","Female","ball","3","F_jaw.wav","None","726.682543755","142","484568.315374","491451.528599","492218.040689","492984.860098","493751.430931","494518.012585","480668.565093","481435.298551","485334.92269","486102.207404","486851.372713","487618.343926","488384.980304","489151.539389","489918.446293","490684.911389","493762.271162","Mapping"
"Blocked","Female","ball","3","F_ball.wav","space","69.1036110511","142","484568.315374","491451.528599","492218.040689","492984.860098","493751.430931","494518.012585","495284.853327","481435.298551","485334.92269","486102.207404","486851.372713","487618.343926","488384.980304","489151.539389","489918.446293","490684.911389","494527.71444","Mapping"
"Blocked","Female","ball","3","F_cling.wav","space","606.208568905","142","484568.315374","491451.528599","492218.040689","492984.860098","493751.430931","494518.012585","495284.853327","496052.11609","485334.92269","486102.207404","486851.372713","487618.343926","488384.980304","489151.539389","489918.446293","490684.911389","495294.578988","Mapping"
"Blocked","Female","tile","18","F_reek.wav","None","722.327839234","142","499168.480534","491451.528599","492218.040689","492984.860098","493751.430931","494518.012585","495284.853327","496052.11609","485334.92269","486102.207404","486851.372713","487618.343926","488384.980304","489151.539389","489918.446293","490684.911389","496061.758274","Mapping"
"Blocked","Female","tile","18","F_tile.wav","None","720.147859072","142","499168.480534","491451.528599","492218.040689","492984.860098","493751.430931","494518.012585","495284.853327","496052.11609","499935.210283","486102.207404","486851.372713","487618.343926","488384.980304","489151.539389","489918.446293","490684.911389","499179.056422","Mapping"
"Blocked","Female","tile","18","F_lash.wav","None","720.129617723","142","499168.480534","491451.528599","492218.040689","492984.860098","493751.430931","494518.012585","495284.853327","496052.11609","499935.210283","500702.042058","486851.372713","487618.343926","488384.980304","489151.539389","489918.446293","490684.911389","499945.236151","Mapping"
"Blocked","Female","tile","18","F_tile.wav","space","196.638483438","142","499168.480534","491451.528599","492218.040689","492984.860098","493751.430931","494518.012585","495284.853327","496052.11609","499935.210283","500702.042058","501451.411731","487618.343926","488384.980304","489151.539389","489918.446293","490684.911389","500712.090805","Mapping"
"Blocked","Female","tile","18","F_reek.wav","space","559.038322885","142","499168.480534","491451.528599","492218.040689","492984.860098","493751.430931","494518.012585","495284.853327","496052.11609","499935.210283","500702.042058","501451.411731","502218.173943","488384.980304","489151.539389","489918.446293","490684.911389","501461.648765","Mapping"
"Blocked","Female","tile","18","F_park.wav","None","732.492835727","142","499168.480534","491451.528599","492218.040689","492984.860098","493751.430931","494518.012585","495284.853327","496052.11609","499935.210283","500702.042058","501451.411731","502218.173943","502984.336976","489151.539389","489918.446293","490684.911389","502228.320389","Mapping"
"Blocked","Female","tile","18","F_bluff.wav","None","732.638147078","142","499168.480534","491451.528599","492218.040689","492984.860098","493751.430931","494518.012585","495284.853327","496052.11609","499935.210283","500702.042058","501451.411731","502218.173943","502984.336976","503751.007054","489918.446293","490684.911389","502994.191872","Mapping"
"Blocked","Female","tile","18","F_tile.wav","None","732.520970399","142","499168.480534","491451.528599","492218.040689","492984.860098","493751.430931","494518.012585","495284.853327","496052.11609","499935.210283","500702.042058","501451.411731","502218.173943","502984.336976","503751.007054","504517.831719","490684.911389","503760.36851","Mapping"
"Blocked","Female","tile","18","F_gnash.wav","space","437.419788912","142","499168.480534","491451.528599","492218.040689","492984.860098","493751.430931","494518.012585","495284.853327","496052.11609","499935.210283","500702.042058","501451.411731","502218.173943","502984.336976","503751.007054","504517.831719","505284.629794","504527.208633","Mapping"
"Blocked","Female","tile","18","F_depth.wav","None","729.266304174","142","499168.480534","506051.254424","492218.040689","492984.860098","493751.430931","494518.012585","495284.853327","496052.11609","499935.210283","500702.042058","501451.411731","502218.173943","502984.336976","503751.007054","504517.831719","505284.629794","505294.369678","Mapping"
"Blocked","Female","tile","18","F_dime.wav","None","728.357644053","142","499168.480534","506051.254424","506818.096402","492984.860098","493751.430931","494518.012585","495284.853327","496052.11609","499935.210283","500702.042058","501451.411731","502218.173943","502984.336976","503751.007054","504517.831719","505284.629794","506061.364388","Mapping"
"Blocked","Female","tile","18","F_ball.wav","None","728.085880866","142","499168.480534","506051.254424","506818.096402","507584.553769","493751.430931","494518.012585","495284.853327","496052.11609","499935.210283","500702.042058","501451.411731","502218.173943","502984.336976","503751.007054","504517.831719","505284.629794","506827.911105","Mapping"
"Blocked","Female","tile","18","F_tile.wav","None","728.402165114","142","499168.480534","506051.254424","506818.096402","507584.553769","508351.314125","494518.012585","495284.853327","496052.11609","499935.210283","500702.042058","501451.411731","502218.173943","502984.336976","503751.007054","504517.831719","505284.629794","507594.203683","Mapping"
