"Condition","Talker","Target","Trial","current_stimulus","response_response","response_time_response","subject_nr","time_Audio1","time_Audio10","time_Audio11","time_Audio12","time_Audio13","time_Audio14","time_Audio15","time_Audio16","time_Audio2","time_Audio3","time_Audio4","time_Audio5","time_Audio6","time_Audio7","time_Audio8","time_Audio9","time_response"
"Mixed","Male","done","38","F_greet.wav","NA","NA","440","113988.660664","NA","NA","NA","NA","NA","NA","NA","NA","NA","NA","NA","NA","NA","NA","NA","NA"
"Mixed","Male","done","38","F_jaw.wav","None","738.551227766","440","113988.660664","NA","NA","NA","NA","NA","NA","NA","114755.287881","NA","NA","NA","NA","NA","NA","NA","113995.609383"
"Mixed","Male","done","38","M_done.wav","None","736.122580777","440","113988.660664","NA","NA","NA","NA","NA","NA","NA","114755.287881","115521.945781","NA","NA","NA","NA","NA","NA","114760.592273"
"Mixed","Male","done","38","M_depth.wav","space","572.011092701","440","113988.660664","NA","NA","NA","NA","NA","NA","NA","114755.287881","115521.945781","116288.918403","NA","NA","NA","NA","NA","115527.291376"
"Mixed","Male","done","38","M_done.wav","None","726.879344958","440","113988.660664","NA","NA","NA","NA","NA","NA","NA","114755.287881","115521.945781","116288.918403","117038.591262","NA","NA","NA","NA","116294.687426"
"Mixed","Male","done","38","F_cad.wav","space","583.599400363","440","113988.660664","NA","NA","NA","NA","NA","NA","NA","114755.287881","115521.945781","116288.918403","117038.591262","117805.235135","NA","NA","NA","117043.569828"
"Mixed","Male","done","38","M_done.wav","None","736.148003986","440","113988.660664","NA","NA","NA","NA","NA","NA","NA","114755.287881","115521.945781","116288.918403","117038.591262","117805.235135","118571.863521","NA","NA","117810.439003"
"Mixed","Male","done","38","F_greet.wav","space","450.119956634","440","113988.660664","NA","NA","NA","NA","NA","NA","NA","114755.287881","115521.945781","116288.918403","117038.591262","117805.235135","118571.863521","119339.024041","NA","118576.944364"
"Mixed","Male","done","38","F_jolt.wav","None","727.151402514","440","113988.660664","NA","NA","NA","NA","NA","NA","NA","114755.287881","115521.945781","116288.918403","117038.591262","117805.235135","118571.863521","119339.024041","120088.509002","119344.431002"
"Mixed","Male","done","38","F_depth.wav","None","740.586837791","440","113988.660664","120855.125699","NA","NA","NA","NA","NA","NA","114755.287881","115521.945781","116288.918403","117038.591262","117805.235135","118571.863521","119339.024041","120088.509002","120093.716669"
"Mixed","Male","done","38","M_jolt.wav","None","736.72251006","440","113988.660664","120855.125699","121621.805808","NA","NA","NA","NA","NA","114755.287881","115521.945781","116288.918403","117038.591262","117805.235135","118571.863521","119339.024041","120088.509002","120860.21823"
"Mixed","Male","done","38","F_priest.wav","None","732.176431224","440","113988.660664","120855.125699","121621.805808","122388.731966","NA","NA","NA","NA","114755.287881","115521.945781","116288.918403","117038.591262","117805.235135","118571.863521","119339.024041","120088.509002","121627.340469"
"Mixed","Male","done","38","M_gnash.wav","None","728.218885061","440","113988.660664","120855.125699","121621.805808","122388.731966","123138.414176","NA","NA","NA","114755.287881","115521.945781","116288.918403","117038.591262","117805.235135","118571.863521","119339.024041","120088.509002","122393.797906"
"Mixed","Male","done","38","M_cad.wav","None","741.395704939","440","113988.660664","120855.125699","121621.805808","122388.731966","123138.414176","123905.082012","NA","NA","114755.287881","115521.945781","116288.918403","117038.591262","117805.235135","118571.863521","119339.024041","120088.509002","123143.198999"
"Mixed","Male","done","38","M_done.wav","None","737.448970944","440","113988.660664","120855.125699","121621.805808","122388.731966","123138.414176","123905.082012","124671.690526","NA","114755.287881","115521.945781","116288.918403","117038.591262","117805.235135","118571.863521","119339.024041","120088.509002","123909.865958"
"Mixed","Male","done","38","F_cad.wav","space","654.19293001","440","113988.660664","120855.125699","121621.805808","122388.731966","123138.414176","123905.082012","124671.690526","125438.950694","114755.287881","115521.945781","116288.918403","117038.591262","117805.235135","118571.863521","119339.024041","120088.509002","124676.601881"
"Mixed","Female","done","45","M_lash.wav","None","727.831400293","440","128555.034234","120855.125699","121621.805808","122388.731966","123138.414176","123905.082012","124671.690526","125438.950694","114755.287881","115521.945781","116288.918403","117038.591262","117805.235135","118571.863521","119339.024041","120088.509002","125444.312068"
"Mixed","Female","done","45","F_done.wav","None","740.511737048","440","128555.034234","120855.125699","121621.805808","122388.731966","123138.414176","123905.082012","124671.690526","125438.950694","129321.53901","115521.945781","116288.918403","117038.591262","117805.235135","118571.863521","119339.024041","120088.509002","128559.87867"
"Mixed","Female","done","45","M_bluff.wav","space","555.793423279","440","128555.034234","120855.125699","121621.805808","122388.731966","123138.414176","123905.082012","124671.690526","125438.950694","129321.53901","130088.179085","116288.918403","117038.591262","117805.235135","118571.863521","119339.024041","120088.509002","129326.709565"
"Mixed","Female","done","45","M_greet.wav","None","732.371926933","440","128555.034234","120855.125699","121621.805808","122388.731966","123138.414176","123905.082012","124671.690526","125438.950694","129321.53901","130088.179085","130855.314766","117038.591262","117805.235135","118571.863521","119339.024041","120088.509002","130093.12346"
"Mixed","Female","done","45","M_reek.wav","None","727.45706546","440","128555.034234","120855.125699","121621.805808","122388.731966","123138.414176","123905.082012","124671.690526","125438.950694","129321.53901","130088.179085","130855.314766","131604.886224","117805.235135","118571.863521","119339.024041","120088.509002","130860.730201"
"Mixed","Female","done","45","F_jolt.wav","None","741.092379758","440","128555.034234","120855.125699","121621.805808","122388.731966","123138.414176","123905.082012","124671.690526","125438.950694","129321.53901","130088.179085","130855.314766","131604.886224","132371.545585","118571.863521","119339.024041","120088.509002","131609.782675"
"Mixed","Female","done","45","M_gnash.wav","None","736.953072263","440","128555.034234","120855.125699","121621.805808","122388.731966","123138.414176","123905.082012","124671.690526","125438.950694","129321.53901","130088.179085","130855.314766","131604.886224","132371.545585","133138.154976","119339.024041","120088.509002","132376.380962"
"Mixed","Female","done","45","F_done.wav","None","732.606580228","440","128555.034234","120855.125699","121621.805808","122388.731966","123138.414176","123905.082012","124671.690526","125438.950694","129321.53901","130088.179085","130855.314766","131604.886224","132371.545585","133138.154976","133905.119416","120088.509002","133143.419334"
"Mixed","Female","done","45","M_depth.wav","space","444.101085016","440","128555.034234","120855.125699","121621.805808","122388.731966","123138.414176","123905.082012","124671.690526","125438.950694","129321.53901","130088.179085","130855.314766","131604.886224","132371.545585","133138.154976","133905.119416","134654.782339","133910.157595"
"Mixed","Female","done","45","F_greet.wav","None","741.055559939","440","128555.034234","135421.490794","121621.805808","122388.731966","123138.414176","123905.082012","124671.690526","125438.950694","129321.53901","130088.179085","130855.314766","131604.886224","132371.545585","133138.154976","133905.119416","134654.782339","134659.904385"
"Mixed","Female","done","45","F_done.wav","None","737.26253408","440","128555.034234","135421.490794","136188.075638","122388.731966","123138.414176","123905.082012","124671.690526","125438.950694","129321.53901","130088.179085","130855.314766","131604.886224","132371.545585","133138.154976","133905.119416","134654.782339","135426.348088"
"Mixed","Female","done","45","F_park.wav","space","576.616492357","440","128555.034234","135421.490794","136188.075638","136954.730324","123138.414176","123905.082012","124671.690526","125438.950694","129321.53901","130088.179085","130855.314766","131604.886224","132371.545585","133138.154976","133905.119416","134654.782339","136193.517082"
"Mixed","Female","done","45","F_dime.wav","None","729.080644172","440","128555.034234","135421.490794","136188.075638","136954.730324","137704.701248","123905.082012","124671.690526","125438.950694","129321.53901","130088.179085","130855.314766","131604.886224","132371.545585","133138.154976","133905.119416","134654.782339","136959.725254"
"Mixed","Female","done","45","M_romp.wav","space","516.369039792","440","128555.034234","135421.490794","136188.075638","136954.730324","137704.701248","138471.36207","124671.690526","125438.950694","129321.53901","130088.179085","130855.314766","131604.886224","132371.545585","133138.154976","133905.119416","134654.782339","137709.657313"
"Mixed","Female","done","45","F_done.wav","None","737.641544445","440","128555.034234","135421.490794","136188.075638","136954.730324","137704.701248","138471.36207","139237.967078","125438.950694","129321.53901","130088.179085","130855.314766","131604.886224","132371.545585","133138.154976","133905.119416","134654.782339","138476.311706"
"Mixed","Female","done","45","M_priest.wav","space","718.837136587","440","128555.034234","135421.490794","136188.075638","136954.730324","137704.701248","138471.36207","139237.967078","140004.703294","129321.53901","130088.179085","130855.314766","131604.886224","132371.545585","133138.154976","133905.119416","134654.782339","139243.123899"
"Mixed","Male","cave","18","M_cad.wav","None","729.053759859","440","143087.912287","135421.490794","136188.075638","136954.730324","137704.701248","138471.36207","139237.967078","140004.703294","129321.53901","130088.179085","130855.314766","131604.886224","132371.545585","133138.154976","133905.119416","134654.782339","140009.966482"
"Mixed","Male","cave","18","M_bluff.wav","None","740.62336539","440","143087.912287","135421.490794","136188.075638","136954.730324","137704.701248","138471.36207","139237.967078","140004.703294","143854.558206","130088.179085","130855.314766","131604.886224","132371.545585","133138.154976","133905.119416","134654.782339","143092.878579"
"Mixed","Male","cave","18","F_reek.wav","None","736.727770034","440","143087.912287","135421.490794","136188.075638","136954.730324","137704.701248","138471.36207","139237.967078","140004.703294","143854.558206","144621.209385","130855.314766","131604.886224","132371.545585","133138.154976","133905.119416","134654.782339","143859.457872"
"Mixed","Male","cave","18","M_cave.wav","None","732.826038041","440","143087.912287","135421.490794","136188.075638","136954.730324","137704.701248","138471.36207","139237.967078","140004.703294","143854.558206","144621.209385","145388.132914","131604.886224","132371.545585","133138.154976","133905.119416","134654.782339","144626.08392"
"Mixed","Male","cave","18","M_jolt.wav","None","728.420809627","440","143087.912287","135421.490794","136188.075638","136954.730324","137704.701248","138471.36207","139237.967078","140004.703294","143854.558206","144621.209385","145388.132914","146137.838501","132371.545585","133138.154976","133905.119416","134654.782339","145393.047775"
"Mixed","Male","cave","18","M_cave.wav","space","0.0222087801376","440","143087.912287","135421.490794","136188.075638","136954.730324","137704.701248","138471.36207","139237.967078","140004.703294","143854.558206","144621.209385","145388.132914","146137.838501","146904.483544","133138.154976","133905.119416","134654.782339","146142.856809"
"Mixed","Male","cave","18","F_bluff.wav","None","737.375039085","440","143087.912287","135421.490794","136188.075638","136954.730324","137704.701248","138471.36207","139237.967078","140004.703294","143854.558206","144621.209385","145388.132914","146137.838501","146904.483544","147671.095273","133905.119416","134654.782339","146909.271873"
"Mixed","Male","cave","18","M_cave.wav","space","13.4024143282","440","143087.912287","135421.490794","136188.075638","136954.730324","137704.701248","138471.36207","139237.967078","140004.703294","143854.558206","144621.209385","145388.132914","146137.838501","146904.483544","147671.095273","148438.233584","134654.782339","147676.080559"
"Mixed","Male","cave","18","F_jaw.wav","space","709.593900768","440","143087.912287","135421.490794","136188.075638","136954.730324","137704.701248","138471.36207","139237.967078","140004.703294","143854.558206","144621.209385","145388.132914","146137.838501","146904.483544","147671.095273","148438.233584","149187.840985","148443.792208"
"Mixed","Male","cave","18","F_cling.wav","None","741.097639733","440","143087.912287","149954.356281","136188.075638","136954.730324","137704.701248","138471.36207","139237.967078","140004.703294","143854.558206","144621.209385","145388.132914","146137.838501","146904.483544","147671.095273","148438.233584","149187.840985","149192.769873"
"Mixed","Male","cave","18","M_romp.wav","None","740.734701511","440","143087.912287","149954.356281","150721.095711","136954.730324","137704.701248","138471.36207","139237.967078","140004.703294","143854.558206","144621.209385","145388.132914","146137.838501","146904.483544","147671.095273","148438.233584","149187.840985","149955.871446"
"Mixed","Male","cave","18","F_jaw.wav","None","732.802952599","440","143087.912287","149954.356281","150721.095711","151487.739","137704.701248","138471.36207","139237.967078","140004.703294","143854.558206","144621.209385","145388.132914","146137.838501","146904.483544","147671.095273","148438.233584","149187.840985","150726.421727"
"Mixed","Male","cave","18","F_greet.wav","None","729.388060443","440","143087.912287","149954.356281","150721.095711","151487.739","152237.752004","138471.36207","139237.967078","140004.703294","143854.558206","144621.209385","145388.132914","146137.838501","146904.483544","147671.095273","148438.233584","149187.840985","151492.45895"
"Mixed","Male","cave","18","F_cad.wav","None","742.052325055","440","143087.912287","149954.356281","150721.095711","151487.739","152237.752004","153004.345908","139237.967078","140004.703294","143854.558206","144621.209385","145388.132914","146137.838501","146904.483544","147671.095273","148438.233584","149187.840985","152242.649332"
"Mixed","Male","cave","18","M_cave.wav","None","738.397227409","440","143087.912287","149954.356281","150721.095711","151487.739","152237.752004","153004.345908","153770.98569","140004.703294","143854.558206","144621.209385","145388.132914","146137.838501","146904.483544","147671.095273","148438.233584","149187.840985","153009.202909"
"Mixed","Male","cave","18","F_jolt.wav","None","734.294155292","440","143087.912287","149954.356281","150721.095711","151487.739","152237.752004","153004.345908","153770.98569","154537.679533","143854.558206","144621.209385","145388.132914","146137.838501","146904.483544","147671.095273","148438.233584","149187.840985","153776.030297"
"Mixed","Male","done","37","M_jolt.wav","space","0.0172410266241","440","157637.553586","149954.356281","150721.095711","151487.739","152237.752004","153004.345908","153770.98569","154537.679533","143854.558206","144621.209385","145388.132914","146137.838501","146904.483544","147671.095273","148438.233584","149187.840985","154542.502637"
"Mixed","Male","done","37","F_gnash.wav","None","741.140303968","440","157637.553586","149954.356281","150721.095711","151487.739","152237.752004","153004.345908","153770.98569","154537.679533","158404.254442","144621.209385","145388.132914","146137.838501","146904.483544","147671.095273","148438.233584","149187.840985","157642.523385"
"Mixed","Male","done","37","F_bluff.wav","None","737.31805603","440","157637.553586","149954.356281","150721.095711","151487.739","152237.752004","153004.345908","153770.98569","154537.679533","158404.254442","159170.873769","145388.132914","146137.838501","146904.483544","147671.095273","148438.233584","149187.840985","158409.184792"
"Mixed","Male","done","37","M_done.wav","None","733.379504218","440","157637.553586","149954.356281","150721.095711","151487.739","152237.752004","153004.345908","153770.98569","154537.679533","158404.254442","159170.873769","159937.501571","146137.838501","146904.483544","147671.095273","148438.233584","149187.840985","159175.761747"
"Mixed","Male","done","37","F_greet.wav","space","562.005745061","440","157637.553586","149954.356281","150721.095711","151487.739","152237.752004","153004.345908","153770.98569","154537.679533","158404.254442","159170.873769","159937.501571","160687.515159","146904.483544","147671.095273","148438.233584","149187.840985","159942.772065"
"Mixed","Male","done","37","F_park.wav","None","741.677990222","440","157637.553586","149954.356281","150721.095711","151487.739","152237.752004","153004.345908","153770.98569","154537.679533","158404.254442","159170.873769","159937.501571","160687.515159","161454.144714","147671.095273","148438.233584","149187.840985","160692.58256"
"Mixed","Male","done","37","M_done.wav","None","738.041886928","440","157637.553586","149954.356281","150721.095711","151487.739","152237.752004","153004.345908","153770.98569","154537.679533","158404.254442","159170.873769","159937.501571","160687.515159","161454.144714","162220.777483","148438.233584","149187.840985","161459.069803"
"Mixed","Male","done","37","F_cling.wav","space","710.702002005","440","157637.553586","149954.356281","150721.095711","151487.739","152237.752004","153004.345908","153770.98569","154537.679533","158404.254442","159170.873769","159937.501571","160687.515159","161454.144714","162220.777483","162987.465189","149187.840985","162225.92992"
"Mixed","Male","done","37","F_dime.wav","None","729.985067518","440","157637.553586","149954.356281","150721.095711","151487.739","152237.752004","153004.345908","153770.98569","154537.679533","158404.254442","159170.873769","159937.501571","160687.515159","161454.144714","162220.777483","162987.465189","163737.430853","162992.363394"
"Mixed","Male","done","37","M_done.wav","None","742.763882679","440","157637.553586","164504.125281","150721.095711","151487.739","152237.752004","153004.345908","153770.98569","154537.679533","158404.254442","159170.873769","159937.501571","160687.515159","161454.144714","162220.777483","162987.465189","163737.430853","163742.409419"
"Mixed","Male","done","37","M_reek.wav","None","739.007092199","440","157637.553586","164504.125281","165270.752498","151487.739","152237.752004","153004.345908","153770.98569","154537.679533","158404.254442","159170.873769","159937.501571","160687.515159","161454.144714","162220.777483","162987.465189","163737.430853","164509.082807"
"Mixed","Male","done","37","M_done.wav","space","16.3319277512","440","157637.553586","164504.125281","165270.752498","166037.352538","152237.752004","153004.345908","153770.98569","154537.679533","158404.254442","159170.873769","159937.501571","160687.515159","161454.144714","162220.777483","162987.465189","163737.430853","165272.177366"
"Mixed","Male","done","37","M_lash.wav","None","730.888906422","440","157637.553586","164504.125281","165270.752498","166037.352538","166787.361451","153004.345908","153770.98569","154537.679533","158404.254442","159170.873769","159937.501571","160687.515159","161454.144714","162220.777483","162987.465189","163737.430853","166042.294868"
"Mixed","Male","done","37","M_greet.wav","space","128.068391354","440","157637.553586","164504.125281","165270.752498","166037.352538","166787.361451","167553.980778","153770.98569","154537.679533","158404.254442","159170.873769","159937.501571","160687.515159","161454.144714","162220.777483","162987.465189","163737.430853","166792.31547"
"Mixed","Male","done","37","F_reek.wav","None","739.703746563","440","157637.553586","164504.125281","165270.752498","166037.352538","166787.361451","167553.980778","168320.577604","154537.679533","158404.254442","159170.873769","159937.501571","160687.515159","161454.144714","162220.777483","162987.465189","163737.430853","167558.678811"
"Mixed","Male","done","37","F_reek.wav","None","735.755551465","440","157637.553586","164504.125281","165270.752498","166037.352538","166787.361451","167553.980778","168320.577604","169087.330768","158404.254442","159170.873769","159937.501571","160687.515159","161454.144714","162220.777483","162987.465189","163737.430853","168325.602925"
"Mixed","Female","ball","10","F_cling.wav","None","731.643128282","440","172170.599374","164504.125281","165270.752498","166037.352538","166787.361451","167553.980778","168320.577604","169087.330768","158404.254442","159170.873769","159937.501571","160687.515159","161454.144714","162220.777483","162987.465189","163737.430853","169092.497231"
"Mixed","Female","ball","10","F_ball.wav","None","740.313903573","440","172170.599374","164504.125281","165270.752498","166037.352538","166787.361451","167553.980778","168320.577604","169087.330768","172937.209058","159170.873769","159937.501571","160687.515159","161454.144714","162220.777483","162987.465189","163737.430853","172175.532353"
"Mixed","Female","ball","10","M_cling.wav","space","633.932385954","440","172170.599374","164504.125281","165270.752498","166037.352538","166787.361451","167553.980778","168320.577604","169087.330768","172937.209058","173703.852931","159937.501571","160687.515159","161454.144714","162220.777483","162987.465189","163737.430853","172942.088853"
"Mixed","Female","ball","10","M_romp.wav","None","732.217926577","440","172170.599374","164504.125281","165270.752498","166037.352538","166787.361451","167553.980778","168320.577604","169087.330768","172937.209058","173703.852931","174470.78698","160687.515159","161454.144714","162220.777483","162987.465189","163737.430853","173708.857797"
"Mixed","Female","ball","10","M_reek.wav","None","727.333748287","440","172170.599374","164504.125281","165270.752498","166037.352538","166787.361451","167553.980778","168320.577604","169087.330768","172937.209058","173703.852931","174470.78698","175220.470943","161454.144714","162220.777483","162987.465189","163737.430853","174476.502234"
"Mixed","Female","ball","10","F_ball.wav","None","741.466130149","440","172170.599374","164504.125281","165270.752498","166037.352538","166787.361451","167553.980778","168320.577604","169087.330768","172937.209058","173703.852931","174470.78698","175220.470943","175987.12446","162220.777483","162987.465189","163737.430853","175225.351615"
"Mixed","Female","ball","10","M_priest.wav","space","615.937721905","440","172170.599374","164504.125281","165270.752498","166037.352538","166787.361451","167553.980778","168320.577604","169087.330768","172937.209058","173703.852931","174470.78698","175220.470943","175987.12446","176753.701707","162987.465189","163737.430853","175991.896133"
"Mixed","Female","ball","10","F_ball.wav","None","733.785398896","440","172170.599374","164504.125281","165270.752498","166037.352538","166787.361451","167553.980778","168320.577604","169087.330768","172937.209058","173703.852931","174470.78698","175220.470943","175987.12446","176753.701707","177520.405193","163737.430853","176758.796284"
"Mixed","Female","ball","10","M_jaw.wav","space","482.012933692","440","172170.599374","164504.125281","165270.752498","166037.352538","166787.361451","167553.980778","168320.577604","169087.330768","172937.209058","173703.852931","174470.78698","175220.470943","175987.12446","176753.701707","177520.405193","178270.412061","177525.774458"
"Mixed","Female","ball","10","F_ball.wav","None","742.744596107","440","172170.599374","179037.079019","165270.752498","166037.352538","166787.361451","167553.980778","168320.577604","169087.330768","172937.209058","173703.852931","174470.78698","175220.470943","175987.12446","176753.701707","177520.405193","178270.412061","178275.192208"
"Mixed","Female","ball","10","F_cad.wav","space","461.802359391","440","172170.599374","179037.079019","179803.705944","166037.352538","166787.361451","167553.980778","168320.577604","169087.330768","172937.209058","173703.852931","174470.78698","175220.470943","175987.12446","176753.701707","177520.405193","178270.412061","179041.875531"
"Mixed","Female","ball","10","F_lash.wav","None","734.442603454","440","172170.599374","179037.079019","179803.705944","180570.299848","166787.361451","167553.980778","168320.577604","169087.330768","172937.209058","173703.852931","174470.78698","175220.470943","175987.12446","176753.701707","177520.405193","178270.412061","179808.750259"
"Mixed","Female","ball","10","F_gnash.wav","None","730.84010555","440","172170.599374","179037.079019","179803.705944","180570.299848","181320.350256","167553.980778","168320.577604","169087.330768","172937.209058","173703.852931","174470.78698","175220.470943","175987.12446","176753.701707","177520.405193","178270.412061","180575.279874"
"Mixed","Female","ball","10","M_bluff.wav","None","743.725873521","440","172170.599374","179037.079019","179803.705944","180570.299848","181320.350256","182087.001435","168320.577604","169087.330768","172937.209058","173703.852931","174470.78698","175220.470943","175987.12446","176753.701707","177520.405193","178270.412061","181325.314795"
"Mixed","Female","ball","10","M_priest.wav","None","740.242309479","440","172170.599374","179037.079019","179803.705944","180570.299848","181320.350256","182087.001435","182853.650568","169087.330768","172937.209058","173703.852931","174470.78698","175220.470943","175987.12446","176753.701707","177520.405193","178270.412061","182091.78129"
"Mixed","Female","ball","10","M_priest.wav","None","736.459219128","440","172170.599374","179037.079019","179803.705944","180570.299848","181320.350256","182087.001435","182853.650568","183620.269603","172937.209058","173703.852931","174470.78698","175220.470943","175987.12446","176753.701707","177520.405193","178270.412061","182858.549942"
"Mixed","Male","tile","25","M_park.wav","None","732.766425","440","186703.529735","179037.079019","179803.705944","180570.299848","181320.350256","182087.001435","182853.650568","183620.269603","172937.209058","173703.852931","174470.78698","175220.470943","175987.12446","176753.701707","177520.405193","178270.412061","183625.299892"
"Mixed","Male","tile","25","M_tile.wav","None","740.120161189","440","186703.529735","179037.079019","179803.705944","180570.299848","181320.350256","182087.001435","182853.650568","183620.269603","187470.199324","173703.852931","174470.78698","175220.470943","175987.12446","176753.701707","177520.405193","178270.412061","186708.946047"
"Mixed","Male","tile","25","M_gnash.wav","space","555.90855827","440","186703.529735","179037.079019","179803.705944","180570.299848","181320.350256","182087.001435","182853.650568","183620.269603","187470.199324","188236.812222","174470.78698","175220.470943","175987.12446","176753.701707","177520.405193","178270.412061","187475.254451"
"Mixed","Male","tile","25","F_depth.wav","None","732.568007083","440","186703.529735","179037.079019","179803.705944","180570.299848","181320.350256","182087.001435","182853.650568","183620.269603","187470.199324","188236.812222","189003.607466","175220.470943","175987.12446","176753.701707","177520.405193","178270.412061","188241.869395"
"Mixed","Male","tile","25","M_tile.wav","None","728.881349592","440","186703.529735","179037.079019","179803.705944","180570.299848","181320.350256","182087.001435","182853.650568","183620.269603","187470.199324","188236.812222","189003.607466","189753.486048","175987.12446","176753.701707","177520.405193","178270.412061","189008.48054"
"Mixed","Male","tile","25","M_gnash.wav","space","464.749990503","440","186703.529735","179037.079019","179803.705944","180570.299848","181320.350256","182087.001435","182853.650568","183620.269603","187470.199324","188236.812222","189003.607466","189753.486048","190520.109174","176753.701707","177520.405193","178270.412061","189758.286359"
"Mixed","Male","tile","25","F_bluff.wav","None","738.854260725","440","186703.529735","179037.079019","179803.705944","180570.299848","181320.350256","182087.001435","182853.650568","183620.269603","187470.199324","188236.812222","189003.607466","189753.486048","190520.109174","191286.749248","177520.405193","178270.412061","190523.991035"
"Mixed","Male","tile","25","F_gnash.wav","None","734.2970775","440","186703.529735","179037.079019","179803.705944","180570.299848","181320.350256","182087.001435","182853.650568","183620.269603","187470.199324","188236.812222","189003.607466","189753.486048","190520.109174","191286.749248","192053.431695","178270.412061","191291.47855"
"Mixed","Male","tile","25","F_cling.wav","None","730.521292668","440","186703.529735","179037.079019","179803.705944","180570.299848","181320.350256","182087.001435","182853.650568","183620.269603","187470.199324","188236.812222","189003.607466","189753.486048","190520.109174","191286.749248","192053.431695","192803.442361","192058.264442"
"Mixed","Male","tile","25","F_reek.wav","None","743.57771758","440","186703.529735","193570.027206","179803.705944","180570.299848","181320.350256","182087.001435","182853.650568","183620.269603","187470.199324","188236.812222","189003.607466","189753.486048","190520.109174","191286.749248","192053.431695","192803.442361","192808.238581"
"Mixed","Male","tile","25","M_gnash.wav","None","740.017883912","440","186703.529735","193570.027206","194336.657345","180570.299848","181320.350256","182087.001435","182853.650568","183620.269603","187470.199324","188236.812222","189003.607466","189753.486048","190520.109174","191286.749248","192053.431695","192803.442361","193574.984439"
"Mixed","Male","tile","25","M_tile.wav","None","736.531689884","440","186703.529735","193570.027206","194336.657345","195103.309985","181320.350256","182087.001435","182853.650568","183620.269603","187470.199324","188236.812222","189003.607466","189753.486048","190520.109174","191286.749248","192053.431695","192803.442361","194341.619838"
"Mixed","Male","tile","25","F_cad.wav","space","562.421283025","440","186703.529735","193570.027206","194336.657345","195103.309985","195870.257768","182087.001435","182853.650568","183620.269603","187470.199324","188236.812222","189003.607466","189753.486048","190520.109174","191286.749248","192053.431695","192803.442361","195108.348164"
"Mixed","Male","tile","25","M_tile.wav","None","728.472824928","440","186703.529735","193570.027206","194336.657345","195103.309985","195870.257768","196619.965693","182853.650568","183620.269603","187470.199324","188236.812222","189003.607466","189753.486048","190520.109174","191286.749248","192053.431695","192803.442361","195875.132011"
"Mixed","Male","tile","25","F_cling.wav","space","533.333917775","440","186703.529735","193570.027206","194336.657345","195103.309985","195870.257768","196619.965693","197386.543233","183620.269603","187470.199324","188236.812222","189003.607466","189753.486048","190520.109174","191286.749248","192053.431695","192803.442361","196625.366518"
"Mixed","Male","tile","25","F_jolt.wav","None","737.559430403","440","186703.529735","193570.027206","194336.657345","195103.309985","195870.257768","196619.965693","197386.543233","198153.271266","187470.199324","188236.812222","189003.607466","189753.486048","190520.109174","191286.749248","192053.431695","192803.442361","197391.562709"
"Mixed","Male","tile","27","M_cad.wav","None","734.106257324","440","201270.171271","193570.027206","194336.657345","195103.309985","195870.257768","196619.965693","197386.543233","198153.271266","187470.199324","188236.812222","189003.607466","189753.486048","190520.109174","191286.749248","192053.431695","192803.442361","198158.265319"
"Mixed","Male","tile","27","F_reek.wav","None","723.19005748","440","201270.171271","193570.027206","194336.657345","195103.309985","195870.257768","196619.965693","197386.543233","198153.271266","202019.833609","188236.812222","189003.607466","189753.486048","190520.109174","191286.749248","192053.431695","192803.442361","201275.882434"
"Mixed","Male","tile","27","M_tile.wav","None","737.526409454","440","201270.171271","193570.027206","194336.657345","195103.309985","195870.257768","196619.965693","197386.543233","198153.271266","202019.833609","202786.469885","189003.607466","189753.486048","190520.109174","191286.749248","192053.431695","192803.442361","202024.74701"
"Mixed","Male","tile","27","F_jolt.wav","space","430.667110842","440","201270.171271","193570.027206","194336.657345","195103.309985","195870.257768","196619.965693","197386.543233","198153.271266","202019.833609","202786.469885","203553.069926","189753.486048","190520.109174","191286.749248","192053.431695","192803.442361","202791.668785"
"Mixed","Male","tile","27","F_romp.wav","None","729.635863673","440","201270.171271","193570.027206","194336.657345","195103.309985","195870.257768","196619.965693","197386.543233","198153.271266","202019.833609","202786.469885","203553.069926","204303.088774","190520.109174","191286.749248","192053.431695","192803.442361","203558.228499"
"Mixed","Male","tile","27","F_dime.wav","None","743.179712864","440","201270.171271","193570.027206","194336.657345","195103.309985","195870.257768","196619.965693","197386.543233","198153.271266","202019.833609","202786.469885","203553.069926","204303.088774","205069.76859","191286.749248","192053.431695","192803.442361","204307.988148"
"Mixed","Male","tile","27","M_tile.wav","None","739.751378552","440","201270.171271","193570.027206","194336.657345","195103.309985","195870.257768","196619.965693","197386.543233","198153.271266","202019.833609","202786.469885","203553.069926","204303.088774","205069.76859","205836.365708","192053.431695","192803.442361","205074.525653"
"Mixed","Male","tile","27","M_cling.wav","space","572.443871692","440","201270.171271","193570.027206","194336.657345","195103.309985","195870.257768","196619.965693","197386.543233","198153.271266","202019.833609","202786.469885","203553.069926","204303.088774","205069.76859","205836.365708","206603.004322","192803.442361","205841.715102"
"Mixed","Male","tile","27","F_priest.wav","None","731.852942809","440","201270.171271","193570.027206","194336.657345","195103.309985","195870.257768","196619.965693","197386.543233","198153.271266","202019.833609","202786.469885","203553.069926","204303.088774","205069.76859","205836.365708","206603.004322","207370.09617","206608.015908"
"Mixed","Male","tile","27","F_knife.wav","None","727.368814782","440","201270.171271","208119.701233","194336.657345","195103.309985","195870.257768","196619.965693","197386.543233","198153.271266","202019.833609","202786.469885","203553.069926","204303.088774","205069.76859","205836.365708","206603.004322","207370.09617","207375.458421"
"Mixed","Male","tile","27","F_cling.wav","None","741.527204294","440","201270.171271","208119.701233","208886.360302","195103.309985","195870.257768","196619.965693","197386.543233","198153.271266","202019.833609","202786.469885","203553.069926","204303.088774","205069.76859","205836.365708","206603.004322","207370.09617","208124.417677"
"Mixed","Male","tile","27","M_tile.wav","None","737.88730213","440","201270.171271","208119.701233","208886.360302","209652.935796","195870.257768","196619.965693","197386.543233","198153.271266","202019.833609","202786.469885","203553.069926","204303.088774","205069.76859","205836.365708","206603.004322","207370.09617","208891.180777"
"Mixed","Male","tile","27","M_reek.wav","space","563.576431809","440","201270.171271","208119.701233","208886.360302","209652.935796","210419.608892","196619.965693","197386.543233","198153.271266","202019.833609","202786.469885","203553.069926","204303.088774","205069.76859","205836.365708","206603.004322","207370.09617","209658.317626"
"Mixed","Male","tile","27","M_tile.wav","None","730.073318196","440","201270.171271","208119.701233","208886.360302","209652.935796","210419.608892","211186.74691","197386.543233","198153.271266","202019.833609","202786.469885","203553.069926","204303.088774","205069.76859","205836.365708","206603.004322","207370.09617","210424.783245"
"Mixed","Male","tile","27","M_depth.wav","space","565.616717367","440","201270.171271","208119.701233","208886.360302","209652.935796","210419.608892","211186.74691","211936.337071","198153.271266","202019.833609","202786.469885","203553.069926","204303.088774","205069.76859","205836.365708","206603.004322","207370.09617","211192.214069"
"Mixed","Male","tile","27","F_depth.wav","None","740.36095112","440","201270.171271","208119.701233","208886.360302","209652.935796","210419.608892","211186.74691","211936.337071","212702.88042","202019.833609","202786.469885","203553.069926","204303.088774","205069.76859","205836.365708","206603.004322","207370.09617","211941.200501"
"Mixed","Male","done","40","F_priest.wav","None","737.856911168","440","215802.816716","208119.701233","208886.360302","209652.935796","210419.608892","211186.74691","211936.337071","212702.88042","202019.833609","202786.469885","203553.069926","204303.088774","205069.76859","205836.365708","206603.004322","207370.09617","212707.921229"
"Mixed","Male","done","40","M_done.wav","None","741.306577598","440","215802.816716","208119.701233","208886.360302","209652.935796","210419.608892","211186.74691","211936.337071","212702.88042","216569.452992","202786.469885","203553.069926","204303.088774","205069.76859","205836.365708","206603.004322","207370.09617","215807.963309"
"Mixed","Male","done","40","F_knife.wav","space","519.03438562","440","215802.816716","208119.701233","208886.360302","209652.935796","210419.608892","211186.74691","211936.337071","212702.88042","216569.452992","217336.133977","203553.069926","204303.088774","205069.76859","205836.365708","206603.004322","207370.09617","216574.502275"
"Mixed","Male","done","40","M_jolt.wav","None","734.012162229","440","215802.816716","208119.701233","208886.360302","209652.935796","210419.608892","211186.74691","211936.337071","212702.88042","216569.452992","217336.133977","218102.764409","204303.088774","205069.76859","205836.365708","206603.004322","207370.09617","217340.889579"
"Mixed","Male","done","40","M_done.wav","None","730.193713162","440","215802.816716","208119.701233","208886.360302","209652.935796","210419.608892","211186.74691","211936.337071","212702.88042","216569.452992","217336.133977","218102.764409","218852.800206","205069.76859","205836.365708","206603.004322","207370.09617","218107.733331"
"Mixed","Male","done","40","M_greet.wav","space","619.591650668","440","215802.816716","208119.701233","208886.360302","209652.935796","210419.608892","211186.74691","211936.337071","212702.88042","216569.452992","217336.133977","218102.764409","218852.800206","219619.364011","205836.365708","206603.004322","207370.09617","218857.792213"
"Mixed","Male","done","40","F_depth.wav","None","739.422922383","440","215802.816716","208119.701233","208886.360302","209652.935796","210419.608892","211186.74691","211936.337071","212702.88042","216569.452992","217336.133977","218102.764409","218852.800206","219619.364011","220386.067205","206603.004322","207370.09617","219624.237085"
"Mixed","Male","done","40","M_done.wav","None","735.531418118","440","215802.816716","208119.701233","208886.360302","209652.935796","210419.608892","211186.74691","211936.337071","212702.88042","216569.452992","217336.133977","218102.764409","218852.800206","219619.364011","220386.067205","221152.698513","207370.09617","220391.238928"
"Mixed","Male","done","40","F_knife.wav","space","583.623070247","440","215802.816716","208119.701233","208886.360302","209652.935796","210419.608892","211186.74691","211936.337071","212702.88042","216569.452992","217336.133977","218102.764409","218852.800206","219619.364011","220386.067205","221152.698513","221919.577624","221157.675033"
"Mixed","Male","done","40","M_done.wav","None","727.037436405","440","215802.816716","222669.30016","208886.360302","209652.935796","210419.608892","211186.74691","211936.337071","212702.88042","216569.452992","217336.133977","218102.764409","218852.800206","219619.364011","220386.067205","221152.698513","221919.577624","221925.481653"
"Mixed","Male","done","40","M_cling.wav","space","546.90523572","440","215802.816716","222669.30016","223435.996049","209652.935796","210419.608892","211186.74691","211936.337071","212702.88042","216569.452992","217336.133977","218102.764409","218852.800206","219619.364011","220386.067205","221152.698513","221919.577624","222674.300935"
"Mixed","Male","done","40","F_gnash.wav","None","737.038692955","440","215802.816716","222669.30016","223435.996049","224202.649858","210419.608892","211186.74691","211936.337071","212702.88042","216569.452992","217336.133977","218102.764409","218852.800206","219619.364011","220386.067205","221152.698513","221919.577624","223440.997116"
"Mixed","Male","done","40","M_greet.wav","None","733.971251319","440","215802.816716","222669.30016","223435.996049","224202.649858","224969.279121","211186.74691","211936.337071","212702.88042","216569.452992","217336.133977","218102.764409","218852.800206","219619.364011","220386.067205","221152.698513","221919.577624","224207.398446"
"Mixed","Male","done","40","F_romp.wav","None","730.316738115","440","215802.816716","222669.30016","223435.996049","224202.649858","224969.279121","225719.28365","211936.337071","212702.88042","216569.452992","217336.133977","218102.764409","218852.800206","219619.364011","220386.067205","221152.698513","221919.577624","224974.184046"
"Mixed","Male","done","40","F_park.wav","None","743.556093242","440","215802.816716","222669.30016","223435.996049","224202.649858","224969.279121","225719.28365","226485.914373","212702.88042","216569.452992","217336.133977","218102.764409","218852.800206","219619.364011","220386.067205","221152.698513","221919.577624","225724.126625"
"Mixed","Male","done","40","F_gnash.wav","None","739.581890493","440","215802.816716","222669.30016","223435.996049","224202.649858","224969.279121","225719.28365","226485.914373","227252.554448","216569.452992","217336.133977","218102.764409","218852.800206","219619.364011","220386.067205","221152.698513","221919.577624","226491.340037"
"Mixed","Female","ball","7","F_romp.wav","None","736.712866774","440","230369.09093","222669.30016","223435.996049","224202.649858","224969.279121","225719.28365","226485.914373","227252.554448","216569.452992","217336.133977","218102.764409","218852.800206","219619.364011","220386.067205","221152.698513","221919.577624","227257.600517"
"Mixed","Female","ball","7","M_lash.wav","None","740.14266219","440","230369.09093","222669.30016","223435.996049","224202.649858","224969.279121","225719.28365","226485.914373","227252.554448","231135.783312","217336.133977","218102.764409","218852.800206","219619.364011","220386.067205","221152.698513","221919.577624","230374.393569"
"Mixed","Female","ball","7","F_ball.wav","None","736.637766031","440","230369.09093","222669.30016","223435.996049","224202.649858","224969.279121","225719.28365","226485.914373","227252.554448","231135.783312","231902.432446","218102.764409","218852.800206","219619.364011","220386.067205","221152.698513","221919.577624","231141.096763"
"Mixed","Female","ball","7","M_gnash.wav","space","409.460063646","440","230369.09093","222669.30016","223435.996049","224202.649858","224969.279121","225719.28365","226485.914373","227252.554448","231135.783312","231902.432446","232669.113431","218852.800206","219619.364011","220386.067205","221152.698513","221919.577624","231907.199444"
"Mixed","Female","ball","7","F_ball.wav","None","729.321141882","440","230369.09093","222669.30016","223435.996049","224202.649858","224969.279121","225719.28365","226485.914373","227252.554448","231135.783312","231902.432446","232669.113431","233419.102765","219619.364011","220386.067205","221152.698513","221919.577624","232674.013097"
"Mixed","Female","ball","7","M_cling.wav","space","428.412335224","440","230369.09093","222669.30016","223435.996049","224202.649858","224969.279121","225719.28365","226485.914373","227252.554448","231135.783312","231902.432446","232669.113431","233419.102765","234185.703682","220386.067205","221152.698513","221919.577624","233424.143574"
"Mixed","Female","ball","7","M_priest.wav","None","738.073446773","440","230369.09093","222669.30016","223435.996049","224202.649858","224969.279121","225719.28365","226485.914373","227252.554448","231135.783312","231902.432446","232669.113431","233419.102765","234185.703682","234952.379408","221152.698513","221919.577624","234190.888556"
"Mixed","Female","ball","7","M_depth.wav","None","734.654463526","440","230369.09093","222669.30016","223435.996049","224202.649858","224969.279121","225719.28365","226485.914373","227252.554448","231135.783312","231902.432446","232669.113431","233419.102765","234185.703682","234952.379408","235718.991721","221919.577624","234957.617465"
"Mixed","Female","ball","7","M_dime.wav","None","731.842715082","440","230369.09093","222669.30016","223435.996049","224202.649858","224969.279121","225719.28365","226485.914373","227252.554448","231135.783312","231902.432446","232669.113431","233419.102765","234185.703682","234952.379408","235718.991721","236486.167144","235723.857198"
"Mixed","Female","ball","7","F_cling.wav","None","727.223581049","440","230369.09093","237235.666716","223435.996049","224202.649858","224969.279121","225719.28365","226485.914373","227252.554448","231135.783312","231902.432446","232669.113431","233419.102765","234185.703682","234952.379408","235718.991721","236486.167144","236491.732197"
"Mixed","Female","ball","7","M_bluff.wav","None","741.46992902","440","230369.09093","237235.666716","238002.305622","224202.649858","224969.279121","225719.28365","226485.914373","227252.554448","231135.783312","231902.432446","232669.113431","233419.102765","234185.703682","234952.379408","235718.991721","236486.167144","237240.871169"
"Mixed","Female","ball","7","F_ball.wav","None","738.361576473","440","230369.09093","237235.666716","238002.305622","238768.896896","224969.279121","225719.28365","226485.914373","227252.554448","231135.783312","231902.432446","232669.113431","233419.102765","234185.703682","234952.379408","235718.991721","236486.167144","238007.392894"
"Mixed","Female","ball","7","M_priest.wav","space","462.538463562","440","230369.09093","237235.666716","238002.305622","238768.896896","239535.544276","225719.28365","226485.914373","227252.554448","231135.783312","231902.432446","232669.113431","233419.102765","234185.703682","234952.379408","235718.991721","236486.167144","238773.749514"
"Mixed","Female","ball","7","F_knife.wav","None","730.900010812","440","230369.09093","237235.666716","238002.305622","238768.896896","239535.544276","240302.645767","226485.914373","227252.554448","231135.783312","231902.432446","232669.113431","233419.102765","234185.703682","234952.379408","235718.991721","236486.167144","239540.633885"
"Mixed","Female","ball","7","F_ball.wav","None","726.698168068","440","230369.09093","237235.666716","238002.305622","238768.896896","239535.544276","240302.645767","241052.18888","227252.554448","231135.783312","231902.432446","232669.113431","233419.102765","234185.703682","234952.379408","235718.991721","236486.167144","240308.120816"
"Mixed","Female","ball","7","F_knife.wav","space","642.80479359","440","230369.09093","237235.666716","238002.305622","238768.896896","239535.544276","240302.645767","241052.18888","241818.831292","231135.783312","231902.432446","232669.113431","233419.102765","234185.703682","234952.379408","235718.991721","236486.167144","241057.355343"
"Mixed","Female","tile","32","M_cling.wav","None","736.679845824","440","244935.491092","237235.666716","238002.305622","238768.896896","239535.544276","240302.645767","241052.18888","241818.831292","231135.783312","231902.432446","232669.113431","233419.102765","234185.703682","234952.379408","235718.991721","236486.167144","241823.810442"
"Mixed","Female","tile","32","F_tile.wav","None","740.193508607","440","244935.491092","237235.666716","238002.305622","238768.896896","239535.544276","240302.645767","241052.18888","241818.831292","245702.094931","231902.432446","232669.113431","233419.102765","234185.703682","234952.379408","235718.991721","236486.167144","244940.540082"
"Mixed","Female","tile","32","M_lash.wav","None","740.426700798","440","244935.491092","237235.666716","238002.305622","238768.896896","239535.544276","240302.645767","241052.18888","241818.831292","245702.094931","246468.723024","232669.113431","233419.102765","234185.703682","234952.379408","235718.991721","236486.167144","245703.65802"
"Mixed","Female","tile","32","M_cad.wav","space","130.14111342","440","244935.491092","237235.666716","238002.305622","238768.896896","239535.544276","240302.645767","241052.18888","241818.831292","245702.094931","246468.723024","247235.402549","233419.102765","234185.703682","234952.379408","235718.991721","236486.167144","246473.740455"
"Mixed","Female","tile","32","F_dime.wav","None","729.213896852","440","244935.491092","237235.666716","238002.305622","238768.896896","239535.544276","240302.645767","241052.18888","241818.831292","245702.094931","246468.723024","247235.402549","247985.315029","234185.703682","234952.379408","235718.991721","236486.167144","247240.593559"
"Mixed","Female","tile","32","M_jaw.wav","None","743.06720786","440","244935.491092","237235.666716","238002.305622","238768.896896","239535.544276","240302.645767","241052.18888","241818.831292","245702.094931","246468.723024","247235.402549","247985.315029","248752.014716","234952.379408","235718.991721","236486.167144","247990.214402"
"Mixed","Female","tile","32","F_tile.wav","None","739.623385845","440","244935.491092","237235.666716","238002.305622","238768.896896","239535.544276","240302.645767","241052.18888","241818.831292","245702.094931","246468.723024","247235.402549","247985.315029","248752.014716","249518.643979","235718.991721","236486.167144","248757.109293"
"Mixed","Female","tile","32","F_jaw.wav","space","511.791401111","440","244935.491092","237235.666716","238002.305622","238768.896896","239535.544276","240302.645767","241052.18888","241818.831292","245702.094931","246468.723024","247235.402549","247985.315029","248752.014716","249518.643979","250285.303632","236486.167144","249523.87853"
"Mixed","Female","tile","32","F_tile.wav","None","732.118571508","440","244935.491092","237235.666716","238002.305622","238768.896896","239535.544276","240302.645767","241052.18888","241818.831292","245702.094931","246468.723024","247235.402549","247985.315029","248752.014716","249518.643979","250285.303632","251051.932894","250290.452562"
"Mixed","Female","tile","32","M_priest.wav","space","522.664060057","440","244935.491092","251801.993238","238002.305622","238768.896896","239535.544276","240302.645767","241052.18888","241818.831292","245702.094931","246468.723024","247235.402549","247985.315029","248752.014716","249518.643979","250285.303632","251051.932894","251056.916428"
"Mixed","Female","tile","32","M_priest.wav","None","741.562270789","440","244935.491092","251801.993238","252568.594739","238768.896896","239535.544276","240302.645767","241052.18888","241818.831292","245702.094931","246468.723024","247235.402549","247985.315029","248752.014716","249518.643979","250285.303632","251051.932894","251806.929432"
"Mixed","Female","tile","32","F_tile.wav","None","738.204946129","440","244935.491092","251801.993238","252568.594739","253335.239782","239535.544276","240302.645767","241052.18888","241818.831292","245702.094931","246468.723024","247235.402549","247985.315029","248752.014716","249518.643979","250285.303632","251051.932894","252573.662725"
"Mixed","Female","tile","32","F_romp.wav","space","726.90593705","440","244935.491092","251801.993238","252568.594739","253335.239782","254101.902065","240302.645767","241052.18888","241818.831292","245702.094931","246468.723024","247235.402549","247985.315029","248752.014716","249518.643979","250285.303632","251051.932894","253340.511153"
"Mixed","Female","tile","32","M_park.wav","None","730.911115202","440","244935.491092","251801.993238","252568.594739","253335.239782","254101.902065","254868.733252","241052.18888","241818.831292","245702.094931","246468.723024","247235.402549","247985.315029","248752.014716","249518.643979","250285.303632","251051.932894","254106.778061"
"Mixed","Female","tile","32","F_depth.wav","None","727.288161844","440","244935.491092","251801.993238","252568.594739","253335.239782","254101.902065","254868.733252","255618.559527","241818.831292","245702.094931","246468.723024","247235.402549","247985.315029","248752.014716","249518.643979","250285.303632","251051.932894","254873.687271"
"Mixed","Female","tile","32","M_dime.wav","None","740.732655966","440","244935.491092","251801.993238","252568.594739","253335.239782","254101.902065","254868.733252","255618.559527","256385.124208","245702.094931","246468.723024","247235.402549","247985.315029","248752.014716","249518.643979","250285.303632","251051.932894","255623.586309"
"Mixed","Female","tile","31","M_park.wav","None","737.512090635","440","259501.752156","251801.993238","252568.594739","253335.239782","254101.902065","254868.733252","255618.559527","256385.124208","245702.094931","246468.723024","247235.402549","247985.315029","248752.014716","249518.643979","250285.303632","251051.932894","256390.15099"
"Mixed","Female","tile","31","F_tile.wav","None","740.997408002","440","259501.752156","251801.993238","252568.594739","253335.239782","254101.902065","254868.733252","255618.559527","256385.124208","260268.382879","246468.723024","247235.402549","247985.315029","248752.014716","249518.643979","250285.303632","251051.932894","259506.908684"
"Mixed","Female","tile","31","M_jolt.wav","space","705.623204669","440","259501.752156","251801.993238","252568.594739","253335.239782","254101.902065","254868.733252","255618.559527","256385.124208","260268.382879","261035.078476","247235.402549","247985.315029","248752.014716","249518.643979","250285.303632","251051.932894","260273.415214"
"Mixed","Female","tile","31","F_tile.wav","None","733.54285564","440","259501.752156","251801.993238","252568.594739","253335.239782","254101.902065","254868.733252","255618.559527","256385.124208","260268.382879","261035.078476","261801.687575","247985.315029","248752.014716","249518.643979","250285.303632","251051.932894","261040.251953"
"Mixed","Female","tile","31","M_priest.wav","None","730.570677982","440","259501.752156","251801.993238","252568.594739","253335.239782","254101.902065","254868.733252","255618.559527","256385.124208","260268.382879","261035.078476","261801.687575","262568.444538","248752.014716","249518.643979","250285.303632","251051.932894","261806.74241"
"Mixed","Female","tile","31","F_tile.wav","space","0.0204554552329","440","259501.752156","251801.993238","252568.594739","253335.239782","254101.902065","254868.733252","255618.559527","256385.124208","260268.382879","261035.078476","261801.687575","262568.444538","263318.323997","249518.643979","250285.303632","251051.932894","262574.489417"
"Mixed","Female","tile","31","M_romp.wav","space","711.684448302","440","259501.752156","251801.993238","252568.594739","253335.239782","254101.902065","254868.733252","255618.559527","256385.124208","260268.382879","261035.078476","261801.687575","262568.444538","263318.323997","264084.914394","250285.303632","251051.932894","263323.192687"
"Mixed","Female","tile","31","M_cad.wav","None","735.537262534","440","259501.752156","251801.993238","252568.594739","253335.239782","254101.902065","254868.733252","255618.559527","256385.124208","260268.382879","261035.078476","261801.687575","262568.444538","263318.323997","264084.914394","264851.602977","251051.932894","264090.157419"
"Mixed","Female","tile","31","M_priest.wav","None","732.521543978","440","259501.752156","251801.993238","252568.594739","253335.239782","254101.902065","254868.733252","255618.559527","256385.124208","260268.382879","261035.078476","261801.687575","262568.444538","263318.323997","264084.914394","264851.602977","265618.263507","264856.791357"
"Mixed","Female","tile","31","F_lash.wav","None","729.459946757","440","259501.752156","266368.276511","252568.594739","253335.239782","254101.902065","254868.733252","255618.559527","256385.124208","260268.382879","261035.078476","261801.687575","262568.444538","263318.323997","264084.914394","264851.602977","265618.263507","265623.409515"
"Mixed","Female","tile","31","M_park.wav","None","743.061655665","440","259501.752156","266368.276511","267134.932073","253335.239782","254101.902065","254868.733252","255618.559527","256385.124208","260268.382879","261035.078476","261801.687575","262568.444538","263318.323997","264084.914394","264851.602977","265618.263507","266373.299786"
"Mixed","Female","tile","31","F_bluff.wav","None","739.817712671","440","259501.752156","266368.276511","267134.932073","267901.488865","254101.902065","254868.733252","255618.559527","256385.124208","260268.382879","261035.078476","261801.687575","262568.444538","263318.323997","264084.914394","264851.602977","265618.263507","267140.148214"
"Mixed","Female","tile","31","F_dime.wav","None","736.806669647","440","259501.752156","266368.276511","267134.932073","267901.488865","268668.220989","254868.733252","255618.559527","256385.124208","260268.382879","261035.078476","261801.687575","262568.444538","263318.323997","264084.914394","264851.602977","265618.263507","267906.637795"
"Mixed","Female","tile","31","F_romp.wav","None","733.515386886","440","259501.752156","266368.276511","267134.932073","267901.488865","268668.220989","269434.859895","255618.559527","256385.124208","260268.382879","261035.078476","261801.687575","262568.444538","263318.323997","264084.914394","264851.602977","265618.263507","268673.392713"
"Mixed","Female","tile","31","F_tile.wav","None","730.575353514","440","259501.752156","266368.276511","267134.932073","267901.488865","268668.220989","269434.859895","270201.660106","256385.124208","260268.382879","261035.078476","261801.687575","262568.444538","263318.323997","264084.914394","264851.602977","265618.263507","269439.925834"
"Mixed","Female","tile","31","M_romp.wav","space","643.783148796","440","259501.752156","266368.276511","267134.932073","267901.488865","268668.220989","269434.859895","270201.660106","270951.5007","260268.382879","261035.078476","261801.687575","262568.444538","263318.323997","264084.914394","264851.602977","265618.263507","270206.728968"
"Mixed","Female","tile","35","F_lash.wav","None","739.907424454","440","274051.365694","266368.276511","267134.932073","267901.488865","268668.220989","269434.859895","270201.660106","270951.5007","260268.382879","261035.078476","261801.687575","262568.444538","263318.323997","264084.914394","264851.602977","265618.263507","270956.441861"
"Mixed","Female","tile","35","F_tile.wav","None","740.07603585","440","274051.365694","266368.276511","267134.932073","267901.488865","268668.220989","269434.859895","270201.660106","270951.5007","274818.047556","261035.078476","261801.687575","262568.444538","263318.323997","264084.914394","264851.602977","265618.263507","274056.860906"
"Mixed","Female","tile","35","M_cling.wav","None","737.328575979","440","274051.365694","266368.276511","267134.932073","267901.488865","268668.220989","269434.859895","270201.660106","270951.5007","274818.047556","275584.698735","261801.687575","262568.444538","263318.323997","264084.914394","264851.602977","265618.263507","274823.244995"
"Mixed","Female","tile","35","M_jolt.wav","space","0.0166565850959","440","274051.365694","266368.276511","267134.932073","267901.488865","268668.220989","269434.859895","270201.660106","270951.5007","274818.047556","275584.698735","276351.33881","262568.444538","263318.323997","264084.914394","264851.602977","265618.263507","275589.449076"
"Mixed","Female","tile","35","F_tile.wav","None","730.25946284","440","274051.365694","266368.276511","267134.932073","267901.488865","268668.220989","269434.859895","270201.660106","270951.5007","274818.047556","275584.698735","276351.33881","277118.195712","263318.323997","264084.914394","264851.602977","265618.263507","276356.485694"
"Mixed","Female","tile","35","M_depth.wav","space","438.078122306","440","274051.365694","266368.276511","267134.932073","267901.488865","268668.220989","269434.859895","270201.660106","270951.5007","274818.047556","275584.698735","276351.33881","277118.195712","277867.981952","264084.914394","264851.602977","265618.263507","277124.036621"
"Mixed","Female","tile","35","F_tile.wav","None","739.41795463","440","274051.365694","266368.276511","267134.932073","267901.488865","268668.220989","269434.859895","270201.660106","270951.5007","274818.047556","275584.698735","276351.33881","277118.195712","277867.981952","278634.595435","264851.602977","265618.263507","277873.37138"
"Mixed","Female","tile","35","F_lash.wav","space","458.686409103","440","274051.365694","266368.276511","267134.932073","267901.488865","268668.220989","269434.859895","270201.660106","270951.5007","274818.047556","275584.698735","276351.33881","277118.195712","277867.981952","278634.595435","279401.255088","265618.263507","278639.334964"
"Mixed","Female","tile","35","M_romp.wav","None","732.615639072","440","274051.365694","266368.276511","267134.932073","267901.488865","268668.220989","269434.859895","270201.660106","270951.5007","274818.047556","275584.698735","276351.33881","277118.195712","277867.981952","278634.595435","279401.255088","280167.922632","279406.287715"
"Mixed","Female","tile","35","M_knife.wav","None","729.301270868","440","274051.365694","280917.909336","267134.932073","267901.488865","268668.220989","269434.859895","270201.660106","270951.5007","274818.047556","275584.698735","276351.33881","277118.195712","277867.981952","278634.595435","279401.255088","280167.922632","280173.015748"
"Mixed","Female","tile","35","M_depth.wav","None","742.772941524","440","274051.365694","280917.909336","281684.570742","267901.488865","268668.220989","269434.859895","270201.660106","270951.5007","274818.047556","275584.698735","276351.33881","277118.195712","277867.981952","278634.595435","279401.255088","280167.922632","280923.191226"
"Mixed","Female","tile","35","F_tile.wav","None","739.940737624","440","274051.365694","280917.909336","281684.570742","282451.192407","268668.220989","269434.859895","270201.660106","270951.5007","274818.047556","275584.698735","276351.33881","277118.195712","277867.981952","278634.595435","279401.255088","280167.922632","281689.61535"
"Mixed","Female","tile","35","F_priest.wav","space","665.468269205","440","274051.365694","280917.909336","281684.570742","282451.192407","283217.867256","269434.859895","270201.660106","270951.5007","274818.047556","275584.698735","276351.33881","277118.195712","277867.981952","278634.595435","279401.255088","280167.922632","282456.323804"
"Mixed","Female","tile","35","F_lash.wav","None","732.949062994","440","274051.365694","280917.909336","281684.570742","282451.192407","283217.867256","283984.471972","270201.660106","270951.5007","274818.047556","275584.698735","276351.33881","277118.195712","277867.981952","278634.595435","279401.255088","280167.922632","283222.980827"
"Mixed","Female","tile","35","M_gnash.wav","None","729.635863673","440","274051.365694","280917.909336","281684.570742","282451.192407","283217.867256","283984.471972","284734.449909","270951.5007","274818.047556","275584.698735","276351.33881","277118.195712","277867.981952","278634.595435","279401.255088","280167.922632","283989.803832"
"Mixed","Female","tile","35","M_gnash.wav","None","743.508169032","440","274051.365694","280917.909336","281684.570742","282451.192407","283217.867256","283984.471972","284734.449909","285501.128849","274818.047556","275584.698735","276351.33881","277118.195712","277867.981952","278634.595435","279401.255088","280167.922632","284739.597963"
"Mixed","Male","cave","16","F_cling.wav","None","740.705479432","440","288617.766147","280917.909336","281684.570742","282451.192407","283217.867256","283984.471972","284734.449909","285501.128849","274818.047556","275584.698735","276351.33881","277118.195712","277867.981952","278634.595435","279401.255088","280167.922632","285506.242713"
"Mixed","Male","cave","16","F_dime.wav","None","739.989538496","440","288617.766147","280917.909336","281684.570742","282451.192407","283217.867256","283984.471972","284734.449909","285501.128849","289384.39541","275584.698735","276351.33881","277118.195712","277867.981952","278634.595435","279401.255088","280167.922632","288623.071416"
"Mixed","Male","cave","16","F_greet.wav","None","737.122852542","440","288617.766147","280917.909336","281684.570742","282451.192407","283217.867256","283984.471972","284734.449909","285501.128849","289384.39541","290150.993989","276351.33881","277118.195712","277867.981952","278634.595435","279401.255088","280167.922632","289389.343292"
"Mixed","Male","cave","16","M_cave.wav","None","734.30467524","440","288617.766147","280917.909336","281684.570742","282451.192407","283217.867256","283984.471972","284734.449909","285501.128849","289384.39541","290150.993989","290917.685494","277118.195712","277867.981952","278634.595435","279401.255088","280167.922632","290155.755435"
"Mixed","Male","cave","16","M_dime.wav","space","662.634311981","440","288617.766147","280917.909336","281684.570742","282451.192407","283217.867256","283984.471972","284734.449909","285501.128849","289384.39541","290150.993989","290917.685494","291667.627196","277867.981952","278634.595435","279401.255088","280167.922632","290922.680132"
"Mixed","Male","cave","16","F_jaw.wav","None","743.758310029","440","288617.766147","280917.909336","281684.570742","282451.192407","283217.867256","283984.471972","284734.449909","285501.128849","289384.39541","290150.993989","290917.685494","291667.627196","292434.307597","278634.595435","279401.255088","280167.922632","291672.625633"
"Mixed","Male","cave","16","M_cave.wav","None","740.543881335","440","288617.766147","280917.909336","281684.570742","282451.192407","283217.867256","283984.471972","284734.449909","285501.128849","289384.39541","290150.993989","290917.685494","291667.627196","292434.307597","293200.899163","279401.255088","280167.922632","292439.413279"
"Mixed","Male","cave","16","M_greet.wav","space","643.199291657","440","288617.766147","280917.909336","281684.570742","282451.192407","283217.867256","283984.471972","284734.449909","285501.128849","289384.39541","290150.993989","290917.685494","291667.627196","292434.307597","293200.899163","293967.594175","280167.922632","293205.970655"
"Mixed","Male","cave","16","F_cling.wav","None","733.163845275","440","288617.766147","280917.909336","281684.570742","282451.192407","283217.867256","283984.471972","284734.449909","285501.128849","289384.39541","290150.993989","290917.685494","291667.627196","292434.307597","293200.899163","293967.594175","294734.214087","293972.554039"
"Mixed","Male","cave","16","F_reek.wav","None","729.929253347","440","288617.766147","295484.168646","281684.570742","282451.192407","283217.867256","283984.471972","284734.449909","285501.128849","289384.39541","290150.993989","290917.685494","291667.627196","292434.307597","293200.899163","293967.594175","294734.214087","294739.439579"
"Mixed","Male","cave","16","F_priest.wav","None","743.050843495","440","288617.766147","295484.168646","296250.839989","282451.192407","283217.867256","283984.471972","284734.449909","285501.128849","289384.39541","290150.993989","290917.685494","291667.627196","292434.307597","293200.899163","293967.594175","294734.214087","295489.65217"
"Mixed","Male","cave","16","M_cave.wav","None","740.226237336","440","288617.766147","295484.168646","296250.839989","297017.497596","283217.867256","283984.471972","284734.449909","285501.128849","289384.39541","290150.993989","290917.685494","291667.627196","292434.307597","293200.899163","293967.594175","294734.214087","296256.007913"
"Mixed","Male","cave","16","M_dime.wav","space","722.704386526","440","288617.766147","295484.168646","296250.839989","297017.497596","297784.197284","283984.471972","284734.449909","285501.128849","289384.39541","290150.993989","290917.685494","291667.627196","292434.307597","293200.899163","293967.594175","294734.214087","297022.276868"
"Mixed","Male","cave","16","F_jaw.wav","None","732.880391108","440","288617.766147","295484.168646","296250.839989","297017.497596","297784.197284","298550.813689","284734.449909","285501.128849","289384.39541","290150.993989","290917.685494","291667.627196","292434.307597","293200.899163","293967.594175","294734.214087","297789.077664"
"Mixed","Male","cave","16","M_cave.wav","None","729.437737977","440","288617.766147","295484.168646","296250.839989","297017.497596","297784.197284","298550.813689","299300.804192","285501.128849","289384.39541","290150.993989","290917.685494","291667.627196","292434.307597","293200.899163","293967.594175","294734.214087","298556.083306"
"Mixed","Male","cave","16","M_knife.wav","space","726.694369197","440","288617.766147","295484.168646","296250.839989","297017.497596","297784.197284","298550.813689","299300.804192","300067.453325","289384.39541","290150.993989","290917.685494","291667.627196","292434.307597","293200.899163","293967.594175","294734.214087","299306.110045"
"Mixed","Female","cave","19","M_dime.wav","None","739.338178354","440","303184.106696","295484.168646","296250.839989","297017.497596","297784.197284","298550.813689","299300.804192","300067.453325","289384.39541","290150.993989","290917.685494","291667.627196","292434.307597","293200.899163","293967.594175","294734.214087","300072.511082"
"Mixed","Female","cave","19","M_bluff.wav","space","0.0216243385221","440","303184.106696","295484.168646","296250.839989","297017.497596","297784.197284","298550.813689","299300.804192","300067.453325","303950.65589","290150.993989","290917.685494","291667.627196","292434.307597","293200.899163","293967.594175","294734.214087","303189.152764"
"Mixed","Female","cave","19","M_cling.wav","None","736.12725631","440","303184.106696","295484.168646","296250.839989","297017.497596","297784.197284","298550.813689","299300.804192","300067.453325","303950.65589","304717.343596","290917.685494","291667.627196","292434.307597","293200.899163","293967.594175","294734.214087","303955.736732"
"Mixed","Female","cave","19","F_cave.wav","None","732.962797371","440","303184.106696","295484.168646","296250.839989","297017.497596","297784.197284","298550.813689","299300.804192","300067.453325","303950.65589","304717.343596","305483.917629","291667.627196","292434.307597","293200.899163","293967.594175","294734.214087","304722.389957"
"Mixed","Female","cave","19","M_cad.wav","space","607.389971567","440","303184.106696","295484.168646","296250.839989","297017.497596","297784.197284","298550.813689","299300.804192","300067.453325","303950.65589","304717.343596","305483.917629","306233.970959","292434.307597","293200.899163","293967.594175","294734.214087","305489.07328"
"Mixed","Female","cave","19","F_cling.wav","None","742.429874316","440","303184.106696","295484.168646","296250.839989","297017.497596","297784.197284","298550.813689","299300.804192","300067.453325","303950.65589","304717.343596","305483.917629","306233.970959","307000.574506","293200.899163","293967.594175","294734.214087","306238.955369"
"Mixed","Female","cave","19","F_gnash.wav","None","739.470846593","440","303184.106696","295484.168646","296250.839989","297017.497596","297784.197284","298550.813689","299300.804192","300067.453325","303950.65589","304717.343596","305483.917629","306233.970959","307000.574506","307767.228899","293967.594175","294734.214087","307005.60158"
"Mixed","Female","cave","19","M_priest.wav","None","736.180440494","440","303184.106696","295484.168646","296250.839989","297017.497596","297784.197284","298550.813689","299300.804192","300067.453325","303950.65589","304717.343596","305483.917629","306233.970959","307000.574506","307767.228899","308533.921866","294734.214087","307772.574202"
"Mixed","Female","cave","19","M_depth.wav","None","733.282194695","440","303184.106696","295484.168646","296250.839989","297017.497596","297784.197284","298550.813689","299300.804192","300067.453325","303950.65589","304717.343596","305483.917629","306233.970959","307000.574506","307767.228899","308533.921866","309300.533887","308539.085992"
"Mixed","Female","cave","19","M_dime.wav","None","730.441808613","440","303184.106696","310067.543913","296250.839989","297017.497596","297784.197284","298550.813689","299300.804192","300067.453325","303950.65589","304717.343596","305483.917629","306233.970959","307000.574506","307767.228899","308533.921866","309300.533887","309305.590184"
"Mixed","Female","cave","19","F_cave.wav","None","726.404193953","440","303184.106696","310067.543913","310817.180829","297017.497596","297784.197284","298550.813689","299300.804192","300067.453325","303950.65589","304717.343596","305483.917629","306233.970959","307000.574506","307767.228899","308533.921866","309300.533887","310073.207737"
"Mixed","Female","cave","19","M_romp.wav","space","673.775521833","440","303184.106696","310067.543913","310817.180829","311583.755154","297784.197284","298550.813689","299300.804192","300067.453325","303950.65589","304717.343596","305483.917629","306233.970959","307000.574506","307767.228899","308533.921866","309300.533887","310822.339695"
"Mixed","Female","cave","19","F_cave.wav","None","736.221935846","440","303184.106696","310067.543913","310817.180829","311583.755154","312350.437308","298550.813689","299300.804192","300067.453325","303950.65589","304717.343596","305483.917629","306233.970959","307000.574506","307767.228899","308533.921866","309300.533887","311589.148965"
"Mixed","Female","cave","19","F_jolt.wav","None","733.551330043","440","303184.106696","310067.543913","310817.180829","311583.755154","312350.437308","313117.151023","299300.804192","300067.453325","303950.65589","304717.343596","305483.917629","306233.970959","307000.574506","307767.228899","308533.921866","309300.533887","312355.599681"
"Mixed","Female","cave","19","F_cave.wav","space","37.8884710132","440","303184.106696","310067.543913","310817.180829","311583.755154","312350.437308","313117.151023","313867.076652","300067.453325","303950.65589","304717.343596","305483.917629","306233.970959","307000.574506","307767.228899","308533.921866","309300.533887","313122.165824"
"Mixed","Female","cave","19","F_reek.wav","space","695.936962131","440","303184.106696","310067.543913","310817.180829","311583.755154","312350.437308","313117.151023","313867.076652","314633.759976","303950.65589","304717.343596","305483.917629","306233.970959","307000.574506","307767.228899","308533.921866","309300.533887","313872.054049"
"Mixed","Female","cave","21","M_lash.wav","None","738.788511047","440","317750.323635","310067.543913","310817.180829","311583.755154","312350.437308","313117.151023","313867.076652","314633.759976","303950.65589","304717.343596","305483.917629","306233.970959","307000.574506","307767.228899","308533.921866","309300.533887","314638.763965"
"Mixed","Female","cave","21","M_greet.wav","None","739.972881911","440","317750.323635","310067.543913","310817.180829","311583.755154","312350.437308","313117.151023","313867.076652","314633.759976","318517.024491","304717.343596","305483.917629","306233.970959","307000.574506","307767.228899","308533.921866","309300.533887","317755.483377"
"Mixed","Female","cave","21","M_reek.wav","None","736.936707899","440","317750.323635","310067.543913","310817.180829","311583.755154","312350.437308","313117.151023","313867.076652","314633.759976","318517.024491","319283.666611","305483.917629","306233.970959","307000.574506","307767.228899","308533.921866","309300.533887","318522.117899"
"Mixed","Female","cave","21","M_depth.wav","None","733.640165163","440","317750.323635","310067.543913","310817.180829","311583.755154","312350.437308","313117.151023","313867.076652","314633.759976","318517.024491","319283.666611","320050.265483","306233.970959","307000.574506","307767.228899","308533.921866","309300.533887","319289.023895"
"Mixed","Female","cave","21","F_cave.wav","None","731.311165464","440","317750.323635","310067.543913","310817.180829","311583.755154","312350.437308","313117.151023","313867.076652","314633.759976","318517.024491","319283.666611","320050.265483","320817.345934","307000.574506","307767.228899","308533.921866","309300.533887","320055.047384"
"Mixed","Female","cave","21","F_jaw.wav","space","648.538165496","440","317750.323635","310067.543913","310817.180829","311583.755154","312350.437308","313117.151023","313867.076652","314633.759976","318517.024491","319283.666611","320050.265483","320817.345934","321566.90395","307767.228899","308533.921866","309300.533887","320823.076968"
"Mixed","Female","cave","21","M_dime.wav","None","740.515243698","440","317750.323635","310067.543913","310817.180829","311583.755154","312350.437308","313117.151023","313867.076652","314633.759976","318517.024491","319283.666611","320050.265483","320817.345934","321566.90395","322333.559804","308533.921866","309300.533887","321571.980117"
"Mixed","Female","cave","21","F_cave.wav","None","737.792330373","440","317750.323635","310067.543913","310817.180829","311583.755154","312350.437308","313117.151023","313867.076652","314633.759976","318517.024491","319283.666611","320050.265483","320817.345934","321566.90395","322333.559804","323100.182638","309300.533887","322338.636556"
"Mixed","Female","cave","21","F_jolt.wav","space","550.42532736","440","317750.323635","310067.543913","310817.180829","311583.755154","312350.437308","313117.151023","313867.076652","314633.759976","318517.024491","319283.666611","320050.265483","320817.345934","321566.90395","322333.559804","323100.182638","323866.894599","323105.054543"
"Mixed","Female","cave","21","M_lash.wav","None","730.734321624","440","317750.323635","324633.735429","310817.180829","311583.755154","312350.437308","313117.151023","313867.076652","314633.759976","318517.024491","319283.666611","320050.265483","320817.345934","321566.90395","322333.559804","323100.182638","323866.894599","323871.775855"
"Mixed","Female","cave","21","F_cave.wav","None","726.782327656","440","317750.323635","324633.735429","325383.465563","311583.755154","312350.437308","313117.151023","313867.076652","314633.759976","318517.024491","319283.666611","320050.265483","320817.345934","321566.90395","322333.559804","323100.182638","323866.894599","324639.470847"
"Mixed","Female","cave","21","F_lash.wav","space","722.594219288","440","317750.323635","324633.735429","325383.465563","326150.056545","312350.437308","313117.151023","313867.076652","314633.759976","318517.024491","319283.666611","320050.265483","320817.345934","321566.90395","322333.559804","323100.182638","323866.894599","325388.66797"
"Mixed","Female","cave","21","F_cave.wav","None","737.399585631","440","317750.323635","324633.735429","325383.465563","326150.056545","326916.818183","313117.151023","313867.076652","314633.759976","318517.024491","319283.666611","320050.265483","320817.345934","321566.90395","322333.559804","323100.182638","323866.894599","326155.091509"
"Mixed","Female","cave","21","M_park.wav","space","709.499221232","440","317750.323635","324633.735429","325383.465563","326150.056545","326916.818183","327683.383741","313867.076652","314633.759976","318517.024491","319283.666611","320050.265483","320817.345934","321566.90395","322333.559804","323100.182638","323866.894599","326921.725447"
"Mixed","Female","cave","21","M_dime.wav","None","729.819962771","440","317750.323635","324633.735429","325383.465563","326150.056545","326916.818183","327683.383741","328433.384472","314633.759976","318517.024491","319283.666611","320050.265483","320817.345934","321566.90395","322333.559804","323100.182638","323866.894599","327688.463415"
"Mixed","Female","cave","21","F_cad.wav","None","743.682332623","440","317750.323635","324633.735429","325383.465563","326150.056545","326916.818183","327683.383741","328433.384472","329200.038865","318517.024491","319283.666611","320050.265483","320817.345934","321566.90395","322333.559804","323100.182638","323866.894599","328438.48577"
"Mixed","Female","tile","33","M_gnash.wav","None","740.827919943","440","332316.582361","324633.735429","325383.465563","326150.056545","326916.818183","327683.383741","328433.384472","329200.038865","318517.024491","319283.666611","320050.265483","320817.345934","321566.90395","322333.559804","323100.182638","323866.894599","329205.233674"
"Mixed","Female","tile","33","F_tile.wav","None","741.111666331","440","332316.582361","324633.735429","325383.465563","326150.056545","326916.818183","327683.383741","328433.384472","329200.038865","333083.3928","319283.666611","320050.265483","320817.345934","321566.90395","322333.559804","323100.182638","323866.894599","332321.610896"
"Mixed","Female","tile","33","M_knife.wav","None","738.271280248","440","332316.582361","324633.735429","325383.465563","326150.056545","326916.818183","327683.383741","328433.384472","329200.038865","333083.3928","333849.959235","320050.265483","320817.345934","321566.90395","322333.559804","323100.182638","323866.894599","333088.366106"
"Mixed","Female","tile","33","M_bluff.wav","space","247.654489826","440","332316.582361","324633.735429","325383.465563","326150.056545","326916.818183","327683.383741","328433.384472","329200.038865","333083.3928","333849.959235","334616.574471","320817.345934","321566.90395","322333.559804","323100.182638","323866.894599","333855.206352"
"Mixed","Female","tile","33","M_depth.wav","None","731.302983282","440","332316.582361","324633.735429","325383.465563","326150.056545","326916.818183","327683.383741","328433.384472","329200.038865","333083.3928","333849.959235","334616.574471","335383.69145","321566.90395","322333.559804","323100.182638","323866.894599","334621.706453"
"Mixed","Female","tile","33","F_tile.wav","None","727.784352746","440","332316.582361","324633.735429","325383.465563","326150.056545","326916.818183","327683.383741","328433.384472","329200.038865","333083.3928","333849.959235","334616.574471","335383.69145","336133.254726","322333.559804","323100.182638","323866.894599","335389.15744"
"Mixed","Female","tile","33","F_knife.wav","space","652.533408142","440","332316.582361","324633.735429","325383.465563","326150.056545","326916.818183","327683.383741","328433.384472","329200.038865","333083.3928","333849.959235","334616.574471","335383.69145","336133.254726","336899.865578","323100.182638","323866.894599","336138.173094"
"Mixed","Female","tile","33","F_tile.wav","None","738.532233414","440","332316.582361","324633.735429","325383.465563","326150.056545","326916.818183","327683.383741","328433.384472","329200.038865","333083.3928","333849.959235","334616.574471","335383.69145","336133.254726","336899.865578","337666.499809","323866.894599","336905.02649"
"Mixed","Female","tile","33","F_gnash.wav","space","679.090141347","440","332316.582361","324633.735429","325383.465563","326150.056545","326916.818183","327683.383741","328433.384472","329200.038865","333083.3928","333849.959235","334616.574471","335383.69145","336133.254726","336899.865578","337666.499809","338433.160046","337671.529221"
"Mixed","Female","tile","33","M_lash.wav","None","732.308222801","440","332316.582361","339199.836064","325383.465563","326150.056545","326916.818183","327683.383741","328433.384472","329200.038865","333083.3928","333849.959235","334616.574471","335383.69145","336133.254726","336899.865578","337666.499809","338433.160046","338437.920323"
"Mixed","Female","tile","33","M_cad.wav","None","729.240781165","440","332316.582361","339199.836064","339949.821891","326150.056545","326916.818183","327683.383741","328433.384472","329200.038865","333083.3928","333849.959235","334616.574471","335383.69145","336133.254726","336899.865578","337666.499809","338433.160046","339204.881841"
"Mixed","Female","tile","33","F_dime.wav","None","742.939799595","440","332316.582361","339199.836064","339949.821891","340716.425438","326916.818183","327683.383741","328433.384472","329200.038865","333083.3928","333849.959235","334616.574471","335383.69145","336133.254726","336899.865578","337666.499809","338433.160046","339954.974621"
"Mixed","Female","tile","33","M_park.wav","None","740.244647246","440","332316.582361","339199.836064","339949.821891","340716.425438","341483.112561","327683.383741","328433.384472","329200.038865","333083.3928","333849.959235","334616.574471","335383.69145","336133.254726","336899.865578","337666.499809","338433.160046","340721.540763"
"Mixed","Female","tile","33","F_tile.wav","None","737.511506194","440","332316.582361","339199.836064","339949.821891","340716.425438","341483.112561","342249.765785","328433.384472","329200.038865","333083.3928","333849.959235","334616.574471","335383.69145","336133.254726","336899.865578","337666.499809","338433.160046","341488.155122"
"Mixed","Female","tile","33","M_knife.wav","space","551.256111067","440","332316.582361","339199.836064","339949.821891","340716.425438","341483.112561","342249.765785","343016.418133","329200.038865","333083.3928","333849.959235","334616.574471","335383.69145","336133.254726","336899.865578","337666.499809","338433.160046","342255.089756"
"Mixed","Female","tile","33","F_reek.wav","None","730.40732656","440","332316.582361","339199.836064","339949.821891","340716.425438","341483.112561","342249.765785","343016.418133","343783.130386","333083.3928","333849.959235","334616.574471","335383.69145","336133.254726","336899.865578","337666.499809","338433.160046","343021.671678"
"Mixed","Male","tile","29","F_lash.wav","None","727.729999679","440","346866.27363","339199.836064","339949.821891","340716.425438","341483.112561","342249.765785","343016.418133","343783.130386","333083.3928","333849.959235","334616.574471","335383.69145","336133.254726","336899.865578","337666.499809","338433.160046","343788.256231"
"Mixed","Male","tile","29","M_tile.wav","None","740.348093405","440","346866.27363","339199.836064","339949.821891","340716.425438","341483.112561","342249.765785","343016.418133","343783.130386","347632.984422","333849.959235","334616.574471","335383.69145","336133.254726","336899.865578","337666.499809","338433.160046","346871.540033"
"Mixed","Male","tile","29","F_jaw.wav","None","737.602094639","440","346866.27363","339199.836064","339949.821891","340716.425438","341483.112561","342249.765785","343016.418133","343783.130386","347632.984422","348399.526602","334616.574471","335383.69145","336133.254726","336899.865578","337666.499809","338433.160046","347638.197641"
"Mixed","Male","tile","29","M_greet.wav","space","113.611936635","440","346866.27363","339199.836064","339949.821891","340716.425438","341483.112561","342249.765785","343016.418133","343783.130386","347632.984422","348399.526602","349166.295838","335383.69145","336133.254726","336899.865578","337666.499809","338433.160046","348404.438542"
"Mixed","Male","tile","29","F_dime.wav","None","731.036770142","440","346866.27363","339199.836064","339949.821891","340716.425438","341483.112561","342249.765785","343016.418133","343783.130386","347632.984422","348399.526602","349166.295838","349933.184009","336133.254726","336899.865578","337666.499809","338433.160046","349171.417592"
"Mixed","Male","tile","29","M_tile.wav","None","727.729999679","440","346866.27363","339199.836064","339949.821891","340716.425438","341483.112561","342249.765785","343016.418133","343783.130386","347632.984422","348399.526602","349166.295838","349933.184009","350682.886089","336899.865578","337666.499809","338433.160046","349938.768932"
"Mixed","Male","tile","29","M_park.wav","space","525.614028936","440","346866.27363","339199.836064","339949.821891","340716.425438","341483.112561","342249.765785","343016.418133","343783.130386","347632.984422","348399.526602","349166.295838","349933.184009","350682.886089","351449.496357","337666.499809","338433.160046","350688.251263"
"Mixed","Male","tile","29","F_lash.wav","None","738.839649686","440","346866.27363","339199.836064","339949.821891","340716.425438","341483.112561","342249.765785","343016.418133","343783.130386","347632.984422","348399.526602","349166.295838","349933.184009","350682.886089","351449.496357","352216.177051","338433.160046","351454.263355"
"Mixed","Male","tile","29","F_greet.wav","None","736.072903243","440","346866.27363","339199.836064","339949.821891","340716.425438","341483.112561","342249.765785","343016.418133","343783.130386","347632.984422","348399.526602","349166.295838","349933.184009","350682.886089","351449.496357","352216.177051","352982.829399","352221.08636"
"Mixed","Male","tile","29","M_tile.wav","None","733.257063707","440","346866.27363","353749.438206","339949.821891","340716.425438","341483.112561","342249.765785","343016.418133","343783.130386","347632.984422","348399.526602","349166.295838","349933.184009","350682.886089","351449.496357","352216.177051","352982.829399","352987.81001"
"Mixed","Male","tile","29","M_depth.wav","space","523.157913193","440","346866.27363","353749.438206","354499.459976","340716.425438","341483.112561","342249.765785","343016.418133","343783.130386","347632.984422","348399.526602","349166.295838","349933.184009","350682.886089","351449.496357","352216.177051","352982.829399","353754.575739"
"Mixed","Male","tile","29","M_jaw.wav","None","743.023959183","440","346866.27363","353749.438206","354499.459976","355266.13424","341483.112561","342249.765785","343016.418133","343783.130386","347632.984422","348399.526602","349166.295838","349933.184009","350682.886089","351449.496357","352216.177051","352982.829399","354504.639589"
"Mixed","Male","tile","29","F_knife.wav","None","740.680348444","440","346866.27363","353749.438206","354499.459976","355266.13424","356032.714994","342249.765785","343016.418133","343783.130386","347632.984422","348399.526602","349166.295838","349933.184009","350682.886089","351449.496357","352216.177051","352982.829399","355270.989197"
"Mixed","Male","tile","29","M_tile.wav","None","737.689176434","440","346866.27363","353749.438206","354499.459976","355266.13424","356032.714994","356799.365881","343016.418133","343783.130386","347632.984422","348399.526602","349166.295838","349933.184009","350682.886089","351449.496357","352216.177051","352982.829399","356037.996008"
"Mixed","Male","tile","29","F_park.wav","space","593.090439412","440","346866.27363","353749.438206","354499.459976","355266.13424","356032.714994","356799.365881","357566.021151","343783.130386","347632.984422","348399.526602","349166.295838","349933.184009","350682.886089","351449.496357","352216.177051","352982.829399","356804.425392"
"Mixed","Male","tile","29","F_priest.wav","None","731.209180408","440","346866.27363","353749.438206","354499.459976","355266.13424","356032.714994","356799.365881","357566.021151","358332.795647","347632.984422","348399.526602","349166.295838","349933.184009","350682.886089","351449.496357","352216.177051","352982.829399","357570.884289"
"Mixed","Male","cave","13","M_gnash.wav","None","728.350092196","440","361432.58028","353749.438206","354499.459976","355266.13424","356032.714994","356799.365881","357566.021151","358332.795647","347632.984422","348399.526602","349166.295838","349933.184009","350682.886089","351449.496357","352216.177051","352982.829399","358337.820968"
"Mixed","Male","cave","13","M_cave.wav","None","740.29432478","440","361432.58028","353749.438206","354499.459976","355266.13424","356032.714994","356799.365881","357566.021151","358332.795647","362199.194055","348399.526602","349166.295838","349933.184009","350682.886089","351449.496357","352216.177051","352982.829399","361437.679241"
"Mixed","Male","cave","13","F_knife.wav","space","544.65338231","440","361432.58028","353749.438206","354499.459976","355266.13424","356032.714994","356799.365881","357566.021151","358332.795647","362199.194055","362965.852832","349166.295838","349933.184009","350682.886089","351449.496357","352216.177051","352982.829399","362204.583191"
"Mixed","Male","cave","13","F_park.wav","None","733.133746534","440","361432.58028","353749.438206","354499.459976","355266.13424","356032.714994","356799.365881","357566.021151","358332.795647","362199.194055","362965.852832","363732.581157","349933.184009","350682.886089","351449.496357","352216.177051","352982.829399","362970.907083"
"Mixed","Male","cave","13","M_jolt.wav","None","730.228195215","440","361432.58028","353749.438206","354499.459976","355266.13424","356032.714994","356799.365881","357566.021151","358332.795647","362199.194055","362965.852832","363732.581157","364499.57891","350682.886089","351449.496357","352216.177051","352982.829399","363737.708171"
"Mixed","Male","cave","13","F_park.wav","None","726.501211255","440","361432.58028","353749.438206","354499.459976","355266.13424","356032.714994","356799.365881","357566.021151","358332.795647","362199.194055","362965.852832","363732.581157","364499.57891","365249.152414","351449.496357","352216.177051","352982.829399","364505.220232"
"Mixed","Male","cave","13","F_depth.wav","None","741.167188281","440","361432.58028","353749.438206","354499.459976","355266.13424","356032.714994","356799.365881","357566.021151","358332.795647","362199.194055","362965.852832","363732.581157","364499.57891","365249.152414","366015.82697","352216.177051","352982.829399","365254.338164"
"Mixed","Male","cave","13","M_cave.wav","None","738.339367693","440","361432.58028","353749.438206","354499.459976","355266.13424","356032.714994","356799.365881","357566.021151","358332.795647","362199.194055","362965.852832","363732.581157","364499.57891","365249.152414","366015.82697","366782.518476","352982.829399","366020.937912"
"Mixed","Male","cave","13","F_jaw.wav","space","593.177813429","440","361432.58028","353749.438206","354499.459976","355266.13424","356032.714994","356799.365881","357566.021151","358332.795647","362199.194055","362965.852832","363732.581157","364499.57891","365249.152414","366015.82697","366782.518476","367549.05189","366787.784294"
"Mixed","Male","cave","13","F_priest.wav","None","731.30210662","440","361432.58028","368316.085293","354499.459976","355266.13424","356032.714994","356799.365881","357566.021151","358332.795647","362199.194055","362965.852832","363732.581157","364499.57891","365249.152414","366015.82697","366782.518476","367549.05189","367554.254589"
"Mixed","Male","cave","13","M_cave.wav","None","727.725324146","440","361432.58028","368316.085293","369065.709059","355266.13424","356032.714994","356799.365881","357566.021151","358332.795647","362199.194055","362965.852832","363732.581157","364499.57891","365249.152414","366015.82697","366782.518476","367549.05189","368321.911299"
"Mixed","Male","cave","13","M_park.wav","space","661.911649966","440","361432.58028","368316.085293","369065.709059","369832.399688","356032.714994","356799.365881","357566.021151","358332.795647","362199.194055","362965.852832","363732.581157","364499.57891","365249.152414","366015.82697","366782.518476","367549.05189","369070.914973"
"Mixed","Male","cave","13","M_cave.wav","None","738.948063599","440","361432.58028","368316.085293","369065.709059","369832.399688","370599.030704","356799.365881","357566.021151","358332.795647","362199.194055","362965.852832","363732.581157","364499.57891","365249.152414","366015.82697","366782.518476","367549.05189","369837.428808"
"Mixed","Male","cave","13","F_depth.wav","space","624.245851195","440","361432.58028","368316.085293","369065.709059","369832.399688","370599.030704","371365.725131","357566.021151","358332.795647","362199.194055","362965.852832","363732.581157","364499.57891","365249.152414","366015.82697","366782.518476","367549.05189","370604.493479"
"Mixed","Male","cave","13","M_lash.wav","None","731.71618348","440","361432.58028","368316.085293","369065.709059","369832.399688","370599.030704","371365.725131","372132.317866","358332.795647","362199.194055","362965.852832","363732.581157","364499.57891","365249.152414","366015.82697","366782.518476","367549.05189","371370.930168"
"Mixed","Male","cave","13","F_lash.wav","None","729.496766577","440","361432.58028","368316.085293","369065.709059","369832.399688","370599.030704","371365.725131","372132.317866","372882.358923","362199.194055","362965.852832","363732.581157","364499.57891","365249.152414","366015.82697","366782.518476","367549.05189","372137.478193"
"Mixed","Female","tile","34","F_park.wav","None","743.581808671","440","375998.955603","368316.085293","369065.709059","369832.399688","370599.030704","371365.725131","372132.317866","372882.358923","362199.194055","362965.852832","363732.581157","364499.57891","365249.152414","366015.82697","366782.518476","367549.05189","372887.404699"
"Mixed","Female","tile","34","M_park.wav","None","740.243186142","440","375998.955603","368316.085293","369065.709059","369832.399688","370599.030704","371365.725131","372132.317866","372882.358923","376765.542201","362965.852832","363732.581157","364499.57891","365249.152414","366015.82697","366782.518476","367549.05189","376004.072097"
"Mixed","Female","tile","34","F_tile.wav","None","737.781225983","440","375998.955603","368316.085293","369065.709059","369832.399688","370599.030704","371365.725131","372132.317866","372882.358923","376765.542201","377532.199224","363732.581157","364499.57891","365249.152414","366015.82697","366782.518476","367549.05189","376770.592069"
"Mixed","Female","tile","34","M_priest.wav","space","603.005198608","440","375998.955603","368316.085293","369065.709059","369832.399688","370599.030704","371365.725131","372132.317866","372882.358923","376765.542201","377532.199224","378298.839299","364499.57891","365249.152414","366015.82697","366782.518476","367549.05189","377537.356045"
"Mixed","Female","tile","34","F_bluff.wav","None","731.408182767","440","375998.955603","368316.085293","369065.709059","369832.399688","370599.030704","371365.725131","372132.317866","372882.358923","376765.542201","377532.199224","378298.839299","379065.763997","365249.152414","366015.82697","366782.518476","367549.05189","378303.619154"
"Mixed","Female","tile","34","M_dime.wav","None","728.300414661","440","375998.955603","368316.085293","369065.709059","369832.399688","370599.030704","371365.725131","372132.317866","372882.358923","376765.542201","377532.199224","378298.839299","379065.763997","379815.523353","366015.82697","366782.518476","367549.05189","379070.794578"
"Mixed","Female","tile","34","F_tile.wav","None","742.910869737","440","375998.955603","368316.085293","369065.709059","369832.399688","370599.030704","371365.725131","372132.317866","372882.358923","376765.542201","377532.199224","378298.839299","379065.763997","379815.523353","380582.09008","366782.518476","367549.05189","379820.401979"
