"Condition","Talker","Target","Trial","current_stimulus","response_response","response_time_response","subject_nr","time_Audio1","time_Audio10","time_Audio11","time_Audio12","time_Audio13","time_Audio14","time_Audio15","time_Audio16","time_Audio2","time_Audio3","time_Audio4","time_Audio5","time_Audio6","time_Audio7","time_Audio8","time_Audio9","time_response"
"Blocked","Female","tile","14","F_gnash.wav","NA","NA","406","113480.957196","NA","NA","NA","NA","NA","NA","NA","NA","NA","NA","NA","NA","NA","NA","NA","NA"
"Blocked","Female","tile","14","F_tile.wav","None","740.058385543","406","113480.957196","NA","NA","NA","NA","NA","NA","NA","114247.551197","NA","NA","NA","NA","NA","NA","NA","113488.419324"
"Blocked","Female","tile","14","F_priest.wav","None","740.53441182","406","113480.957196","NA","NA","NA","NA","NA","NA","NA","114247.551197","115014.214747","NA","NA","NA","NA","NA","NA","114252.819922"
"Blocked","Female","tile","14","F_tile.wav","space","89.6863895641","406","113480.957196","NA","NA","NA","NA","NA","NA","NA","114247.551197","115014.214747","115780.895537","NA","NA","NA","NA","NA","115019.420645"
"Blocked","Female","tile","14","F_depth.wav","space","562.724132691","406","113480.957196","NA","NA","NA","NA","NA","NA","NA","114247.551197","115014.214747","115780.895537","116547.486909","NA","NA","NA","NA","115786.190855"
"Blocked","Female","tile","14","F_depth.wav","None","734.720403965","406","113480.957196","NA","NA","NA","NA","NA","NA","NA","114247.551197","115014.214747","115780.895537","116547.486909","117314.122405","NA","NA","NA","116552.750666"
"Blocked","Female","tile","14","F_depth.wav","None","732.819805498","406","113480.957196","NA","NA","NA","NA","NA","NA","NA","114247.551197","115014.214747","115780.895537","116547.486909","117314.122405","118080.797644","NA","NA","117319.383241"
"Blocked","Female","tile","14","F_tile.wav","None","731.074375818","406","113480.957196","NA","NA","NA","NA","NA","NA","NA","114247.551197","115014.214747","115780.895537","116547.486909","117314.122405","118080.797644","118847.503273","NA","118085.889284"
"Blocked","Female","tile","14","F_jaw.wav","space","616.196874415","406","113480.957196","NA","NA","NA","NA","NA","NA","NA","114247.551197","115014.214747","115780.895537","116547.486909","117314.122405","118080.797644","118847.503273","119614.421054","118852.601634"
"Blocked","Female","tile","14","F_greet.wav","None","726.438014307","406","113480.957196","120364.03094","NA","NA","NA","NA","NA","NA","114247.551197","115014.214747","115780.895537","116547.486909","117314.122405","118080.797644","118847.503273","119614.421054","119619.83472"
"Blocked","Female","tile","14","F_cling.wav","None","741.757644473","406","113480.957196","120364.03094","121130.693029","NA","NA","NA","NA","NA","114247.551197","115014.214747","115780.895537","116547.486909","117314.122405","118080.797644","118847.503273","119614.421054","120369.260508"
"Blocked","Female","tile","14","F_knife.wav","None","739.973641762","406","113480.957196","120364.03094","121130.693029","121897.387262","NA","NA","NA","NA","114247.551197","115014.214747","115780.895537","116547.486909","117314.122405","118080.797644","118847.503273","119614.421054","121135.89279"
"Blocked","Female","tile","14","F_greet.wav","None","737.938914344","406","113480.957196","120364.03094","121130.693029","121897.387262","122664.014868","NA","NA","NA","114247.551197","115014.214747","115780.895537","116547.486909","117314.122405","118080.797644","118847.503273","119614.421054","121902.770829"
"Blocked","Female","tile","14","F_gnash.wav","None","736.39540864","406","113480.957196","120364.03094","121130.693029","121897.387262","122664.014868","123430.61822","NA","NA","114247.551197","115014.214747","115780.895537","116547.486909","117314.122405","118080.797644","118847.503273","119614.421054","122669.027317"
"Blocked","Female","tile","14","F_tile.wav","None","734.486628015","406","113480.957196","120364.03094","121130.693029","121897.387262","122664.014868","123430.61822","124197.25284","NA","114247.551197","115014.214747","115780.895537","116547.486909","117314.122405","118080.797644","118847.503273","119614.421054","123435.686483"
"Blocked","Female","tile","14","F_romp.wav","space","562.091768748","406","113480.957196","120364.03094","121130.693029","121897.387262","122664.014868","123430.61822","124197.25284","124964.055195","114247.551197","115014.214747","115780.895537","116547.486909","117314.122405","118080.797644","118847.503273","119614.421054","124202.403801"
"Blocked","Female","done","19","F_knife.wav","None","729.885917336","406","129063.819373","120364.03094","121130.693029","121897.387262","122664.014868","123430.61822","124197.25284","124964.055195","114247.551197","115014.214747","115780.895537","116547.486909","117314.122405","118080.797644","118847.503273","119614.421054","124969.565001"
"Blocked","Female","done","19","F_done.wav","None","742.515370768","406","129063.819373","120364.03094","121130.693029","121897.387262","122664.014868","123430.61822","124197.25284","124964.055195","129830.502501","115014.214747","115780.895537","116547.486909","117314.122405","118080.797644","118847.503273","119614.421054","129068.887343"
"Blocked","Female","done","19","F_park.wav","space","464.575930429","406","129063.819373","120364.03094","121130.693029","121897.387262","122664.014868","123430.61822","124197.25284","124964.055195","129830.502501","130597.09621","115780.895537","116547.486909","117314.122405","118080.797644","118847.503273","119614.421054","129835.625701"
"Blocked","Female","done","19","F_priest.wav","None","738.724693753","406","129063.819373","120364.03094","121130.693029","121897.387262","122664.014868","123430.61822","124197.25284","124964.055195","129830.502501","130597.09621","131363.794242","116547.486909","117314.122405","118080.797644","118847.503273","119614.421054","130602.206261"
"Blocked","Female","done","19","F_done.wav","None","736.778216757","406","129063.819373","120364.03094","121130.693029","121897.387262","122664.014868","123430.61822","124197.25284","124964.055195","129830.502501","130597.09621","131363.794242","132130.4049","117314.122405","118080.797644","118847.503273","119614.421054","131368.900785"
"Blocked","Female","done","19","F_reek.wav","space","508.436389564","406","129063.819373","120364.03094","121130.693029","121897.387262","122664.014868","123430.61822","124197.25284","124964.055195","129830.502501","130597.09621","131363.794242","132130.4049","132897.071372","118080.797644","118847.503273","119614.421054","132135.583622"
"Blocked","Female","done","19","F_done.wav","None","732.696196465","406","129063.819373","120364.03094","121130.693029","121897.387262","122664.014868","123430.61822","124197.25284","124964.055195","129830.502501","130597.09621","131363.794242","132130.4049","132897.071372","133663.696933","118847.503273","119614.421054","132902.131744"
"Blocked","Female","done","19","F_depth.wav","space","631.205582569","406","129063.819373","120364.03094","121130.693029","121897.387262","122664.014868","123430.61822","124197.25284","124964.055195","129830.502501","130597.09621","131363.794242","132130.4049","132897.071372","133663.696933","134430.583739","119614.421054","133668.736558"
"Blocked","Female","done","19","F_jaw.wav","None","727.608939593","406","129063.819373","120364.03094","121130.693029","121897.387262","122664.014868","123430.61822","124197.25284","124964.055195","129830.502501","130597.09621","131363.794242","132130.4049","132897.071372","133663.696933","134430.583739","135180.308467","134436.301022"
"Blocked","Female","done","19","F_priest.wav","None","743.059776511","406","129063.819373","135946.961205","121130.693029","121897.387262","122664.014868","123430.61822","124197.25284","124964.055195","129830.502501","130597.09621","131363.794242","132130.4049","132897.071372","133663.696933","134430.583739","135180.308467","135185.576316"
"Blocked","Female","done","19","F_knife.wav","None","741.185477837","406","129063.819373","135946.961205","136713.596117","121897.387262","122664.014868","123430.61822","124197.25284","124964.055195","129830.502501","130597.09621","131363.794242","132130.4049","132897.071372","133663.696933","134430.583739","135180.308467","135952.128822"
"Blocked","Female","done","19","F_jaw.wav","None","739.607197961","406","129063.819373","135946.961205","136713.596117","137480.236289","122664.014868","123430.61822","124197.25284","124964.055195","129830.502501","130597.09621","131363.794242","132130.4049","132897.071372","133663.696933","134430.583739","135180.308467","136718.576714"
"Blocked","Female","done","19","F_done.wav","None","737.5014611","406","129063.819373","135946.961205","136713.596117","137480.236289","138246.939873","123430.61822","124197.25284","124964.055195","129830.502501","130597.09621","131363.794242","132130.4049","132897.071372","133663.696933","134430.583739","135180.308467","137485.536282"
"Blocked","Female","done","19","F_dime.wav","space","479.740684029","406","129063.819373","135946.961205","136713.596117","137480.236289","138246.939873","139013.55433","124197.25284","124964.055195","129830.502501","130597.09621","131363.794242","132130.4049","132897.071372","133663.696933","134430.583739","135180.308467","138251.912872"
"Blocked","Female","done","19","F_priest.wav","None","733.817152141","406","129063.819373","135946.961205","136713.596117","137480.236289","138246.939873","139013.55433","139780.215834","124964.055195","129830.502501","130597.09621","131363.794242","132130.4049","132897.071372","133663.696933","134430.583739","135180.308467","139018.641586"
"Blocked","Female","done","19","F_jaw.wav","None","731.927073593","406","129063.819373","135946.961205","136713.596117","137480.236289","138246.939873","139013.55433","139780.215834","140546.829121","129830.502501","130597.09621","131363.794242","132130.4049","132897.071372","133663.696933","134430.583739","135180.308467","139785.299876"
"Blocked","Female","cave","9","F_greet.wav","None","730.067970358","406","143630.109173","135946.961205","136713.596117","137480.236289","138246.939873","139013.55433","139780.215834","140546.829121","129830.502501","130597.09621","131363.794242","132130.4049","132897.071372","133663.696933","134430.583739","135180.308467","140552.098139"
"Blocked","Female","cave","9","F_depth.wav","None","742.407541612","406","143630.109173","135946.961205","136713.596117","137480.236289","138246.939873","139013.55433","139780.215834","140546.829121","144396.716617","130597.09621","131363.794242","132130.4049","132897.071372","133663.696933","134430.583739","135180.308467","143635.103212"
"Blocked","Female","cave","9","F_cave.wav","None","740.511034225","406","143630.109173","135946.961205","136713.596117","137480.236289","138246.939873","139013.55433","139780.215834","140546.829121","144396.716617","145163.414941","131363.794242","132130.4049","132897.071372","133663.696933","134430.583739","135180.308467","144401.87576"
"Blocked","Female","cave","9","F_romp.wav","space","674.44361324","406","143630.109173","135946.961205","136713.596117","137480.236289","138246.939873","139013.55433","139780.215834","140546.829121","144396.716617","145163.414941","145930.124661","132130.4049","132897.071372","133663.696933","134430.583739","135180.308467","145168.809905"
"Blocked","Female","cave","9","F_cave.wav","None","736.838706283","406","143630.109173","135946.961205","136713.596117","137480.236289","138246.939873","139013.55433","139780.215834","140546.829121","144396.716617","145163.414941","145930.124661","146696.630996","132897.071372","133663.696933","134430.583739","135180.308467","145935.064055"
"Blocked","Female","cave","9","F_jaw.wav","space","645.44984337","406","143630.109173","135946.961205","136713.596117","137480.236289","138246.939873","139013.55433","139780.215834","140546.829121","144396.716617","145163.414941","145930.124661","146696.630996","147463.322307","133663.696933","134430.583739","135180.308467","146701.678804"
"Blocked","Female","cave","9","F_cave.wav","None","733.439311764","406","143630.109173","135946.961205","136713.596117","137480.236289","138246.939873","139013.55433","139780.215834","140546.829121","144396.716617","145163.414941","145930.124661","146696.630996","147463.322307","148229.946699","134430.583739","135180.308467","147468.275143"
"Blocked","Female","cave","9","F_cad.wav","space","655.980573219","406","143630.109173","135946.961205","136713.596117","137480.236289","138246.939873","139013.55433","139780.215834","140546.829121","144396.716617","145163.414941","145930.124661","146696.630996","147463.322307","148229.946699","148996.594761","135180.308467","148235.06873"
"Blocked","Female","cave","9","F_greet.wav","None","729.104813448","406","143630.109173","135946.961205","136713.596117","137480.236289","138246.939873","139013.55433","139780.215834","140546.829121","144396.716617","145163.414941","145930.124661","146696.630996","147463.322307","148229.946699","148996.594761","149763.588519","149001.943555"
"Blocked","Female","cave","9","F_knife.wav","None","726.6519193","406","143630.109173","150513.259772","136713.596117","137480.236289","138246.939873","139013.55433","139780.215834","140546.829121","144396.716617","145163.414941","145930.124661","146696.630996","147463.322307","148229.946699","148996.594761","149763.588519","149769.104171"
"Blocked","Female","cave","9","F_romp.wav","None","742.356403123","406","143630.109173","150513.259772","151279.906665","137480.236289","138246.939873","139013.55433","139780.215834","140546.829121","144396.716617","145163.414941","145930.124661","146696.630996","147463.322307","148229.946699","148996.594761","149763.588519","150518.308163"
"Blocked","Female","cave","9","F_park.wav","None","740.174981298","406","143630.109173","150513.259772","151279.906665","152046.531057","138246.939873","139013.55433","139780.215834","140546.829121","144396.716617","145163.414941","145930.124661","146696.630996","147463.322307","148229.946699","148996.594761","149763.588519","151285.109056"
"Blocked","Female","cave","9","F_reek.wav","None","738.567479428","406","143630.109173","150513.259772","151279.906665","152046.531057","152813.189931","139013.55433","139780.215834","140546.829121","144396.716617","145163.414941","145930.124661","146696.630996","147463.322307","148229.946699","148996.594761","149763.588519","152051.61247"
"Blocked","Female","cave","9","F_lash.wav","None","736.408266317","406","143630.109173","150513.259772","151279.906665","152046.531057","152813.189931","153579.799128","139780.215834","140546.829121","144396.716617","145163.414941","145930.124661","146696.630996","147463.322307","148229.946699","148996.594761","149763.588519","152818.467423"
"Blocked","Female","cave","9","F_cave.wav","None","735.101750982","406","143630.109173","150513.259772","151279.906665","152046.531057","152813.189931","153579.799128","154346.451866","140546.829121","144396.716617","145163.414941","145930.124661","146696.630996","147463.322307","148229.946699","148996.594761","149763.588519","153584.831155"
"Blocked","Female","cave","9","F_dime.wav","space","558.788806808","406","143630.109173","150513.259772","151279.906665","152046.531057","152813.189931","153579.799128","154346.451866","155113.09233","144396.716617","145163.414941","145930.124661","146696.630996","147463.322307","148229.946699","148996.594761","149763.588519","154347.914426"
"Blocked","Female","ball","3","F_depth.wav","None","731.001320834","406","158213.038561","150513.259772","151279.906665","152046.531057","152813.189931","153579.799128","154346.451866","155113.09233","144396.716617","145163.414941","145930.124661","146696.630996","147463.322307","148229.946699","148996.594761","149763.588519","155118.408395"
"Blocked","Female","ball","3","F_knife.wav","None","742.605082289","406","158213.038561","150513.259772","151279.906665","152046.531057","152813.189931","153579.799128","154346.451866","155113.09233","158979.67698","145163.414941","145930.124661","146696.630996","147463.322307","148229.946699","148996.594761","149763.588519","158218.039613"
"Blocked","Female","ball","3","F_romp.wav","None","740.715880401","406","158213.038561","150513.259772","151279.906665","152046.531057","152813.189931","153579.799128","154346.451866","155113.09233","158979.67698","159746.336146","145930.124661","146696.630996","147463.322307","148229.946699","148996.594761","149763.588519","158984.780893"
"Blocked","Female","ball","3","F_romp.wav","None","738.057263418","406","158213.038561","150513.259772","151279.906665","152046.531057","152813.189931","153579.799128","154346.451866","155113.09233","158979.67698","159746.336146","160512.964922","146696.630996","147463.322307","148229.946699","148996.594761","149763.588519","159752.169149"
"Blocked","Female","ball","3","F_ball.wav","None","737.274113989","406","158213.038561","150513.259772","151279.906665","152046.531057","152813.189931","153579.799128","154346.451866","155113.09233","158979.67698","159746.336146","160512.964922","161279.585223","147463.322307","148229.946699","148996.594761","149763.588519","160517.928862"
"Blocked","Female","ball","3","F_jaw.wav","space","501.665653638","406","158213.038561","150513.259772","151279.906665","152046.531057","152813.189931","153579.799128","154346.451866","155113.09233","158979.67698","159746.336146","160512.964922","161279.585223","162046.257247","148229.946699","148996.594761","149763.588519","161284.629524"
"Blocked","Female","ball","3","F_lash.wav","None","733.406875351","406","158213.038561","150513.259772","151279.906665","152046.531057","152813.189931","153579.799128","154346.451866","155113.09233","158979.67698","159746.336146","160512.964922","161279.585223","162046.257247","162812.947097","148996.594761","149763.588519","162051.329893"
"Blocked","Female","ball","3","F_cad.wav","None","731.495172527","406","158213.038561","150513.259772","151279.906665","152046.531057","152813.189931","153579.799128","154346.451866","155113.09233","158979.67698","159746.336146","160512.964922","161279.585223","162046.257247","162812.947097","163579.536715","149763.588519","162818.433818"
"Blocked","Female","ball","3","F_ball.wav","None","730.249731157","406","158213.038561","150513.259772","151279.906665","152046.531057","152813.189931","153579.799128","154346.451866","155113.09233","158979.67698","159746.336146","160512.964922","161279.585223","162046.257247","162812.947097","163579.536715","164346.235038","163584.736476"
"Blocked","Female","ball","3","F_park.wav","space","434.838168599","406","158213.038561","165096.151756","151279.906665","152046.531057","152813.189931","153579.799128","154346.451866","155113.09233","158979.67698","159746.336146","160512.964922","161279.585223","162046.257247","162812.947097","163579.536715","164346.235038","164351.296872"
"Blocked","Female","ball","3","F_ball.wav","None","743.481742099","406","158213.038561","165096.151756","165862.787837","152046.531057","152813.189931","153579.799128","154346.451866","155113.09233","158979.67698","159746.336146","160512.964922","161279.585223","162046.257247","162812.947097","163579.536715","164346.235038","165101.210667"
"Blocked","Female","ball","3","F_dime.wav","space","606.215225827","406","158213.038561","165096.151756","165862.787837","166629.503694","152813.189931","153579.799128","154346.451866","155113.09233","158979.67698","159746.336146","160512.964922","161279.585223","162046.257247","162812.947097","163579.536715","164346.235038","165867.798824"
"Blocked","Female","ball","3","F_greet.wav","None","739.318484664","406","158213.038561","165096.151756","165862.787837","166629.503694","167396.087759","153579.799128","154346.451866","155113.09233","158979.67698","159746.336146","160512.964922","161279.585223","162046.257247","162812.947097","163579.536715","164346.235038","166635.008533"
"Blocked","Female","ball","3","F_priest.wav","None","738.042944641","406","158213.038561","165096.151756","165862.787837","166629.503694","167396.087759","168162.832839","154346.451866","155113.09233","158979.67698","159746.336146","160512.964922","161279.585223","162046.257247","162812.947097","163579.536715","164346.235038","167401.113358"
"Blocked","Female","ball","3","F_ball.wav","None","736.609021414","406","158213.038561","165096.151756","165862.787837","166629.503694","167396.087759","168162.832839","168929.378039","155113.09233","158979.67698","159746.336146","160512.964922","161279.585223","162046.257247","162812.947097","163579.536715","164346.235038","168167.640149"
"Blocked","Female","ball","3","F_priest.wav","space","435.467902562","406","158213.038561","165096.151756","165862.787837","166629.503694","167396.087759","168162.832839","168929.378039","169696.067012","158979.67698","159746.336146","160512.964922","161279.585223","162046.257247","162812.947097","163579.536715","164346.235038","168934.348408"
"Blocked","Female","done","20","F_cad.wav","None","732.708761922","406","172779.287451","165096.151756","165862.787837","166629.503694","167396.087759","168162.832839","168929.378039","169696.067012","158979.67698","159746.336146","160512.964922","161279.585223","162046.257247","162812.947097","163579.536715","164346.235038","169701.051115"
"Blocked","Female","done","20","F_done.wav","None","742.482057696","406","172779.287451","165096.151756","165862.787837","166629.503694","167396.087759","168162.832839","168929.378039","169696.067012","173545.960936","159746.336146","160512.964922","161279.585223","162046.257247","162812.947097","163579.536715","164346.235038","172784.421171"
"Blocked","Female","done","20","F_jaw.wav","space","554.536422293","406","172779.287451","165096.151756","165862.787837","166629.503694","167396.087759","168162.832839","168929.378039","169696.067012","173545.960936","174312.594679","160512.964922","161279.585223","162046.257247","162812.947097","163579.536715","164346.235038","173551.019848"
"Blocked","Female","done","20","F_done.wav","None","738.828139611","406","172779.287451","165096.151756","165862.787837","166629.503694","167396.087759","168162.832839","168929.378039","169696.067012","173545.960936","174312.594679","175079.208844","161279.585223","162046.257247","162812.947097","163579.536715","164346.235038","174317.537579"
"Blocked","Female","done","20","F_cling.wav","space","637.122159622","406","172779.287451","165096.151756","165862.787837","166629.503694","167396.087759","168162.832839","168929.378039","169696.067012","173545.960936","174312.594679","175079.208844","175845.875023","162046.257247","162812.947097","163579.536715","164346.235038","175084.357175"
"Blocked","Female","done","20","F_priest.wav","None","734.878787171","406","172779.287451","165096.151756","165862.787837","166629.503694","167396.087759","168162.832839","168929.378039","169696.067012","173545.960936","174312.594679","175079.208844","175845.875023","176612.543249","162812.947097","163579.536715","164346.235038","175851.144918"
"Blocked","Female","done","20","F_park.wav","None","733.453046101","406","172779.287451","165096.151756","165862.787837","166629.503694","167396.087759","168162.832839","168929.378039","169696.067012","173545.960936","174312.594679","175079.208844","175845.875023","176612.543249","177379.128191","163579.536715","164346.235038","176617.594562"
"Blocked","Female","done","20","F_lash.wav","None","732.21374135","406","172779.287451","165096.151756","165862.787837","166629.503694","167396.087759","168162.832839","168929.378039","169696.067012","173545.960936","174312.594679","175079.208844","175845.875023","176612.543249","177379.128191","178145.791741","164346.235038","177384.159634"
"Blocked","Female","done","20","F_done.wav","None","730.537860015","406","172779.287451","165096.151756","165862.787837","166629.503694","167396.087759","168162.832839","168929.378039","169696.067012","173545.960936","174312.594679","175079.208844","175845.875023","176612.543249","177379.128191","178145.791741","178912.476038","178150.946208"
"Blocked","Female","done","20","F_cad.wav","space","435.346046849","406","172779.287451","179662.416425","165862.787837","166629.503694","167396.087759","168162.832839","168929.378039","169696.067012","173545.960936","174312.594679","175079.208844","175845.875023","176612.543249","177379.128191","178145.791741","178912.476038","178917.878892"
"Blocked","Female","done","20","F_cling.wav","None","743.474144379","406","172779.287451","179662.416425","180429.075884","166629.503694","167396.087759","168162.832839","168929.378039","169696.067012","173545.960936","174312.594679","175079.208844","175845.875023","176612.543249","177379.128191","178145.791741","178912.476038","179667.536411"
"Blocked","Female","done","20","F_cling.wav","None","741.793003086","406","172779.287451","179662.416425","180429.075884","181195.767779","167396.087759","168162.832839","168929.378039","169696.067012","173545.960936","174312.594679","175079.208844","175845.875023","176612.543249","177379.128191","178145.791741","178912.476038","180434.076059"
"Blocked","Female","done","20","F_priest.wav","None","739.638465495","406","172779.287451","179662.416425","180429.075884","181195.767779","181962.352721","168162.832839","168929.378039","169696.067012","173545.960936","174312.594679","175079.208844","175845.875023","176612.543249","177379.128191","178145.791741","178912.476038","181201.151054"
"Blocked","Female","done","20","F_done.wav","None","738.526860857","406","172779.287451","179662.416425","180429.075884","181195.767779","181962.352721","182729.034973","168929.378039","169696.067012","173545.960936","174312.594679","175079.208844","175845.875023","176612.543249","177379.128191","178145.791741","178912.476038","181967.385917"
"Blocked","Female","done","20","F_cling.wav","space","458.859231812","406","172779.287451","179662.416425","180429.075884","181195.767779","181962.352721","182729.034973","183495.692678","169696.067012","173545.960936","174312.594679","175079.208844","175845.875023","176612.543249","177379.128191","178145.791741","178912.476038","182734.15379"
"Blocked","Female","done","20","F_reek.wav","None","734.976096409","406","172779.287451","179662.416425","180429.075884","181195.767779","181962.352721","182729.034973","183495.692678","184262.318824","173545.960936","174312.594679","175079.208844","175845.875023","176612.543249","177379.128191","178145.791741","178912.476038","183500.819385"
"Blocked","Female","tile","13","F_park.wav","None","733.449247241","406","187362.244015","179662.416425","180429.075884","181195.767779","181962.352721","182729.034973","183495.692678","184262.318824","173545.960936","174312.594679","175079.208844","175845.875023","176612.543249","177379.128191","178145.791741","178912.476038","184267.59164"
"Blocked","Female","tile","13","F_gnash.wav","None","742.357572003","406","187362.244015","179662.416425","180429.075884","181195.767779","181962.352721","182729.034973","183495.692678","184262.318824","188128.894415","174312.594679","175079.208844","175845.875023","176612.543249","177379.128191","178145.791741","178912.476038","187367.563879"
"Blocked","Female","tile","13","F_cling.wav","None","741.224927529","406","187362.244015","179662.416425","180429.075884","181195.767779","181962.352721","182729.034973","183495.692678","184262.318824","188128.894415","188895.635111","175079.208844","175845.875023","176612.543249","177379.128191","178145.791741","178912.476038","188133.936378"
"Blocked","Female","tile","13","F_tile.wav","None","739.682882924","406","187362.244015","179662.416425","180429.075884","181195.767779","181962.352721","182729.034973","183495.692678","184262.318824","188128.894415","188895.635111","189662.13531","175845.875023","176612.543249","177379.128191","178145.791741","178912.476038","188900.728504"
"Blocked","Female","tile","13","F_knife.wav","space","629.198616047","406","187362.244015","179662.416425","180429.075884","181195.767779","181962.352721","182729.034973","183495.692678","184262.318824","188128.894415","188895.635111","189662.13531","190428.820776","176612.543249","177379.128191","178145.791741","178912.476038","189667.410756"
"Blocked","Female","tile","13","F_tile.wav","None","736.618956892","406","187362.244015","179662.416425","180429.075884","181195.767779","181962.352721","182729.034973","183495.692678","184262.318824","188128.894415","188895.635111","189662.13531","190428.820776","191195.446921","177379.128191","178145.791741","178912.476038","190433.839069"
"Blocked","Female","tile","13","F_gnash.wav","space","640.07591874","406","187362.244015","179662.416425","180429.075884","181195.767779","181962.352721","182729.034973","183495.692678","184262.318824","188128.894415","188895.635111","189662.13531","190428.820776","191195.446921","191962.13531","178145.791741","178912.476038","191200.441544"
"Blocked","Female","tile","13","F_cad.wav","None","732.221339069","406","187362.244015","179662.416425","180429.075884","181195.767779","181962.352721","182729.034973","183495.692678","184262.318824","188128.894415","188895.635111","189662.13531","190428.820776","191195.446921","191962.13531","192728.751227","178912.476038","191967.778076"
"Blocked","Female","tile","13","F_tile.wav","None","731.194770432","406","187362.244015","179662.416425","180429.075884","181195.767779","181962.352721","182729.034973","183495.692678","184262.318824","188128.894415","188895.635111","189662.13531","190428.820776","191195.446921","191962.13531","192728.751227","193495.347274","192734.120184"
"Blocked","Female","tile","13","F_gnash.wav","space","628.143409856","406","187362.244015","194262.413503","180429.075884","181195.767779","181962.352721","182729.034973","183495.692678","184262.318824","188128.894415","188895.635111","189662.13531","190428.820776","191195.446921","191962.13531","192728.751227","193495.347274","193500.227055"
"Blocked","Female","tile","13","F_lash.wav","None","727.523026931","406","187362.244015","194262.413503","195012.031864","181195.767779","181962.352721","182729.034973","183495.692678","184262.318824","188128.894415","188895.635111","189662.13531","190428.820776","191195.446921","191962.13531","192728.751227","193495.347274","194268.096012"
"Blocked","Female","tile","13","F_tile.wav","None","743.619962128","406","187362.244015","194262.413503","195012.031864","195778.655964","181962.352721","182729.034973","183495.692678","184262.318824","188128.894415","188895.635111","189662.13531","190428.820776","191195.446921","191962.13531","192728.751227","193495.347274","195017.103633"
"Blocked","Female","tile","13","F_gnash.wav","space","512.405612961","406","187362.244015","194262.413503","195012.031864","195778.655964","196545.324481","182729.034973","183495.692678","184262.318824","188128.894415","188895.635111","189662.13531","190428.820776","191195.446921","191962.13531","192728.751227","193495.347274","195783.846082"
"Blocked","Female","tile","13","F_park.wav","None","739.876624743","406","187362.244015","194262.413503","195012.031864","195778.655964","196545.324481","197311.965238","183495.692678","184262.318824","188128.894415","188895.635111","189662.13531","190428.820776","191195.446921","191962.13531","192728.751227","193495.347274","196550.648436"
"Blocked","Female","tile","13","F_knife.wav","None","738.798333178","406","187362.244015","194262.413503","195012.031864","195778.655964","196545.324481","197311.965238","198078.608332","184262.318824","188128.894415","188895.635111","189662.13531","190428.820776","191195.446921","191962.13531","192728.751227","193495.347274","197317.046066"
"Blocked","Female","tile","13","F_dime.wav","None","740.658313072","406","187362.244015","194262.413503","195012.031864","195778.655964","196545.324481","197311.965238","198078.608332","198845.238861","188128.894415","188895.635111","189662.13531","190428.820776","191195.446921","191962.13531","192728.751227","193495.347274","198080.41805"
"Blocked","Female","ball","5","F_greet.wav","None","736.463788106","406","201978.71733","194262.413503","195012.031864","195778.655964","196545.324481","197311.965238","198078.608332","198845.238861","188128.894415","188895.635111","189662.13531","190428.820776","191195.446921","191962.13531","192728.751227","193495.347274","198850.273518"
"Blocked","Female","ball","5","F_ball.wav","None","724.419651206","406","201978.71733","194262.413503","195012.031864","195778.655964","196545.324481","197311.965238","198078.608332","198845.238861","202728.501379","188895.635111","189662.13531","190428.820776","191195.446921","191962.13531","192728.751227","193495.347274","201984.629524"
"Blocked","Female","ball","5","F_reek.wav","space","458.185080419","406","201978.71733","194262.413503","195012.031864","195778.655964","196545.324481","197311.965238","198078.608332","198845.238861","202728.501379","203495.110868","189662.13531","190428.820776","191195.446921","191962.13531","192728.751227","193495.347274","202733.635976"
"Blocked","Female","ball","5","F_priest.wav","None","738.637027773","406","201978.71733","194262.413503","195012.031864","195778.655964","196545.324481","197311.965238","198078.608332","198845.238861","202728.501379","203495.110868","204261.79049","190428.820776","191195.446921","191962.13531","192728.751227","193495.347274","203500.269427"
"Blocked","Female","ball","5","F_bluff.wav","None","736.968159716","406","201978.71733","194262.413503","195012.031864","195778.655964","196545.324481","197311.965238","198078.608332","198845.238861","202728.501379","203495.110868","204261.79049","205028.425987","191195.446921","191962.13531","192728.751227","193495.347274","204267.217014"
"Blocked","Female","ball","5","F_bluff.wav","None","735.839021881","406","201978.71733","194262.413503","195012.031864","195778.655964","196545.324481","197311.965238","198078.608332","198845.238861","202728.501379","203495.110868","204261.79049","205028.425987","205795.047164","191962.13531","192728.751227","193495.347274","205033.455384"
"Blocked","Female","ball","5","F_ball.wav","None","734.359512344","406","201978.71733","194262.413503","195012.031864","195778.655964","196545.324481","197311.965238","198078.608332","198845.238861","202728.501379","203495.110868","204261.79049","205028.425987","205795.047164","206561.740228","192728.751227","193495.347274","205800.103154"
"Blocked","Female","ball","5","F_jolt.wav","space","528.706809893","406","201978.71733","194262.413503","195012.031864","195778.655964","196545.324481","197311.965238","198078.608332","198845.238861","202728.501379","203495.110868","204261.79049","205028.425987","205795.047164","206561.740228","207328.392381","193495.347274","206566.894403"
"Blocked","Female","ball","5","F_knife.wav","None","730.88472508","406","201978.71733","194262.413503","195012.031864","195778.655964","196545.324481","197311.965238","198078.608332","198845.238861","202728.501379","203495.110868","204261.79049","205028.425987","205795.047164","206561.740228","207328.392381","208094.985214","207333.384082"
"Blocked","Female","ball","5","F_ball.wav","None","729.285697587","406","201978.71733","208862.002934","195012.031864","195778.655964","196545.324481","197311.965238","198078.608332","198845.238861","202728.501379","203495.110868","204261.79049","205028.425987","205795.047164","206561.740228","207328.392381","208094.985214","208100.221503"
"Blocked","Female","ball","5","F_gnash.wav","space","540.293914813","406","201978.71733","208862.002934","209611.629477","195778.655964","196545.324481","197311.965238","198078.608332","198845.238861","202728.501379","203495.110868","204261.79049","205028.425987","205795.047164","206561.740228","207328.392381","208094.985214","208867.181656"
"Blocked","Female","ball","5","F_priest.wav","None","742.914250982","406","201978.71733","208862.002934","209611.629477","210378.328677","196545.324481","197311.965238","198078.608332","198845.238861","202728.501379","203495.110868","204261.79049","205028.425987","205795.047164","206561.740228","207328.392381","208094.985214","209616.70709"
"Blocked","Female","ball","5","F_ball.wav","None","741.126157191","406","201978.71733","208862.002934","209611.629477","210378.328677","211144.896963","197311.965238","198078.608332","198845.238861","202728.501379","203495.110868","204261.79049","205028.425987","205795.047164","206561.740228","207328.392381","208094.985214","210383.514412"
"Blocked","Female","ball","5","F_jolt.wav","space","537.260671872","406","201978.71733","208862.002934","209611.629477","210378.328677","211144.896963","211911.530706","198078.608332","198845.238861","202728.501379","203495.110868","204261.79049","205028.425987","205795.047164","206561.740228","207328.392381","208094.985214","211150.061074"
"Blocked","Female","ball","5","F_gnash.wav","None","738.662743127","406","201978.71733","208862.002934","209611.629477","210378.328677","211144.896963","211911.530706","212678.235167","198845.238861","202728.501379","203495.110868","204261.79049","205028.425987","205795.047164","206561.740228","207328.392381","208094.985214","211916.624392"
"Blocked","Female","ball","5","F_romp.wav","None","738.28051945","406","201978.71733","208862.002934","209611.629477","210378.328677","211144.896963","211911.530706","212678.235167","213444.825369","202728.501379","203495.110868","204261.79049","205028.425987","205795.047164","206561.740228","207328.392381","208094.985214","212683.278299"
"Blocked","Female","ball","4","F_dime.wav","None","737.953525341","406","216544.735073","208862.002934","209611.629477","210378.328677","211144.896963","211911.530706","212678.235167","213444.825369","202728.501379","203495.110868","204261.79049","205028.425987","205795.047164","206561.740228","207328.392381","208094.985214","213449.980713"
"Blocked","Female","ball","4","F_ball.wav","None","742.425074808","406","216544.735073","208862.002934","209611.629477","210378.328677","211144.896963","211911.530706","212678.235167","213444.825369","217311.424631","203495.110868","204261.79049","205028.425987","205795.047164","206561.740228","207328.392381","208094.985214","216550.093218"
"Blocked","Female","ball","4","F_cad.wav","space","490.234009725","406","216544.735073","208862.002934","209611.629477","210378.328677","211144.896963","211911.530706","212678.235167","213444.825369","217311.424631","218078.005482","204261.79049","205028.425987","205795.047164","206561.740228","207328.392381","208094.985214","217316.700662"
"Blocked","Female","ball","4","F_cad.wav","None","739.391539648","406","216544.735073","208862.002934","209611.629477","210378.328677","211144.896963","211911.530706","212678.235167","213444.825369","217311.424631","218078.005482","218844.671662","205028.425987","205795.047164","206561.740228","207328.392381","208094.985214","218083.019976"
"Blocked","Female","ball","4","F_ball.wav","None","738.359711053","406","216544.735073","208862.002934","209611.629477","210378.328677","211144.896963","211911.530706","212678.235167","213444.825369","217311.424631","218078.005482","218844.671662","219611.349822","205795.047164","206561.740228","207328.392381","208094.985214","218849.656642"
"Blocked","Female","ball","4","F_knife.wav","space","526.355316066","406","216544.735073","208862.002934","209611.629477","210378.328677","211144.896963","211911.530706","212678.235167","213444.825369","217311.424631","218078.005482","218844.671662","219611.349822","220377.966909","206561.740228","207328.392381","208094.985214","219616.475068"
"Blocked","Female","ball","4","F_knife.wav","None","734.459743781","406","216544.735073","208862.002934","209611.629477","210378.328677","211144.896963","211911.530706","212678.235167","213444.825369","217311.424631","218078.005482","218844.671662","219611.349822","220377.966909","221144.686273","207328.392381","208094.985214","220383.349892"
"Blocked","Female","ball","4","F_bluff.wav","None","733.540712081","406","216544.735073","208862.002934","209611.629477","210378.328677","211144.896963","211911.530706","212678.235167","213444.825369","217311.424631","218078.005482","218844.671662","219611.349822","220377.966909","221144.686273","221911.335796","208094.985214","221149.666869"
"Blocked","Female","ball","4","F_ball.wav","None","732.102989994","406","216544.735073","208862.002934","209611.629477","210378.328677","211144.896963","211911.530706","212678.235167","213444.825369","217311.424631","218078.005482","218844.671662","219611.349822","220377.966909","221144.686273","221911.335796","222677.905543","221916.365778"
"Blocked","Female","ball","4","F_priest.wav","space","483.383205536","406","216544.735073","223444.848455","209611.629477","210378.328677","211144.896963","211911.530706","212678.235167","213444.825369","217311.424631","218078.005482","218844.671662","219611.349822","220377.966909","221144.686273","221911.335796","222677.905543","222683.243232"
"Blocked","Female","ball","4","F_ball.wav","None","728.101914625","406","216544.735073","223444.848455","224211.739936","210378.328677","211144.896963","211911.530706","212678.235167","213444.825369","217311.424631","218078.005482","218844.671662","219611.349822","220377.966909","221144.686273","221911.335796","222677.905543","223450.334592"
"Blocked","Female","ball","4","F_greet.wav","space","605.187196091","406","216544.735073","223444.848455","224211.739936","224961.20605","211144.896963","211911.530706","212678.235167","213444.825369","217311.424631","218078.005482","218844.671662","219611.349822","220377.966909","221144.686273","221911.335796","222677.905543","224217.371891"
"Blocked","Female","ball","4","F_dime.wav","None","742.124964933","406","216544.735073","223444.848455","224211.739936","224961.20605","225727.86697","211911.530706","212678.235167","213444.825369","217311.424631","218078.005482","218844.671662","219611.349822","220377.966909","221144.686273","221911.335796","222677.905543","224966.280449"
"Blocked","Female","ball","4","F_dime.wav","None","740.765265569","406","216544.735073","223444.848455","224211.739936","224961.20605","225727.86697","226494.51737","212678.235167","213444.825369","217311.424631","218078.005482","218844.671662","219611.349822","220377.966909","221144.686273","221911.335796","222677.905543","225733.098876"
"Blocked","Female","ball","4","F_greet.wav","None","739.29306153","406","216544.735073","223444.848455","224211.739936","224961.20605","225727.86697","226494.51737","227261.121599","213444.825369","217311.424631","218078.005482","218844.671662","219611.349822","220377.966909","221144.686273","221911.335796","222677.905543","226499.808304"
"Blocked","Female","ball","4","F_depth.wav","None","738.484196746","406","216544.735073","223444.848455","224211.739936","224961.20605","225727.86697","226494.51737","227261.121599","228027.770537","217311.424631","218078.005482","218844.671662","219611.349822","220377.966909","221144.686273","221911.335796","222677.905543","227266.14106"
"Blocked","Female","cave","7","F_lash.wav","None","737.342201234","406","231127.729042","223444.848455","224211.739936","224961.20605","225727.86697","226494.51737","227261.121599","228027.770537","217311.424631","218078.005482","218844.671662","219611.349822","220377.966909","221144.686273","221911.335796","222677.905543","228032.955396"
"Blocked","Female","cave","7","F_cave.wav","None","742.531442866","406","231127.729042","223444.848455","224211.739936","224961.20605","225727.86697","226494.51737","227261.121599","228027.770537","231894.367753","218078.005482","218844.671662","219611.349822","220377.966909","221144.686273","221911.335796","222677.905543","231132.850489"
"Blocked","Female","cave","7","F_romp.wav","space","546.611417617","406","231127.729042","223444.848455","224211.739936","224961.20605","225727.86697","226494.51737","227261.121599","228027.770537","231894.367753","232660.96117","218844.671662","219611.349822","220377.966909","221144.686273","221911.335796","222677.905543","231899.440691"
"Blocked","Female","cave","7","F_jaw.wav","None","739.258579578","406","231127.729042","223444.848455","224211.739936","224961.20605","225727.86697","226494.51737","227261.121599","228027.770537","231894.367753","232660.96117","233427.633778","219611.349822","220377.966909","221144.686273","221911.335796","222677.905543","232666.023296"
"Blocked","Female","cave","7","F_greet.wav","None","737.928102207","406","231127.729042","223444.848455","224211.739936","224961.20605","225727.86697","226494.51737","227261.121599","228027.770537","231894.367753","232660.96117","233427.633778","234194.280087","220377.966909","221144.686273","221911.335796","222677.905543","233432.799935"
"Blocked","Female","cave","7","F_jaw.wav","None","736.584767159","406","231127.729042","223444.848455","224211.739936","224961.20605","225727.86697","226494.51737","227261.121599","228027.770537","231894.367753","232660.96117","233427.633778","234194.280087","234960.952988","221144.686273","221911.335796","222677.905543","234199.611055"
"Blocked","Female","cave","7","F_cave.wav","None","735.5710562","406","231127.729042","223444.848455","224211.739936","224961.20605","225727.86697","226494.51737","227261.121599","228027.770537","231894.367753","232660.96117","233427.633778","234194.280087","234960.952988","235727.567737","221911.335796","222677.905543","234966.013068"
"Blocked","Female","cave","7","F_lash.wav","space","585.241432112","406","231127.729042","223444.848455","224211.739936","224961.20605","225727.86697","226494.51737","227261.121599","228027.770537","231894.367753","232660.96117","233427.633778","234194.280087","234960.952988","235727.567737","236494.248819","222677.905543","235732.617297"
"Blocked","Female","cave","7","F_cad.wav","None","731.764014868","406","231127.729042","223444.848455","224211.739936","224961.20605","225727.86697","226494.51737","227261.121599","228027.770537","231894.367753","232660.96117","233427.633778","234194.280087","234960.952988","235727.567737","236494.248819","237260.838145","236499.540046"
"Blocked","Female","cave","7","F_cave.wav","None","730.613252758","406","231127.729042","238027.487084","224211.739936","224961.20605","225727.86697","226494.51737","227261.121599","228027.770537","231894.367753","232660.96117","233427.633778","234194.280087","234960.952988","235727.567737","236494.248819","237260.838145","237266.112131"
"Blocked","Female","cave","7","F_knife.wav","space","581.167886197","406","231127.729042","238027.487084","238794.60562","224961.20605","225727.86697","226494.51737","227261.121599","228027.770537","231894.367753","232660.96117","233427.633778","234194.280087","234960.952988","235727.567737","236494.248819","237260.838145","238032.558269"
"Blocked","Female","cave","7","F_gnash.wav","None","726.742215261","406","231127.729042","238027.487084","238794.60562","239544.103294","225727.86697","226494.51737","227261.121599","228027.770537","231894.367753","232660.96117","233427.633778","234194.280087","234960.952988","235727.567737","236494.248819","237260.838145","238800.007598"
"Blocked","Female","cave","7","F_cave.wav","None","742.811681784","406","231127.729042","238027.487084","238794.60562","239544.103294","240310.766259","226494.51737","227261.121599","228027.770537","231894.367753","232660.96117","233427.633778","234194.280087","234960.952988","235727.567737","236494.248819","237260.838145","239549.261268"
"Blocked","Female","cave","7","F_lash.wav","space","585.468487002","406","231127.729042","238027.487084","238794.60562","239544.103294","240310.766259","241077.468966","227261.121599","228027.770537","231894.367753","232660.96117","233427.633778","234194.280087","234960.952988","235727.567737","236494.248819","237260.838145","240316.122066"
"Blocked","Female","cave","7","F_depth.wav","None","739.70538386","406","231127.729042","238027.487084","238794.60562","239544.103294","240310.766259","241077.468966","241844.100372","228027.770537","231894.367753","232660.96117","233427.633778","234194.280087","234960.952988","235727.567737","236494.248819","237260.838145","241082.570542"
"Blocked","Female","cave","7","F_depth.wav","None","738.329027959","406","231127.729042","238027.487084","238794.60562","239544.103294","240310.766259","241077.468966","241844.100372","242610.709568","231894.367753","232660.96117","233427.633778","234194.280087","234960.952988","235727.567737","236494.248819","237260.838145","241849.17857"
"Blocked","Female","done","23","F_romp.wav","None","736.983062932","406","245727.270549","238027.487084","238794.60562","239544.103294","240310.766259","241077.468966","241844.100372","242610.709568","231894.367753","232660.96117","233427.633778","234194.280087","234960.952988","235727.567737","236494.248819","237260.838145","242615.975664"
"Blocked","Female","done","23","F_cad.wav","None","743.157962408","406","245727.270549","238027.487084","238794.60562","239544.103294","240310.766259","241077.468966","241844.100372","242610.709568","246493.952216","232660.96117","233427.633778","234194.280087","234960.952988","235727.567737","236494.248819","237260.838145","245732.306083"
"Blocked","Female","done","23","F_jolt.wav","None","741.77283991","406","245727.270549","238027.487084","238794.60562","239544.103294","240310.766259","241077.468966","241844.100372","242610.709568","246493.952216","247260.540373","233427.633778","234194.280087","234960.952988","235727.567737","236494.248819","237260.838145","246499.16542"
"Blocked","Female","done","23","F_done.wav","None","740.868711427","406","245727.270549","238027.487084","238794.60562","239544.103294","240310.766259","241077.468966","241844.100372","242610.709568","246493.952216","247260.540373","248027.222917","234194.280087","234960.952988","235727.567737","236494.248819","237260.838145","247265.76059"
"Blocked","Female","done","23","F_cad.wav","space","500.822599121","406","245727.270549","238027.487084","238794.60562","239544.103294","240310.766259","241077.468966","241844.100372","242610.709568","246493.952216","247260.540373","248027.222917","248793.888804","234960.952988","235727.567737","236494.248819","237260.838145","248032.253191"
"Blocked","Female","done","23","F_priest.wav","None","737.813551991","406","245727.270549","238027.487084","238794.60562","239544.103294","240310.766259","241077.468966","241844.100372","242610.709568","246493.952216","247260.540373","248027.222917","248793.888804","249560.540665","235727.567737","236494.248819","237260.838145","248799.124801"
"Blocked","Female","done","23","F_done.wav","None","736.767989059","406","245727.270549","238027.487084","238794.60562","239544.103294","240310.766259","241077.468966","241844.100372","242610.709568","246493.952216","247260.540373","248027.222917","248793.888804","249560.540665","250327.13642","236494.248819","237260.838145","249565.669417"
"Blocked","Female","done","23","F_park.wav","space","552.89736067","406","245727.270549","238027.487084","238794.60562","239544.103294","240310.766259","241077.468966","241844.100372","242610.709568","246493.952216","247260.540373","248027.222917","248793.888804","249560.540665","250327.13642","251093.770748","237260.838145","250332.087502"
"Blocked","Female","done","23","F_greet.wav","None","733.49892463","406","245727.270549","238027.487084","238794.60562","239544.103294","240310.766259","241077.468966","241844.100372","242610.709568","246493.952216","247260.540373","248027.222917","248793.888804","249560.540665","250327.13642","251093.770748","251860.423485","251098.883428"
"Blocked","Female","done","23","F_bluff.wav","None","732.377676734","406","245727.270549","252627.087619","238794.60562","239544.103294","240310.766259","241077.468966","241844.100372","242610.709568","246493.952216","247260.540373","248027.222917","248793.888804","249560.540665","250327.13642","251093.770748","251860.423485","251865.443239"
"Blocked","Female","done","23","F_cling.wav","None","731.16087292","406","245727.270549","252627.087619","253393.731298","239544.103294","240310.766259","241077.468966","241844.100372","242610.709568","246493.952216","247260.540373","248027.222917","248793.888804","249560.540665","250327.13642","251093.770748","251860.423485","252632.088963"
"Blocked","Female","done","23","F_done.wav","None","729.993454273","406","245727.270549","252627.087619","253393.731298","254160.568426","240310.766259","241077.468966","241844.100372","242610.709568","246493.952216","247260.540373","248027.222917","248793.888804","249560.540665","250327.13642","251093.770748","251860.423485","253398.736441"
"Blocked","Female","done","23","F_lash.wav","space","574.35536282","406","245727.270549","252627.087619","253393.731298","254160.568426","254910.390464","241077.468966","241844.100372","242610.709568","246493.952216","247260.540373","248027.222917","248793.888804","249560.540665","250327.13642","251093.770748","251860.423485","254166.396753"
"Blocked","Female","done","23","F_cad.wav","None","743.172573405","406","245727.270549","252627.087619","253393.731298","254160.568426","254910.390464","255677.01135","241844.100372","242610.709568","246493.952216","247260.540373","248027.222917","248793.888804","249560.540665","250327.13642","251093.770748","251860.423485","254915.594901"
"Blocked","Female","done","23","F_done.wav","None","742.199773237","406","245727.270549","252627.087619","253393.731298","254160.568426","254910.390464","255677.01135","256443.697108","242610.709568","246493.952216","247260.540373","248027.222917","248793.888804","249560.540665","250327.13642","251093.770748","251860.423485","255682.133381"
"Blocked","Female","done","23","F_dime.wav","space","587.843066205","406","245727.270549","252627.087619","253393.731298","254160.568426","254910.390464","255677.01135","256443.697108","257210.292863","246493.952216","247260.540373","248027.222917","248793.888804","249560.540665","250327.13642","251093.770748","251860.423485","256448.75602"
"Blocked","Female","ball","1","F_bluff.wav","None","739.233156442","406","260310.28322","252627.087619","253393.731298","254160.568426","254910.390464","255677.01135","256443.697108","257210.292863","246493.952216","247260.540373","248027.222917","248793.888804","249560.540665","250327.13642","251093.770748","251860.423485","257215.380996"
"Blocked","Female","ball","1","F_park.wav","None","742.254418366","406","260310.28322","252627.087619","253393.731298","254160.568426","254910.390464","255677.01135","256443.697108","257210.292863","261076.850921","247260.540373","248027.222917","248793.888804","249560.540665","250327.13642","251093.770748","251860.423485","260315.210632"
"Blocked","Female","ball","1","F_dime.wav","None","740.949948569","406","260310.28322","252627.087619","253393.731298","254160.568426","254910.390464","255677.01135","256443.697108","257210.292863","261076.850921","261843.494308","248027.222917","248793.888804","249560.540665","250327.13642","251093.770748","251860.423485","261082.165817"
"Blocked","Female","ball","1","F_ball.wav","None","740.278427155","406","260310.28322","252627.087619","253393.731298","254160.568426","254910.390464","255677.01135","256443.697108","257210.292863","261076.850921","261843.494308","262610.143831","248793.888804","249560.540665","250327.13642","251093.770748","251860.423485","261848.657834"
"Blocked","Female","ball","1","F_dime.wav","space","461.217154479","406","260310.28322","252627.087619","253393.731298","254160.568426","254910.390464","255677.01135","256443.697108","257210.292863","261076.850921","261843.494308","262610.143831","263376.893293","249560.540665","250327.13642","251093.770748","251860.423485","262614.990006"
"Blocked","Female","ball","1","F_ball.wav","None","736.985692912","406","260310.28322","252627.087619","253393.731298","254160.568426","254910.390464","255677.01135","256443.697108","257210.292863","261076.850921","261843.494308","262610.143831","263376.893293","264143.438201","250327.13642","251093.770748","251860.423485","263382.275984"
"Blocked","Female","ball","1","F_jolt.wav","space","543.465085562","406","260310.28322","252627.087619","253393.731298","254160.568426","254910.390464","255677.01135","256443.697108","257210.292863","261076.850921","261843.494308","262610.143831","263376.893293","264143.438201","264910.093277","251093.770748","251860.423485","264148.618092"
"Blocked","Female","ball","1","F_jolt.wav","None","733.909493642","406","260310.28322","252627.087619","253393.731298","254160.568426","254910.390464","255677.01135","256443.697108","257210.292863","261076.850921","261843.494308","262610.143831","263376.893293","264143.438201","264910.093277","265676.766762","251860.423485","264915.243653"
"Blocked","Female","ball","1","F_cling.wav","None","733.001566299","406","260310.28322","252627.087619","253393.731298","254160.568426","254910.390464","255677.01135","256443.697108","257210.292863","261076.850921","261843.494308","262610.143831","263376.893293","264143.438201","264910.093277","265676.766762","266443.385894","265681.792945"
"Blocked","Female","ball","1","F_reek.wav","None","731.94051571","406","260310.28322","267210.067561","253393.731298","254160.568426","254910.390464","255677.01135","256443.697108","257210.292863","261076.850921","261843.494308","262610.143831","263376.893293","264143.438201","264910.093277","265676.766762","266443.385894","266448.429902"
"Blocked","Female","ball","1","F_ball.wav","None","730.897290537","406","260310.28322","267210.067561","267976.684648","254160.568426","254910.390464","255677.01135","256443.697108","257210.292863","261076.850921","261843.494308","262610.143831","263376.893293","264143.438201","264910.093277","265676.766762","266443.385894","267215.033547"
"Blocked","Female","ball","1","F_jolt.wav","space","494.097157284","406","260310.28322","267210.067561","267976.684648","268743.742987","254910.390464","255677.01135","256443.697108","257210.292863","261076.850921","261843.494308","262610.143831","263376.893293","264143.438201","264910.093277","265676.766762","266443.385894","267981.816614"
"Blocked","Female","ball","1","F_cling.wav","None","726.623573967","406","260310.28322","267210.067561","267976.684648","268743.742987","269493.262285","255677.01135","256443.697108","257210.292863","261076.850921","261843.494308","262610.143831","263376.893293","264143.438201","264910.093277","265676.766762","266443.385894","268749.53537"
"Blocked","Female","ball","1","F_ball.wav","None","743.501320834","406","260310.28322","267210.067561","267976.684648","268743.742987","269493.262285","270259.934017","256443.697108","257210.292863","261076.850921","261843.494308","262610.143831","263376.893293","264143.438201","264910.093277","265676.766762","266443.385894","269498.334054"
"Blocked","Female","ball","1","F_gnash.wav","space","570.712256873","406","260310.28322","267210.067561","267976.684648","268743.742987","269493.262285","270259.934017","271026.616561","257210.292863","261076.850921","261843.494308","262610.143831","263376.893293","264143.438201","264910.093277","265676.766762","266443.385894","270265.008708"
"Blocked","Female","ball","1","F_reek.wav","None","740.746855713","406","260310.28322","267210.067561","267976.684648","268743.742987","269493.262285","270259.934017","271026.616561","271793.27485","261076.850921","261843.494308","262610.143831","263376.893293","264143.438201","264910.093277","265676.766762","266443.385894","271031.523226"
"Blocked","Female","cave","8","F_reek.wav","None","739.641387694","406","274893.180756","267210.067561","267976.684648","268743.742987","269493.262285","270259.934017","271026.616561","271793.27485","261076.850921","261843.494308","262610.143831","263376.893293","264143.438201","264910.093277","265676.766762","266443.385894","271798.261291"
"Blocked","Female","cave","8","F_cave.wav","None","742.245067328","406","274893.180756","267210.067561","267976.684648","268743.742987","269493.262285","270259.934017","271026.616561","271793.27485","275659.808947","261843.494308","262610.143831","263376.893293","264143.438201","264910.093277","265676.766762","266443.385894","274898.303079"
"Blocked","Female","cave","8","F_priest.wav","space","602.5753343","406","274893.180756","267210.067561","267976.684648","268743.742987","269493.262285","270259.934017","271026.616561","271793.27485","275659.808947","276426.444443","262610.143831","263376.893293","264143.438201","264910.093277","265676.766762","266443.385894","275664.879839"
"Blocked","Female","cave","8","F_jolt.wav","None","739.176465776","406","274893.180756","267210.067561","267976.684648","268743.742987","269493.262285","270259.934017","271026.616561","271793.27485","275659.808947","276426.444443","277193.072634","263376.893293","264143.438201","264910.093277","265676.766762","266443.385894","276431.493127"
"Blocked","Female","cave","8","F_park.wav","None","738.00670937","406","274893.180756","267210.067561","267976.684648","268743.742987","269493.262285","270259.934017","271026.616561","271793.27485","275659.808947","276426.444443","277193.072634","277959.720404","264143.438201","264910.093277","265676.766762","266443.385894","277198.19525"
"Blocked","Female","cave","8","F_cave.wav","None","737.118360763","406","274893.180756","267210.067561","267976.684648","268743.742987","269493.262285","270259.934017","271026.616561","271793.27485","275659.808947","276426.444443","277193.072634","277959.720404","278726.379863","264910.093277","265676.766762","266443.385894","277964.891236"
"Blocked","Female","cave","8","F_dime.wav","space","511.831693005","406","274893.180756","267210.067561","267976.684648","268743.742987","269493.262285","270259.934017","271026.616561","271793.27485","275659.808947","276426.444443","277193.072634","277959.720404","278726.379863","279493.011268","265676.766762","266443.385894","278731.41715"
"Blocked","Female","cave","8","F_romp.wav","None","734.157588367","406","274893.180756","267210.067561","267976.684648","268743.742987","269493.262285","270259.934017","271026.616561","271793.27485","275659.808947","276426.444443","277193.072634","277959.720404","278726.379863","279493.011268","280259.680954","266443.385894","279497.99917"
"Blocked","Female","cave","8","F_greet.wav","None","732.815714419","406","274893.180756","267210.067561","267976.684648","268743.742987","269493.262285","270259.934017","271026.616561","271793.27485","275659.808947","276426.444443","277193.072634","277959.720404","278726.379863","279493.011268","280259.680954","281026.301548","280264.846526"
"Blocked","Female","cave","8","F_romp.wav","None","731.696512064","406","274893.180756","281792.976786","267976.684648","268743.742987","269493.262285","270259.934017","271026.616561","271793.27485","275659.808947","276426.444443","277193.072634","277959.720404","278726.379863","279493.011268","280259.680954","281026.301548","281031.482899"
"Blocked","Female","cave","8","F_romp.wav","None","730.708224238","406","274893.180756","281792.976786","282559.623679","268743.742987","269493.262285","270259.934017","271026.616561","271793.27485","275659.808947","276426.444443","277193.072634","277959.720404","278726.379863","279493.011268","280259.680954","281026.301548","281798.071641"
"Blocked","Female","cave","8","F_cave.wav","None","733.22686787","406","274893.180756","281792.976786","282559.623679","283326.256546","269493.262285","270259.934017","271026.616561","271793.27485","275659.808947","276426.444443","277193.072634","277959.720404","278726.379863","279493.011268","280259.680954","281026.301548","282561.313587"
"Blocked","Female","cave","8","F_depth.wav","space","719.413339256","406","274893.180756","281792.976786","282559.623679","283326.256546","284076.241935","270259.934017","271026.616561","271793.27485","275659.808947","276426.444443","277193.072634","277959.720404","278726.379863","279493.011268","280259.680954","281026.301548","283331.536376"
"Blocked","Female","cave","8","F_cave.wav","None","743.337093229","406","274893.180756","281792.976786","282559.623679","283326.256546","284076.241935","284842.858437","271026.616561","271793.27485","275659.808947","276426.444443","277193.072634","277959.720404","278726.379863","279493.011268","280259.680954","281026.301548","284081.274254"
"Blocked","Female","cave","8","F_knife.wav","space","683.233004488","406","274893.180756","281792.976786","282559.623679","283326.256546","284076.241935","284842.858437","285609.567865","271793.27485","275659.808947","276426.444443","277193.072634","277959.720404","278726.379863","279493.011268","280259.680954","281026.301548","284847.666624"
"Blocked","Female","cave","8","F_park.wav","None","740.185501216","406","274893.180756","281792.976786","282559.623679","283326.256546","284076.241935","284842.858437","285609.567865","286376.171802","275659.808947","276426.444443","277193.072634","277959.720404","278726.379863","279493.011268","280259.680954","281026.301548","285614.596386"
"Blocked","Female","tile","17","F_lash.wav","None","739.100196372","406","289492.732198","281792.976786","282559.623679","283326.256546","284076.241935","284842.858437","285609.567865","286376.171802","275659.808947","276426.444443","277193.072634","277959.720404","278726.379863","279493.011268","280259.680954","281026.301548","286381.337666"
"Blocked","Female","tile","17","F_gnash.wav","None","743.004254722","406","289492.732198","281792.976786","282559.623679","283326.256546","284076.241935","284842.858437","285609.567865","286376.171802","290259.479323","276426.444443","277193.072634","277959.720404","278726.379863","279493.011268","280259.680954","281026.301548","289497.95183"
"Blocked","Female","tile","17","F_cad.wav","None","741.853784833","406","289492.732198","281792.976786","282559.623679","283326.256546","284076.241935","284842.858437","285609.567865","286376.171802","290259.479323","291026.003483","277193.072634","277959.720404","278726.379863","279493.011268","280259.680954","281026.301548","290264.961661"
"Blocked","Female","tile","17","F_bluff.wav","None","741.858752572","406","289492.732198","281792.976786","282559.623679","283326.256546","284076.241935","284842.858437","285609.567865","286376.171802","290259.479323","291026.003483","291792.698008","277959.720404","278726.379863","279493.011268","280259.680954","281026.301548","291030.948429"
"Blocked","Female","tile","17","F_tile.wav","None","740.857607069","406","289492.732198","281792.976786","282559.623679","283326.256546","284076.241935","284842.858437","285609.567865","286376.171802","290259.479323","291026.003483","291792.698008","292559.312173","278726.379863","279493.011268","280259.680954","281026.301548","291797.628927"
"Blocked","Female","tile","17","F_reek.wav","space","574.134736768","406","289492.732198","281792.976786","282559.623679","283326.256546","284076.241935","284842.858437","285609.567865","286376.171802","290259.479323","291026.003483","291792.698008","292559.312173","293326.005821","279493.011268","280259.680954","281026.301548","292564.318485"
"Blocked","Female","tile","17","F_tile.wav","None","738.18613241","406","289492.732198","281792.976786","282559.623679","283326.256546","284076.241935","284842.858437","285609.567865","286376.171802","290259.479323","291026.003483","291792.698008","292559.312173","293326.005821","294092.625245","280259.680954","281026.301548","293331.043693"
"Blocked","Female","tile","17","F_greet.wav","space","640.76351225","406","289492.732198","281792.976786","282559.623679","283326.256546","284076.241935","284842.858437","285609.567865","286376.171802","290259.479323","291026.003483","291792.698008","292559.312173","293326.005821","294092.625245","294859.254898","281026.301548","294097.564931"
"Blocked","Female","tile","17","F_knife.wav","None","735.29520058","406","289492.732198","281792.976786","282559.623679","283326.256546","284076.241935","284842.858437","285609.567865","286376.171802","290259.479323","291026.003483","291792.698008","292559.312173","293326.005821","294092.625245","294859.254898","295625.955851","294864.500245"
"Blocked","Female","tile","17","F_reek.wav","None","734.676863195","406","289492.732198","296392.587549","282559.623679","283326.256546","284076.241935","284842.858437","285609.567865","286376.171802","290259.479323","291026.003483","291792.698008","292559.312173","293326.005821","294092.625245","294859.254898","295625.955851","295631.000736"
"Blocked","Female","tile","17","F_cad.wav","None","733.634222461","406","289492.732198","296392.587549","297159.196161","283326.256546","284076.241935","284842.858437","285609.567865","286376.171802","290259.479323","291026.003483","291792.698008","292559.312173","293326.005821","294092.625245","294859.254898","295625.955851","296397.721269"
"Blocked","Female","tile","17","F_knife.wav","None","733.04276931","406","289492.732198","296392.587549","297159.196161","297925.829612","284076.241935","284842.858437","285609.567865","286376.171802","290259.479323","291026.003483","291792.698008","292559.312173","293326.005821","294092.625245","294859.254898","295625.955851","297164.134971"
"Blocked","Female","tile","17","F_tile.wav","None","732.141270806","406","289492.732198","296392.587549","297159.196161","297925.829612","298692.522092","284842.858437","285609.567865","286376.171802","290259.479323","291026.003483","291792.698008","292559.312173","293326.005821","294092.625245","294859.254898","295625.955851","297930.866023"
"Blocked","Female","tile","17","F_dime.wav","space","624.137658967","406","289492.732198","296392.587549","297159.196161","297925.829612","298692.522092","299459.160218","285609.567865","286376.171802","290259.479323","291026.003483","291792.698008","292559.312173","293326.005821","294092.625245","294859.254898","295625.955851","298697.816825"
"Blocked","Female","tile","17","F_tile.wav","None","729.41281326","406","289492.732198","296392.587549","297159.196161","297925.829612","298692.522092","299459.160218","300226.312068","286376.171802","290259.479323","291026.003483","291792.698008","292559.312173","293326.005821","294092.625245","294859.254898","295625.955851","299464.343616"
"Blocked","Female","tile","17","F_depth.wav","None","727.857910978","406","289492.732198","296392.587549","297159.196161","297925.829612","298692.522092","299459.160218","300226.312068","300992.846456","290259.479323","291026.003483","291792.698008","292559.312173","293326.005821","294092.625245","294859.254898","295625.955851","300231.740637"
"Blocked","Female","done","22","F_priest.wav","space","179.46161399","406","304092.393515","296392.587549","297159.196161","297925.829612","298692.522092","299459.160218","300226.312068","300992.846456","290259.479323","291026.003483","291792.698008","292559.312173","293326.005821","294092.625245","294859.254898","295625.955851","300998.501496"
"Blocked","Female","done","22","F_jaw.wav","None","742.383287357","406","304092.393515","296392.587549","297159.196161","297925.829612","298692.522092","299459.160218","300226.312068","300992.846456","304858.964139","291026.003483","291792.698008","292559.312173","293326.005821","294092.625245","294859.254898","295625.955851","304097.566977"
"Blocked","Female","done","22","F_priest.wav","None","741.688680569","406","304092.393515","296392.587549","297159.196161","297925.829612","298692.522092","299459.160218","300226.312068","300992.846456","304858.964139","305625.658079","291792.698008","292559.312173","293326.005821","294092.625245","294859.254898","295625.955851","304864.108379"
"Blocked","Female","done","22","F_done.wav","None","741.283371516","406","304092.393515","296392.587549","297159.196161","297925.829612","298692.522092","299459.160218","300226.312068","300992.846456","304858.964139","305625.658079","306392.325136","292559.312173","293326.005821","294092.625245","294859.254898","295625.955851","305630.655332"
"Blocked","Female","done","22","F_cad.wav","None","740.384502993","406","304092.393515","296392.587549","297159.196161","297925.829612","298692.522092","299459.160218","300226.312068","300992.846456","304858.964139","305625.658079","306392.325136","307158.943391","293326.005821","294092.625245","294859.254898","295625.955851","306397.352487"
"Blocked","Female","done","22","F_done.wav","space","0.0210398347699","406","304092.393515","296392.587549","297159.196161","297925.829612","298692.522092","299459.160218","300226.312068","300992.846456","304858.964139","305625.658079","306392.325136","307158.943391","307925.565738","294092.625245","294859.254898","295625.955851","307164.255365"
"Blocked","Female","done","22","F_reek.wav","space","534.891644847","406","304092.393515","296392.587549","297159.196161","297925.829612","298692.522092","299459.160218","300226.312068","300992.846456","304858.964139","305625.658079","306392.325136","307158.943391","307925.565738","308692.217014","294859.254898","295625.955851","307930.613253"
"Blocked","Female","done","22","F_done.wav","None","735.500338976","406","304092.393515","296392.587549","297159.196161","297925.829612","298692.522092","299459.160218","300226.312068","300992.846456","304858.964139","305625.658079","306392.325136","307158.943391","307925.565738","308692.217014","309458.854556","295625.955851","308697.245243"
"Blocked","Female","done","22","F_gnash.wav","space","481.221070227","406","304092.393515","296392.587549","297159.196161","297925.829612","298692.522092","299459.160218","300226.312068","300992.846456","304858.964139","305625.658079","306392.325136","307158.943391","307925.565738","308692.217014","309458.854556","310225.533886","309464.22439"
"Blocked","Female","done","22","F_park.wav","None","732.837630914","406","304092.393515","310992.276335","297159.196161","297925.829612","298692.522092","299459.160218","300226.312068","300992.846456","304858.964139","305625.658079","306392.325136","307158.943391","307925.565738","308692.217014","309458.854556","310225.533886","310230.435583"
"Blocked","Female","done","22","F_cling.wav","None","731.764599308","406","304092.393515","310992.276335","311758.787638","297925.829612","298692.522092","299459.160218","300226.312068","300992.846456","304858.964139","305625.658079","306392.325136","307158.943391","307925.565738","308692.217014","309458.854556","310225.533886","310997.309239"
"Blocked","Female","done","22","F_done.wav","None","731.39143445","406","304092.393515","310992.276335","311758.787638","312525.499696","298692.522092","299459.160218","300226.312068","300992.846456","304858.964139","305625.658079","306392.325136","307158.943391","307925.565738","308692.217014","309458.854556","310225.533886","311763.78869"
"Blocked","Female","done","22","F_jaw.wav","space","566.586695811","406","304092.393515","310992.276335","311758.787638","312525.499696","313292.287731","299459.160218","300226.312068","300992.846456","304858.964139","305625.658079","306392.325136","307158.943391","307925.565738","308692.217014","309458.854556","310225.533886","312530.666145"
"Blocked","Female","done","22","F_depth.wav","None","730.602732841","406","304092.393515","310992.276335","311758.787638","312525.499696","313292.287731","314059.213695","300226.312068","300992.846456","304858.964139","305625.658079","306392.325136","307158.943391","307925.565738","308692.217014","309458.854556","310225.533886","313294.93992"
"Blocked","Female","done","22","F_gnash.wav","None","726.582663176","406","304092.393515","310992.276335","311758.787638","312525.499696","313292.287731","314059.213695","314808.761046","300992.846456","304858.964139","305625.658079","306392.325136","307158.943391","307925.565738","308692.217014","309458.854556","310225.533886","314064.829285"
"Blocked","Female","done","22","F_gnash.wav","None","743.412485974","406","304092.393515","310992.276335","311758.787638","312525.499696","313292.287731","314059.213695","314808.761046","315575.406478","304858.964139","305625.658079","306392.325136","307158.943391","307925.565738","308692.217014","309458.854556","310225.533886","314813.846842"
"Blocked","Female","cave","12","F_cad.wav","None","742.533196185","406","318691.975641","310992.276335","311758.787638","312525.499696","313292.287731","314059.213695","314808.761046","315575.406478","304858.964139","305625.658079","306392.325136","307158.943391","307925.565738","308692.217014","309458.854556","310225.533886","315580.541367"
"Blocked","Female","cave","12","F_cad.wav","None","742.972694969","406","318691.975641","310992.276335","311758.787638","312525.499696","313292.287731","314059.213695","314808.761046","315575.406478","319458.584545","305625.658079","306392.325136","307158.943391","307925.565738","308692.217014","309458.854556","310225.533886","318697.108192"
"Blocked","Female","cave","12","F_cave.wav","None","742.555404901","406","318691.975641","310992.276335","311758.787638","312525.499696","313292.287731","314059.213695","314808.761046","315575.406478","319458.584545","320225.224717","306392.325136","307158.943391","307925.565738","308692.217014","309458.854556","310225.533886","319463.71505"
"Blocked","Female","cave","12","F_dime.wav","space","458.517918926","406","318691.975641","310992.276335","311758.787638","312525.499696","313292.287731","314059.213695","314808.761046","315575.406478","319458.584545","320225.224717","320991.873364","307158.943391","307925.565738","308692.217014","309458.854556","310225.533886","320230.29298"
"Blocked","Female","cave","12","F_lash.wav","None","739.495569946","406","318691.975641","310992.276335","311758.787638","312525.499696","313292.287731","314059.213695","314808.761046","315575.406478","319458.584545","320225.224717","320991.873364","321758.54568","307925.565738","308692.217014","309458.854556","310225.533886","320997.172772"
"Blocked","Female","cave","12","F_lash.wav","None","739.014283711","406","318691.975641","310992.276335","311758.787638","312525.499696","313292.287731","314059.213695","314808.761046","315575.406478","319458.584545","320225.224717","320991.873364","321758.54568","322525.161305","308692.217014","309458.854556","310225.533886","321763.520724"
"Blocked","Female","cave","12","F_cling.wav","None","738.400914064","406","318691.975641","310992.276335","311758.787638","312525.499696","313292.287731","314059.213695","314808.761046","315575.406478","319458.584545","320225.224717","320991.873364","321758.54568","322525.161305","323291.821056","309458.854556","310225.533886","322530.138103"
"Blocked","Female","cave","12","F_park.wav","None","737.585328221","406","318691.975641","310992.276335","311758.787638","312525.499696","313292.287731","314059.213695","314808.761046","315575.406478","319458.584545","320225.224717","320991.873364","321758.54568","322525.161305","323291.821056","324058.511782","310225.533886","323296.955653"
"Blocked","Female","cave","12","F_lash.wav","None","736.916436787","406","318691.975641","310992.276335","311758.787638","312525.499696","313292.287731","314059.213695","314808.761046","315575.406478","319458.584545","320225.224717","320991.873364","321758.54568","322525.161305","323291.821056","324058.511782","324825.115719","324063.520724"
"Blocked","Female","cave","12","F_cave.wav","None","736.21189452","406","318691.975641","325591.797971","311758.787638","312525.499696","313292.287731","314059.213695","314808.761046","315575.406478","319458.584545","320225.224717","320991.873364","321758.54568","322525.161305","323291.821056","324058.511782","324825.115719","324830.247686"
"Blocked","Female","cave","12","F_lash.wav","space","715.553113896","406","318691.975641","325591.797971","326358.406583","312525.499696","313292.287731","314059.213695","314808.761046","315575.406478","319458.584545","320225.224717","320991.873364","321758.54568","322525.161305","323291.821056","324058.511782","324825.115719","325596.9013"
"Blocked","Female","cave","12","F_depth.wav","None","733.312488311","406","318691.975641","325591.797971","326358.406583","327125.068672","313292.287731","314059.213695","314808.761046","315575.406478","319458.584545","320225.224717","320991.873364","321758.54568","322525.161305","323291.821056","324058.511782","324825.115719","326363.338087"
"Blocked","Female","cave","12","F_cave.wav","None","732.111172153","406","318691.975641","325591.797971","326358.406583","327125.068672","327891.706798","314059.213695","314808.761046","315575.406478","319458.584545","320225.224717","320991.873364","321758.54568","322525.161305","323291.821056","324058.511782","324825.115719","327130.346456"
"Blocked","Female","cave","12","F_lash.wav","space","567.379196278","406","318691.975641","325591.797971","326358.406583","327125.068672","327891.706798","328658.383498","314808.761046","315575.406478","319458.584545","320225.224717","320991.873364","321758.54568","322525.161305","323291.821056","324058.511782","324825.115719","327896.908313"
"Blocked","Female","cave","12","F_cave.wav","None","732.913023658","406","318691.975641","325591.797971","326358.406583","327125.068672","327891.706798","328658.383498","329425.178546","315575.406478","319458.584545","320225.224717","320991.873364","321758.54568","322525.161305","323291.821056","324058.511782","324825.115719","328659.981356"
"Blocked","Female","cave","12","F_gnash.wav","space","569.382656162","406","318691.975641","325591.797971","326358.406583","327125.068672","327891.706798","328658.383498","329425.178546","330174.974869","319458.584545","320225.224717","320991.873364","321758.54568","322525.161305","323291.821056","324058.511782","324825.115719","329430.839431"
"Blocked","Female","cave","10","F_priest.wav","None","743.388816159","406","333291.539064","325591.797971","326358.406583","327125.068672","327891.706798","328658.383498","329425.178546","330174.974869","319458.584545","320225.224717","320991.873364","321758.54568","322525.161305","323291.821056","324058.511782","324825.115719","330179.949037"
"Blocked","Female","cave","10","F_cling.wav","None","741.564487096","406","333291.539064","325591.797971","326358.406583","327125.068672","327891.706798","328658.383498","329425.178546","330174.974869","334058.173684","320225.224717","320991.873364","321758.54568","322525.161305","323291.821056","324058.511782","324825.115719","333297.619869"
"Blocked","Female","cave","10","F_jolt.wav","None","745.259315971","406","333291.539064","325591.797971","326358.406583","327125.068672","327891.706798","328658.383498","329425.178546","330174.974869","334058.173684","334824.823499","320991.873364","321758.54568","322525.161305","323291.821056","324058.511782","324825.115719","334059.786446"
"Blocked","Female","cave","10","F_cave.wav","None","741.781898729","406","333291.539064","325591.797971","326358.406583","327125.068672","327891.706798","328658.383498","329425.178546","330174.974869","334058.173684","334824.823499","335591.516855","321758.54568","322525.161305","323291.821056","324058.511782","324825.115719","334829.650096"
"Blocked","Female","cave","10","F_gnash.wav","space","555.220801384","406","333291.539064","325591.797971","326358.406583","327125.068672","327891.706798","328658.383498","329425.178546","330174.974869","334058.173684","334824.823499","335591.516855","336358.134526","322525.161305","323291.821056","324058.511782","324825.115719","335596.665478"
"Blocked","Female","cave","10","F_jolt.wav","None","738.503191042","406","333291.539064","325591.797971","326358.406583","327125.068672","327891.706798","328658.383498","329425.178546","330174.974869","334058.173684","334824.823499","335591.516855","336358.134526","337124.79866","323291.821056","324058.511782","324825.115719","336363.193438"
"Blocked","Female","cave","10","F_lash.wav","None","737.625070133","406","333291.539064","325591.797971","326358.406583","327125.068672","327891.706798","328658.383498","329425.178546","330174.974869","334058.173684","334824.823499","335591.516855","336358.134526","337124.79866","337891.434449","324058.511782","324825.115719","337129.966862"
"Blocked","Female","cave","10","F_park.wav","None","737.205150084","406","333291.539064","325591.797971","326358.406583","327125.068672","327891.706798","328658.383498","329425.178546","330174.974869","334058.173684","334824.823499","335591.516855","336358.134526","337124.79866","337891.434449","338658.078712","324825.115719","337896.557065"
"Blocked","Female","cave","10","F_bluff.wav","None","736.480152423","406","333291.539064","325591.797971","326358.406583","327125.068672","327891.706798","328658.383498","329425.178546","330174.974869","334058.173684","334824.823499","335591.516855","336358.134526","337124.79866","337891.434449","338658.078712","339424.710702","338663.208049"
"Blocked","Female","cave","10","F_cave.wav","None","735.938961099","406","333291.539064","340191.377466","326358.406583","327125.068672","327891.706798","328658.383498","329425.178546","330174.974869","334058.173684","334824.823499","335591.516855","336358.134526","337124.79866","337891.434449","338658.078712","339424.710702","339429.757341"
"Blocked","Female","cave","10","F_reek.wav","space","523.148202263","406","333291.539064","340191.377466","340957.970007","327125.068672","327891.706798","328658.383498","329425.178546","330174.974869","334058.173684","334824.823499","335591.516855","336358.134526","337124.79866","337891.434449","338658.078712","339424.710702","340196.398389"
"Blocked","Female","cave","10","F_cave.wav","None","732.715190761","406","333291.539064","340191.377466","340957.970007","341724.632387","327891.706798","328658.383498","329425.178546","330174.974869","334058.173684","334824.823499","335591.516855","336358.134526","337124.79866","337891.434449","338658.078712","339424.710702","340963.250421"
"Blocked","Female","cave","10","F_gnash.wav","space","629.793575837","406","333291.539064","340191.377466","340957.970007","341724.632387","342491.332172","328658.383498","329425.178546","330174.974869","334058.173684","334824.823499","335591.516855","336358.134526","337124.79866","337891.434449","338658.078712","339424.710702","341729.675811"
"Blocked","Female","cave","10","F_romp.wav","None","729.614737235","406","333291.539064","340191.377466","340957.970007","341724.632387","342491.332172","343257.9402","329425.178546","330174.974869","334058.173684","334824.823499","335591.516855","336358.134526","337124.79866","337891.434449","338658.078712","339424.710702","342496.550051"
"Blocked","Female","cave","10","F_cave.wav","None","729.107735646","406","333291.539064","340191.377466","340957.970007","341724.632387","342491.332172","343257.9402","344024.870839","330174.974869","334058.173684","334824.823499","335591.516855","336358.134526","337124.79866","337891.434449","338658.078712","339424.710702","343263.067199"
"Blocked","Female","cave","10","F_bluff.wav","space","665.021858051","406","333291.539064","340191.377466","340957.970007","341724.632387","342491.332172","343257.9402","344024.870839","344774.551442","334058.173684","334824.823499","335591.516855","336358.134526","337124.79866","337891.434449","338658.078712","339424.710702","344030.357268"
"Blocked","Female","tile","18","F_romp.wav","None","743.225757434","406","347891.124696","340191.377466","340957.970007","341724.632387","342491.332172","343257.9402","344024.870839","344774.551442","334058.173684","334824.823499","335591.516855","336358.134526","337124.79866","337891.434449","338658.078712","339424.710702","344779.51509"
"Blocked","Female","tile","18","F_park.wav","None","743.034061155","406","347891.124696","340191.377466","340957.970007","341724.632387","342491.332172","343257.9402","344024.870839","344774.551442","348657.792921","334824.823499","335591.516855","336358.134526","337124.79866","337891.434449","338658.078712","339424.710702","347896.271274"
"Blocked","Female","tile","18","F_bluff.wav","None","742.138991491","406","347891.124696","340191.377466","340957.970007","341724.632387","342491.332172","343257.9402","344024.870839","344774.551442","348657.792921","349424.421697","335591.516855","336358.134526","337124.79866","337891.434449","338658.078712","339424.710702","348663.265032"
"Blocked","Female","tile","18","F_tile.wav","None","742.353480924","406","347891.124696","340191.377466","340957.970007","341724.632387","342491.332172","343257.9402","344024.870839","344774.551442","348657.792921","349424.421697","350191.107455","336358.134526","337124.79866","337891.434449","338658.078712","339424.710702","349429.46629"
"Blocked","Female","tile","18","F_depth.wav","space","618.942280718","406","347891.124696","340191.377466","340957.970007","341724.632387","342491.332172","343257.9402","344024.870839","344774.551442","348657.792921","349424.421697","350191.107455","350957.845813","337124.79866","337891.434449","338658.078712","339424.710702","350196.024348"
"Blocked","Female","tile","18","F_tile.wav","None","739.485634468","406","347891.124696","340191.377466","340957.970007","341724.632387","342491.332172","343257.9402","344024.870839","344774.551442","348657.792921","349424.421697","350191.107455","350957.845813","351724.356824","337891.434449","338658.078712","339424.710702","350962.983916"
"Blocked","Female","tile","18","F_depth.wav","space","613.296299327","406","347891.124696","340191.377466","340957.970007","341724.632387","342491.332172","343257.9402","344024.870839","344774.551442","348657.792921","349424.421697","350191.107455","350957.845813","351724.356824","352491.02125","338658.078712","339424.710702","351729.605386"
"Blocked","Female","tile","18","F_bluff.wav","None","737.258334113","406","347891.124696","340191.377466","340957.970007","341724.632387","342491.332172","343257.9402","344024.870839","344774.551442","348657.792921","349424.421697","350191.107455","350957.845813","351724.356824","352491.02125","353257.730386","339424.710702","352496.175133"
"Blocked","Female","tile","18","F_tile.wav","None","737.030987002","406","347891.124696","340191.377466","340957.970007","341724.632387","342491.332172","343257.9402","344024.870839","344774.551442","348657.792921","349424.421697","350191.107455","350957.845813","351724.356824","352491.02125","353257.730386","354024.296042","353262.652831"
"Blocked","Female","tile","18","F_greet.wav","space","521.489854124","406","347891.124696","354790.999626","340957.970007","341724.632387","342491.332172","343257.9402","344024.870839","344774.551442","348657.792921","349424.421697","350191.107455","350957.845813","351724.356824","352491.02125","353257.730386","354024.296042","354029.288035"
"Blocked","Female","tile","18","F_dime.wav","None","734.325614831","406","347891.124696","354790.999626","355557.569665","341724.632387","342491.332172","343257.9402","344024.870839","344774.551442","348657.792921","349424.421697","350191.107455","350957.845813","351724.356824","352491.02125","353257.730386","354024.296042","354796.309847"
"Blocked","Female","tile","18","F_jolt.wav","None","734.361557883","406","347891.124696","354790.999626","355557.569665","356324.259515","342491.332172","343257.9402","344024.870839","344774.551442","348657.792921","349424.421697","350191.107455","350957.845813","351724.356824","352491.02125","353257.730386","354024.296042","355562.604907"
"Blocked","Female","tile","18","F_romp.wav","None","733.760461473","406","347891.124696","354790.999626","355557.569665","356324.259515","357090.879231","343257.9402","344024.870839","344774.551442","348657.792921","349424.421697","350191.107455","350957.845813","351724.356824","352491.02125","353257.730386","354024.296042","356329.346479"
"Blocked","Female","tile","18","F_greet.wav","None","733.555615298","406","347891.124696","354790.999626","355557.569665","356324.259515","357090.879231","357857.587783","344024.870839","344774.551442","348657.792921","349424.421697","350191.107455","350957.845813","351724.356824","352491.02125","353257.730386","354024.296042","357095.889634"
"Blocked","Female","tile","18","F_tile.wav","None","732.926757995","406","347891.124696","354790.999626","355557.569665","356324.259515","357090.879231","357857.587783","358624.197564","344774.551442","348657.792921","349424.421697","350191.107455","350957.845813","351724.356824","352491.02125","353257.730386","354024.296042","357862.641434"
"Blocked","Female","tile","18","F_reek.wav","space","673.165151019","406","347891.124696","354790.999626","355557.569665","356324.259515","357090.879231","357857.587783","358624.197564","359390.840951","348657.792921","349424.421697","350191.107455","350957.845813","351724.356824","352491.02125","353257.730386","354024.296042","358629.31229"
"Blocked","Female","done","21","F_greet.wav","None","730.389120067","406","362474.047363","354790.999626","355557.569665","356324.259515","357090.879231","357857.587783","358624.197564","359390.840951","348657.792921","349424.421697","350191.107455","350957.845813","351724.356824","352491.02125","353257.730386","354024.296042","359396.075194"
"Blocked","Female","done","21","F_jaw.wav","None","742.413970451","406","362474.047363","354790.999626","355557.569665","356324.259515","357090.879231","357857.587783","358624.197564","359390.840951","363240.749778","349424.421697","350191.107455","350957.845813","351724.356824","352491.02125","353257.730386","354024.296042","362479.056889"
"Blocked","Female","done","21","F_reek.wav","None","741.515394146","406","362474.047363","354790.999626","355557.569665","356324.259515","357090.879231","357857.587783","358624.197564","359390.840951","363240.749778","364007.369787","350191.107455","350957.845813","351724.356824","352491.02125","353257.730386","354024.296042","363246.008568"
"Blocked","Female","done","21","F_greet.wav","None","741.472145595","406","362474.047363","354790.999626","355557.569665","356324.259515","357090.879231","357857.587783","358624.197564","359390.840951","363240.749778","364007.369787","364774.004114","350957.845813","351724.356824","352491.02125","353257.730386","354024.296042","364012.340156"
"Blocked","Female","done","21","F_gnash.wav","None","741.102779596","406","362474.047363","354790.999626","355557.569665","356324.259515","357090.879231","357857.587783","358624.197564","359390.840951","363240.749778","364007.369787","364774.004114","365540.745395","351724.356824","352491.02125","353257.730386","354024.296042","364779.086988"
"Blocked","Female","done","21","F_done.wav","None","740.727861417","406","362474.047363","354790.999626","355557.569665","356324.259515","357090.879231","357857.587783","358624.197564","359390.840951","363240.749778","364007.369787","364774.004114","365540.745395","366307.321278","352491.02125","353257.730386","354024.296042","365545.99308"
"Blocked","Female","done","21","F_jolt.wav","space","549.592645409","406","362474.047363","354790.999626","355557.569665","356324.259515","357090.879231","357857.587783","358624.197564","359390.840951","363240.749778","364007.369787","364774.004114","365540.745395","366307.321278","367073.937781","353257.730386","354024.296042","366312.397723"
"Blocked","Female","done","21","F_greet.wav","None","738.55754395","406","362474.047363","354790.999626","355557.569665","356324.259515","357090.879231","357857.587783","358624.197564","359390.840951","363240.749778","364007.369787","364774.004114","365540.745395","366307.321278","367073.937781","367840.616818","354024.296042","367078.797106"
"Blocked","Female","done","21","F_done.wav","None","738.060770058","406","362474.047363","354790.999626","355557.569665","356324.259515","357090.879231","357857.587783","358624.197564","359390.840951","363240.749778","364007.369787","364774.004114","365540.745395","366307.321278","367073.937781","367840.616818","368607.227476","367845.648261"
"Blocked","Female","done","21","F_jolt.wav","space","601.464314102","406","362474.047363","369373.931059","355557.569665","356324.259515","357090.879231","357857.587783","358624.197564","359390.840951","363240.749778","364007.369787","364774.004114","365540.745395","366307.321278","367073.937781","367840.616818","368607.227476","368612.385742"
"Blocked","Female","done","21","F_done.wav","None","735.375561062","406","362474.047363","369373.931059","370140.526814","356324.259515","357090.879231","357857.587783","358624.197564","359390.840951","363240.749778","364007.369787","364774.004114","365540.745395","366307.321278","367073.937781","367840.616818","368607.227476","369379.180791"
"Blocked","Female","done","21","F_gnash.wav","space","612.289017206","406","362474.047363","369373.931059","370140.526814","370907.185104","357090.879231","357857.587783","358624.197564","359390.840951","363240.749778","364007.369787","364774.004114","365540.745395","366307.321278","367073.937781","367840.616818","368607.227476","370145.510041"
"Blocked","Female","done","21","F_dime.wav","None","733.373270058","406","362474.047363","369373.931059","370140.526814","370907.185104","371673.812418","357857.587783","358624.197564","359390.840951","363240.749778","364007.369787","364774.004114","365540.745395","366307.321278","367073.937781","367840.616818","368607.227476","370912.273237"
"Blocked","Female","done","21","F_done.wav","None","733.163456144","406","362474.047363","369373.931059","370140.526814","370907.185104","371673.812418","372440.517171","358624.197564","359390.840951","363240.749778","364007.369787","364774.004114","365540.745395","366307.321278","367073.937781","367840.616818","368607.227476","371678.748305"
"Blocked","Female","done","21","F_jaw.wav","space","655.79179914","406","362474.047363","369373.931059","370140.526814","370907.185104","371673.812418","372440.517171","373207.104451","359390.840951","363240.749778","364007.369787","364774.004114","365540.745395","366307.321278","367073.937781","367840.616818","368607.227476","372445.863042"
"Blocked","Female","done","21","F_cling.wav","None","730.354930334","406","362474.047363","369373.931059","370140.526814","370907.185104","371673.812418","372440.517171","373207.104451","373973.803359","363240.749778","364007.369787","364774.004114","365540.745395","366307.321278","367073.937781","367840.616818","368607.227476","373212.358858"
"Blocked","Female","tile","15","F_dime.wav","None","730.080828034","406","377057.009772","369373.931059","370140.526814","370907.185104","371673.812418","372440.517171","373207.104451","373973.803359","363240.749778","364007.369787","364774.004114","365540.745395","366307.321278","367073.937781","367840.616818","368607.227476","373978.859641"
"Blocked","Female","tile","15","F_dime.wav","None","741.646016458","406","377057.009772","369373.931059","370140.526814","370907.185104","371673.812418","372440.517171","373207.104451","373973.803359","377823.645268","364007.369787","364774.004114","365540.745395","366307.321278","367073.937781","367840.616818","368607.227476","377063.003787"
"Blocked","Female","tile","15","F_depth.wav","None","742.578782495","406","377057.009772","369373.931059","370140.526814","370907.185104","371673.812418","372440.517171","373207.104451","373973.803359","377823.645268","378590.287486","364774.004114","365540.745395","366307.321278","367073.937781","367840.616818","368607.227476","377828.617391"
"Blocked","Female","tile","15","F_greet.wav","None","742.167336824","406","377057.009772","369373.931059","370140.526814","370907.185104","371673.812418","372440.517171","373207.104451","373973.803359","377823.645268","378590.287486","379356.943438","365540.745395","366307.321278","367073.937781","367840.616818","368607.227476","378595.417991"
"Blocked","Female","tile","15","F_tile.wav","None","741.91398214","406","377057.009772","369373.931059","370140.526814","370907.185104","371673.812418","372440.517171","373207.104451","373973.803359","377823.645268","378590.287486","379356.943438","380123.591208","366307.321278","367073.937781","367840.616818","368607.227476","379362.01696"
