"Condition","Talker","Target","Trial","current_stimulus","response_response","response_time_response","subject_nr","time_Audio1","time_Audio10","time_Audio11","time_Audio12","time_Audio13","time_Audio14","time_Audio15","time_Audio16","time_Audio2","time_Audio3","time_Audio4","time_Audio5","time_Audio6","time_Audio7","time_Audio8","time_Audio9","time_response"
"Blocked","Male","done","22","M_depth.wav","NA","NA","401","60619.7441322","NA","NA","NA","NA","NA","NA","NA","NA","NA","NA","NA","NA","NA","NA","NA","NA"
"Blocked","Male","done","22","M_done.wav","None","738.622416776","401","60619.7441322","NA","NA","NA","NA","NA","NA","NA","61386.4611581","NA","NA","NA","NA","NA","NA","NA","60626.8555966"
"Blocked","Male","done","22","M_priest.wav","space","658.932579016","401","60619.7441322","NA","NA","NA","NA","NA","NA","NA","61386.4611581","62153.059835","NA","NA","NA","NA","NA","NA","61391.8400505"
"Blocked","Male","done","22","M_depth.wav","None","732.194162615","401","60619.7441322","NA","NA","NA","NA","NA","NA","NA","61386.4611581","62153.059835","62920.0915817","NA","NA","NA","NA","NA","62158.5240555"
"Blocked","Male","done","22","M_priest.wav","None","727.427178792","401","60619.7441322","NA","NA","NA","NA","NA","NA","NA","61386.4611581","62153.059835","62920.0915817","63669.7298134","NA","NA","NA","NA","62925.7276276"
"Blocked","Male","done","22","M_park.wav","None","740.976832803","401","60619.7441322","NA","NA","NA","NA","NA","NA","NA","61386.4611581","62153.059835","62920.0915817","63669.7298134","64436.3118337","NA","NA","NA","63674.6969679"
"Blocked","Male","done","22","M_knife.wav","None","736.515511034","401","60619.7441322","NA","NA","NA","NA","NA","NA","NA","61386.4611581","62153.059835","62920.0915817","63669.7298134","64436.3118337","65202.9447003","NA","NA","64441.6322821"
"Blocked","Male","done","22","M_done.wav","None","732.737983916","401","60619.7441322","NA","NA","NA","NA","NA","NA","NA","61386.4611581","62153.059835","62920.0915817","63669.7298134","64436.3118337","65202.9447003","65970.0459954","NA","65207.9553955"
"Blocked","Male","done","22","M_romp.wav","space","634.889891528","401","60619.7441322","NA","NA","NA","NA","NA","NA","NA","61386.4611581","62153.059835","62920.0915817","63669.7298134","64436.3118337","65202.9447003","65970.0459954","66719.6254909","65975.6674303"
"Blocked","Male","done","22","M_done.wav","None","741.238369647","401","60619.7441322","67486.2282588","NA","NA","NA","NA","NA","NA","61386.4611581","62153.059835","62920.0915817","63669.7298134","64436.3118337","65202.9447003","65970.0459954","66719.6254909","66724.613393"
"Blocked","Male","done","22","M_cling.wav","space","655.176383954","401","60619.7441322","67486.2282588","68252.8631709","NA","NA","NA","NA","NA","61386.4611581","62153.059835","62920.0915817","63669.7298134","64436.3118337","65202.9447003","65970.0459954","66719.6254909","67491.273436"
"Blocked","Male","done","22","M_done.wav","None","732.519403404","401","60619.7441322","67486.2282588","68252.8631709","69019.5381172","NA","NA","NA","NA","61386.4611581","62153.059835","62920.0915817","63669.7298134","64436.3118337","65202.9447003","65970.0459954","66719.6254909","68258.2683631"
"Blocked","Male","done","22","M_reek.wav","space","665.905238919","401","60619.7441322","67486.2282588","68252.8631709","69019.5381172","69769.539286","NA","NA","NA","61386.4611581","62153.059835","62920.0915817","63669.7298134","64436.3118337","65202.9447003","65970.0459954","66719.6254909","69024.4593931"
"Blocked","Male","done","22","M_bluff.wav","None","741.146904806","401","60619.7441322","67486.2282588","68252.8631709","69019.5381172","69769.539286","70536.1981602","NA","NA","61386.4611581","62153.059835","62920.0915817","63669.7298134","64436.3118337","65202.9447003","65970.0459954","66719.6254909","69774.71304"
"Blocked","Male","done","22","M_greet.wav","None","737.22180662","401","60619.7441322","67486.2282588","68252.8631709","69019.5381172","69769.539286","70536.1981602","71302.8281045","NA","61386.4611581","62153.059835","62920.0915817","63669.7298134","64436.3118337","65202.9447003","65970.0459954","66719.6254909","70541.3312956"
"Blocked","Male","done","22","M_gnash.wav","None","732.723372919","401","60619.7441322","67486.2282588","68252.8631709","69019.5381172","69769.539286","70536.1981602","71302.8281045","72069.4931153","61386.4611581","62153.059835","62920.0915817","63669.7298134","64436.3118337","65202.9447003","65970.0459954","66719.6254909","71308.2449855"
"Blocked","Male","done","19","M_lash.wav","None","729.149230877","401","75186.022536","67486.2282588","68252.8631709","69019.5381172","69769.539286","70536.1981602","71302.8281045","72069.4931153","61386.4611581","62153.059835","62920.0915817","63669.7298134","64436.3118337","65202.9447003","65970.0459954","66719.6254909","72074.5607934"
"Blocked","Male","done","19","M_cling.wav","None","740.34885216","401","75186.022536","67486.2282588","68252.8631709","69019.5381172","69769.539286","70536.1981602","71302.8281045","72069.4931153","75952.6966056","62153.059835","62920.0915817","63669.7298134","64436.3118337","65202.9447003","65970.0459954","66719.6254909","75191.0387834"
"Blocked","Male","done","19","M_done.wav","None","735.956202076","401","75186.022536","67486.2282588","68252.8631709","69019.5381172","69769.539286","70536.1981602","71302.8281045","72069.4931153","75952.6966056","76719.2964513","62920.0915817","63669.7298134","64436.3118337","65202.9447003","65970.0459954","66719.6254909","75958.0871867"
"Blocked","Male","done","19","M_cling.wav","space","541.562733776","401","75186.022536","67486.2282588","68252.8631709","69019.5381172","69769.539286","70536.1981602","71302.8281045","72069.4931153","75952.6966056","76719.2964513","77486.3948242","63669.7298134","64436.3118337","65202.9447003","65970.0459954","66719.6254909","76724.317082"
"Blocked","Male","done","19","M_done.wav","None","727.0212853","401","75186.022536","67486.2282588","68252.8631709","69019.5381172","69769.539286","70536.1981602","71302.8281045","72069.4931153","75952.6966056","76719.2964513","77486.3948242","78235.9500655","64436.3118337","65202.9447003","65970.0459954","66719.6254909","77491.8423883"
"Blocked","Male","done","19","M_gnash.wav","space","432.920036937","401","75186.022536","67486.2282588","68252.8631709","69019.5381172","69769.539286","70536.1981602","71302.8281045","72069.4931153","75952.6966056","76719.2964513","77486.3948242","78235.9500655","79002.6253039","65202.9447003","65970.0459954","66719.6254909","78240.8678348"
"Blocked","Male","done","19","M_done.wav","None","735.9389611","401","75186.022536","67486.2282588","68252.8631709","69019.5381172","69769.539286","70536.1981602","71302.8281045","72069.4931153","75952.6966056","76719.2964513","77486.3948242","78235.9500655","79002.6253039","79769.2263185","65970.0459954","66719.6254909","79007.7698359"
"Blocked","Male","done","19","M_dime.wav","space","466.895280064","401","75186.022536","67486.2282588","68252.8631709","69019.5381172","69769.539286","70536.1981602","71302.8281045","72069.4931153","75952.6966056","76719.2964513","77486.3948242","78235.9500655","79002.6253039","79769.2263185","80536.0123083","66719.6254909","79774.7028123"
"Blocked","Male","done","19","M_gnash.wav","None","727.891516271","401","75186.022536","67486.2282588","68252.8631709","69019.5381172","69769.539286","70536.1981602","71302.8281045","72069.4931153","75952.6966056","76719.2964513","77486.3948242","78235.9500655","79002.6253039","79769.2263185","80536.0123083","81285.9138302","80540.8263395"
"Blocked","Male","done","19","M_bluff.wav","None","740.366969796","401","75186.022536","82052.4908827","68252.8631709","69019.5381172","69769.539286","70536.1981602","71302.8281045","72069.4931153","75952.6966056","76719.2964513","77486.3948242","78235.9500655","79002.6253039","79769.2263185","80536.0123083","81285.9138302","81290.9607607"
"Blocked","Male","done","19","M_greet.wav","None","736.529537591","401","75186.022536","82052.4908827","82819.1637834","69019.5381172","69769.539286","70536.1981602","71302.8281045","72069.4931153","75952.6966056","76719.2964513","77486.3948242","78235.9500655","79002.6253039","79769.2263185","80536.0123083","81285.9138302","82057.437874"
"Blocked","Male","done","19","M_cling.wav","None","732.104451094","401","75186.022536","82052.4908827","82819.1637834","83586.2422854","69769.539286","70536.1981602","71302.8281045","72069.4931153","75952.6966056","76719.2964513","77486.3948242","78235.9500655","79002.6253039","79769.2263185","80536.0123083","81285.9138302","82824.5514424"
"Blocked","Male","done","19","M_done.wav","None","727.564229942","401","75186.022536","82052.4908827","82819.1637834","83586.2422854","84335.7694735","70536.1981602","71302.8281045","72069.4931153","75952.6966056","76719.2964513","77486.3948242","78235.9500655","79002.6253039","79769.2263185","80536.0123083","81285.9138302","83591.727838"
"Blocked","Male","done","19","M_knife.wav","space","348.57601225","401","75186.022536","82052.4908827","82819.1637834","83586.2422854","84335.7694735","85102.4134445","71302.8281045","72069.4931153","75952.6966056","76719.2964513","77486.3948242","78235.9500655","79002.6253039","79769.2263185","80536.0123083","81285.9138302","84340.844165"
"Blocked","Male","done","19","M_romp.wav","None","737.068098934","401","75186.022536","82052.4908827","82819.1637834","83586.2422854","84335.7694735","85102.4134445","85869.099495","72069.4931153","75952.6966056","76719.2964513","77486.3948242","78235.9500655","79002.6253039","79769.2263185","80536.0123083","81285.9138302","85107.3300449"
"Blocked","Male","done","19","M_knife.wav","None","732.62898588","401","75186.022536","82052.4908827","82819.1637834","83586.2422854","84335.7694735","85102.4134445","85869.099495","86635.7244717","75952.6966056","76719.2964513","77486.3948242","78235.9500655","79002.6253039","79769.2263185","80536.0123083","81285.9138302","85874.3311086"
"Blocked","Male","tile","13","M_greet.wav","None","729.084650271","401","89718.9866981","82052.4908827","82819.1637834","83586.2422854","84335.7694735","85102.4134445","85869.099495","86635.7244717","75952.6966056","76719.2964513","77486.3948242","78235.9500655","79002.6253039","79769.2263185","80536.0123083","81285.9138302","86640.9423509"
"Blocked","Male","tile","13","M_tile.wav","None","740.517170843","401","89718.9866981","82052.4908827","82819.1637834","83586.2422854","84335.7694735","85102.4134445","85869.099495","86635.7244717","90485.5929727","76719.2964513","77486.3948242","78235.9500655","79002.6253039","79769.2263185","80536.0123083","81285.9138302","89724.15227"
"Blocked","Male","tile","13","M_lash.wav","space","470.511501777","401","89718.9866981","82052.4908827","82819.1637834","83586.2422854","84335.7694735","85102.4134445","85869.099495","86635.7244717","90485.5929727","91252.3260707","77486.3948242","78235.9500655","79002.6253039","79769.2263185","80536.0123083","81285.9138302","90490.5624649"
"Blocked","Male","tile","13","M_tile.wav","None","735.822949785","401","89718.9866981","82052.4908827","82819.1637834","83586.2422854","84335.7694735","85102.4134445","85869.099495","86635.7244717","90485.5929727","91252.3260707","92018.9352674","78235.9500655","79002.6253039","79769.2263185","80536.0123083","81285.9138302","91254.1916028"
"Blocked","Male","tile","13","M_lash.wav","space","432.965915467","401","89718.9866981","82052.4908827","82819.1637834","83586.2422854","84335.7694735","85102.4134445","85869.099495","86635.7244717","90485.5929727","91252.3260707","92018.9352674","92768.8858823","79002.6253039","79769.2263185","80536.0123083","81285.9138302","92024.0289532"
"Blocked","Male","tile","13","M_tile.wav","None","741.319606789","401","89718.9866981","82052.4908827","82819.1637834","83586.2422854","84335.7694735","85102.4134445","85869.099495","86635.7244717","90485.5929727","91252.3260707","92018.9352674","92768.8858823","93535.5432953","79769.2263185","80536.0123083","81285.9138302","92773.9307673"
"Blocked","Male","tile","13","M_jolt.wav","space","388.398284085","401","89718.9866981","82052.4908827","82819.1637834","83586.2422854","84335.7694735","85102.4134445","85869.099495","86635.7244717","90485.5929727","91252.3260707","92018.9352674","92768.8858823","93535.5432953","94302.2167804","80536.0123083","81285.9138302","93540.5168786"
"Blocked","Male","tile","13","M_cad.wav","None","733.18011268","401","89718.9866981","82052.4908827","82819.1637834","83586.2422854","84335.7694735","85102.4134445","85869.099495","86635.7244717","90485.5929727","91252.3260707","92018.9352674","92768.8858823","93535.5432953","94302.2167804","95068.8385426","81285.9138302","94307.3306293"
"Blocked","Male","tile","13","M_tile.wav","space","310.70986067","401","89718.9866981","82052.4908827","82819.1637834","83586.2422854","84335.7694735","85102.4134445","85869.099495","86635.7244717","90485.5929727","91252.3260707","92018.9352674","92768.8858823","93535.5432953","94302.2167804","95068.8385426","95818.7958785","95074.1081448"
"Blocked","Male","tile","13","M_dime.wav","None","742.109185057","401","89718.9866981","96585.4088741","82819.1637834","83586.2422854","84335.7694735","85102.4134445","85869.099495","86635.7244717","90485.5929727","91252.3260707","92018.9352674","92768.8858823","93535.5432953","94302.2167804","95068.8385426","95818.7958785","95823.7612797"
"Blocked","Male","tile","13","M_greet.wav","None","738.432181597","401","89718.9866981","96585.4088741","97352.1326211","83586.2422854","84335.7694735","85102.4134445","85869.099495","86635.7244717","90485.5929727","91252.3260707","92018.9352674","92768.8858823","93535.5432953","94302.2167804","95068.8385426","95818.7958785","96590.452298"
"Blocked","Male","tile","13","M_priest.wav","None","734.086578923","401","89718.9866981","96585.4088741","97352.1326211","98118.7429867","84335.7694735","85102.4134445","85869.099495","86635.7244717","90485.5929727","91252.3260707","92018.9352674","92768.8858823","93535.5432953","94302.2167804","95068.8385426","95818.7958785","97357.3662802"
"Blocked","Male","tile","13","M_knife.wav","None","730.65387133","401","89718.9866981","96585.4088741","97352.1326211","98118.7429867","98868.7736698","85102.4134445","85869.099495","86635.7244717","90485.5929727","91252.3260707","92018.9352674","92768.8858823","93535.5432953","94302.2167804","95068.8385426","95818.7958785","98123.666016"
"Blocked","Male","tile","13","M_bluff.wav","None","743.286831401","401","89718.9866981","96585.4088741","97352.1326211","98118.7429867","98868.7736698","99635.383451","85869.099495","86635.7244717","90485.5929727","91252.3260707","92018.9352674","92768.8858823","93535.5432953","94302.2167804","95068.8385426","95818.7958785","98873.8261525"
"Blocked","Male","tile","13","M_dime.wav","None","739.524791939","401","89718.9866981","96585.4088741","97352.1326211","98118.7429867","98868.7736698","99635.383451","100402.004337","86635.7244717","90485.5929727","91252.3260707","92018.9352674","92768.8858823","93535.5432953","94302.2167804","95068.8385426","95818.7958785","99640.4710001"
"Blocked","Male","tile","13","M_jolt.wav","None","735.836976342","401","89718.9866981","96585.4088741","97352.1326211","98118.7429867","98868.7736698","99635.383451","100402.004337","101168.71581","90485.5929727","91252.3260707","92018.9352674","92768.8858823","93535.5432953","94302.2167804","95068.8385426","95818.7958785","100406.975582"
"Blocked","Male","ball","2","M_priest.wav","None","731.676933327","401","104268.564733","96585.4088741","97352.1326211","98118.7429867","98868.7736698","99635.383451","100402.004337","101168.71581","90485.5929727","91252.3260707","92018.9352674","92768.8858823","93535.5432953","94302.2167804","95068.8385426","95818.7958785","101174.015219"
"Blocked","Male","ball","2","M_greet.wav","None","740.94819525","401","104268.564733","96585.4088741","97352.1326211","98118.7429867","98868.7736698","99635.383451","100402.004337","101168.71581","105035.244647","91252.3260707","92018.9352674","92768.8858823","93535.5432953","94302.2167804","95068.8385426","95818.7958785","104273.508509"
"Blocked","Male","ball","2","M_ball.wav","None","736.846596222","401","104268.564733","96585.4088741","97352.1326211","98118.7429867","98868.7736698","99635.383451","100402.004337","101168.71581","105035.244647","105801.866117","92018.9352674","92768.8858823","93535.5432953","94302.2167804","95068.8385426","95818.7958785","105040.185209"
"Blocked","Male","ball","2","M_greet.wav","None","732.636875818","401","104268.564733","96585.4088741","97352.1326211","98118.7429867","98868.7736698","99635.383451","100402.004337","101168.71581","105035.244647","105801.866117","106568.505996","92768.8858823","93535.5432953","94302.2167804","95068.8385426","95818.7958785","105807.423847"
"Blocked","Male","ball","2","M_ball.wav","space","0.0204553955409","401","104268.564733","96585.4088741","97352.1326211","98118.7429867","98868.7736698","99635.383451","100402.004337","101168.71581","105035.244647","105801.866117","106568.505996","107318.467716","93535.5432953","94302.2167804","95068.8385426","95818.7958785","106573.646437"
"Blocked","Male","ball","2","M_cad.wav","space","356.463320554","401","104268.564733","96585.4088741","97352.1326211","98118.7429867","98868.7736698","99635.383451","100402.004337","101168.71581","105035.244647","105801.866117","106568.505996","107318.467716","108085.118408","94302.2167804","95068.8385426","95818.7958785","107323.623644"
"Blocked","Male","ball","2","M_priest.wav","None","738.042944642","401","104268.564733","96585.4088741","97352.1326211","98118.7429867","98868.7736698","99635.383451","100402.004337","101168.71581","105035.244647","105801.866117","106568.505996","107318.467716","108085.118408","108851.82053","95068.8385426","95818.7958785","108090.049911"
"Blocked","Male","ball","2","M_park.wav","None","733.887869366","401","104268.564733","96585.4088741","97352.1326211","98118.7429867","98868.7736698","99635.383451","100402.004337","101168.71581","105035.244647","105801.866117","106568.505996","107318.467716","108085.118408","108851.82053","109618.43148","95818.7958785","108856.935548"
"Blocked","Male","ball","2","M_ball.wav","None","729.953127922","401","104268.564733","96585.4088741","97352.1326211","98118.7429867","98868.7736698","99635.383451","100402.004337","101168.71581","105035.244647","105801.866117","106568.505996","107318.467716","108085.118408","108851.82053","109618.43148","110368.367484","109623.722122"
"Blocked","Male","ball","2","M_cad.wav","space","562.344246774","401","104268.564733","111135.038631","97352.1326211","98118.7429867","98868.7736698","99635.383451","100402.004337","101168.71581","105035.244647","105801.866117","106568.505996","107318.467716","108085.118408","108851.82053","109618.43148","110368.367484","110373.539777"
"Blocked","Male","ball","2","M_ball.wav","None","738.778170002","401","104268.564733","111135.038631","111901.690492","98118.7429867","98868.7736698","99635.383451","100402.004337","101168.71581","105035.244647","105801.866117","106568.505996","107318.467716","108085.118408","108851.82053","109618.43148","110368.367484","111140.179657"
"Blocked","Male","ball","2","M_depth.wav","space","460.923473443","401","104268.564733","111135.038631","111901.690492","112668.361347","98868.7736698","99635.383451","100402.004337","101168.71581","105035.244647","105801.866117","106568.505996","107318.467716","108085.118408","108851.82053","109618.43148","110368.367484","111906.860447"
"Blocked","Male","ball","2","M_dime.wav","None","730.614129418","401","104268.564733","111135.038631","111901.690492","112668.361347","113418.300858","99635.383451","100402.004337","101168.71581","105035.244647","105801.866117","106568.505996","107318.467716","108085.118408","108851.82053","109618.43148","110368.367484","112673.400973"
"Blocked","Male","ball","2","M_knife.wav","None","743.053932111","401","104268.564733","111135.038631","111901.690492","112668.361347","113418.300858","114184.94366","100402.004337","101168.71581","105035.244647","105801.866117","106568.505996","107318.467716","108085.118408","108851.82053","109618.43148","110368.367484","113423.851868"
"Blocked","Male","ball","2","M_reek.wav","None","739.916366654","401","104268.564733","111135.038631","111901.690492","112668.361347","113418.300858","114184.94366","114951.576819","101168.71581","105035.244647","105801.866117","106568.505996","107318.467716","108085.118408","108851.82053","109618.43148","110368.367484","114189.998773"
"Blocked","Male","ball","2","M_reek.wav","None","736.081856649","401","104268.564733","111135.038631","111901.690492","112668.361347","113418.300858","114184.94366","114951.576819","115718.271928","105035.244647","105801.866117","106568.505996","107318.467716","108085.118408","108851.82053","109618.43148","110368.367484","114956.670797"
"Blocked","Male","tile","15","M_dime.wav","None","732.107665513","401","118818.177541","111135.038631","111901.690492","112668.361347","113418.300858","114184.94366","114951.576819","115718.271928","105035.244647","105801.866117","106568.505996","107318.467716","108085.118408","108851.82053","109618.43148","110368.367484","115723.450065"
"Blocked","Male","tile","15","M_dime.wav","None","740.494377688","401","118818.177541","111135.038631","111901.690492","112668.361347","113418.300858","114184.94366","114951.576819","115718.271928","119584.814207","105801.866117","106568.505996","107318.467716","108085.118408","108851.82053","109618.43148","110368.367484","118823.360938"
"Blocked","Male","tile","15","M_tile.wav","None","736.827017486","401","118818.177541","111135.038631","111901.690492","112668.361347","113418.300858","114184.94366","114951.576819","115718.271928","119584.814207","120351.427202","106568.505996","107318.467716","108085.118408","108851.82053","109618.43148","110368.367484","119589.966336"
"Blocked","Male","tile","15","M_priest.wav","None","733.232127829","401","118818.177541","111135.038631","111901.690492","112668.361347","113418.300858","114184.94366","114951.576819","115718.271928","119584.814207","120351.427202","121118.128156","107318.467716","108085.118408","108851.82053","109618.43148","110368.367484","120356.529947"
"Blocked","Male","tile","15","M_cad.wav","space","12.1221596222","401","118818.177541","111135.038631","111901.690492","112668.361347","113418.300858","114184.94366","114951.576819","115718.271928","119584.814207","120351.427202","121118.128156","121868.137799","108085.118408","108851.82053","109618.43148","110368.367484","121123.12687"
"Blocked","Male","tile","15","M_depth.wav","None","742.072949785","401","118818.177541","111135.038631","111901.690492","112668.361347","113418.300858","114184.94366","114951.576819","115718.271928","119584.814207","120351.427202","121118.128156","121868.137799","122634.73969","108851.82053","109618.43148","110368.367484","121873.11898"
"Blocked","Male","tile","15","M_lash.wav","None","738.185840191","401","118818.177541","111135.038631","111901.690492","112668.361347","113418.300858","114184.94366","114951.576819","115718.271928","119584.814207","120351.427202","121118.128156","121868.137799","122634.73969","123401.375771","109618.43148","110368.367484","122639.953186"
"Blocked","Male","tile","15","M_cling.wav","None","734.287334019","401","118818.177541","111135.038631","111901.690492","112668.361347","113418.300858","114184.94366","114951.576819","115718.271928","119584.814207","120351.427202","121118.128156","121868.137799","122634.73969","123401.375771","124167.998703","110368.367484","123406.808432"
"Blocked","Male","tile","15","M_tile.wav","None","731.116163269","401","118818.177541","111135.038631","111901.690492","112668.361347","113418.300858","114184.94366","114951.576819","115718.271928","119584.814207","120351.427202","121118.128156","121868.137799","122634.73969","123401.375771","124167.998703","124934.963823","124173.042419"
"Blocked","Male","tile","15","M_cad.wav","space","426.534154666","401","118818.177541","125684.659038","111901.690492","112668.361347","113418.300858","114184.94366","114951.576819","115718.271928","119584.814207","120351.427202","121118.128156","121868.137799","122634.73969","123401.375771","124167.998703","124934.963823","124940.48415"
"Blocked","Male","tile","15","M_tile.wav","None","739.862598186","401","118818.177541","125684.659038","126451.2808","112668.361347","113418.300858","114184.94366","114951.576819","115718.271928","119584.814207","120351.427202","121118.128156","121868.137799","122634.73969","123401.375771","124167.998703","124934.963823","125689.756522"
"Blocked","Male","tile","15","M_park.wav","space","470.601797737","401","118818.177541","125684.659038","126451.2808","127217.973864","113418.300858","114184.94366","114951.576819","115718.271928","119584.814207","120351.427202","121118.128156","121868.137799","122634.73969","123401.375771","124167.998703","124934.963823","126456.34088"
"Blocked","Male","tile","15","M_jaw.wav","None","732.210234711","401","118818.177541","125684.659038","126451.2808","127217.973864","127984.932556","114184.94366","114951.576819","115718.271928","119584.814207","120351.427202","121118.128156","121868.137799","122634.73969","123401.375771","124167.998703","124934.963823","127222.904199"
"Blocked","Male","tile","15","M_tile.wav","None","727.452601926","401","118818.177541","125684.659038","126451.2808","127217.973864","127984.932556","128734.552085","114951.576819","115718.271928","119584.814207","120351.427202","121118.128156","121868.137799","122634.73969","123401.375771","124167.998703","124934.963823","127990.567725"
"Blocked","Male","tile","15","M_greet.wav","space","466.798555265","401","118818.177541","125684.659038","126451.2808","127217.973864","127984.932556","128734.552085","129501.196641","115718.271928","119584.814207","120351.427202","121118.128156","121868.137799","122634.73969","123401.375771","124167.998703","124934.963823","128739.871073"
"Blocked","Male","tile","15","M_park.wav","None","737.140861698","401","118818.177541","125684.659038","126451.2808","127217.973864","127984.932556","128734.552085","129501.196641","130267.854346","119584.814207","120351.427202","121118.128156","121868.137799","122634.73969","123401.375771","124167.998703","124934.963823","129506.262273"
"Blocked","Male","tile","16","M_bluff.wav","None","733.464150458","401","133367.762881","125684.659038","126451.2808","127217.973864","127984.932556","128734.552085","129501.196641","130267.854346","119584.814207","120351.427202","121118.128156","121868.137799","122634.73969","123401.375771","124167.998703","124934.963823","130272.938388"
"Blocked","Male","tile","16","M_cad.wav","None","740.917804376","401","133367.762881","125684.659038","126451.2808","127217.973864","127984.932556","128734.552085","129501.196641","130267.854346","134134.414742","120351.427202","121118.128156","121868.137799","122634.73969","123401.375771","124167.998703","124934.963823","133372.930498"
"Blocked","Male","tile","16","M_tile.wav","None","737.331096877","401","133367.762881","125684.659038","126451.2808","127217.973864","127984.932556","128734.552085","129501.196641","130267.854346","134134.414742","134901.039719","121118.128156","121868.137799","122634.73969","123401.375771","124167.998703","124934.963823","134139.575054"
"Blocked","Male","tile","16","M_knife.wav","space","540.425998223","401","133367.762881","125684.659038","126451.2808","127217.973864","127984.932556","128734.552085","129501.196641","130267.854346","134134.414742","134901.039719","135667.696255","121868.137799","122634.73969","123401.375771","124167.998703","124934.963823","134905.98671"
"Blocked","Male","tile","16","M_jaw.wav","None","729.769321582","401","133367.762881","125684.659038","126451.2808","127217.973864","127984.932556","128734.552085","129501.196641","130267.854346","134134.414742","134901.039719","135667.696255","136417.711743","122634.73969","123401.375771","124167.998703","124934.963823","135672.984267"
"Blocked","Male","tile","16","M_priest.wav","None","742.948148495","401","133367.762881","125684.659038","126451.2808","127217.973864","127984.932556","128734.552085","129501.196641","130267.854346","134134.414742","134901.039719","135667.696255","136417.711743","137184.326784","123401.375771","124167.998703","124934.963823","136422.881405"
"Blocked","Male","tile","16","M_reek.wav","None","739.241338601","401","133367.762881","125684.659038","126451.2808","127217.973864","127984.932556","128734.552085","129501.196641","130267.854346","134134.414742","134901.039719","135667.696255","136417.711743","137184.326784","137950.961696","124167.998703","124934.963823","137189.554598"
"Blocked","Male","tile","16","M_romp.wav","None","735.503261174","401","133367.762881","125684.659038","126451.2808","127217.973864","127984.932556","128734.552085","129501.196641","130267.854346","134134.414742","134901.039719","135667.696255","136417.711743","137184.326784","137950.961696","138717.673754","124934.963823","137956.318087"
"Blocked","Male","tile","16","M_tile.wav","None","732.466803815","401","133367.762881","125684.659038","126451.2808","127217.973864","127984.932556","128734.552085","129501.196641","130267.854346","134134.414742","134901.039719","135667.696255","136417.711743","137184.326784","137950.961696","138717.673754","139484.827649","138722.694677"
"Blocked","Male","tile","16","M_depth.wav","space","435.947435478","401","133367.762881","140234.249345","126451.2808","127217.973864","127984.932556","128734.552085","129501.196641","130267.854346","134134.414742","134901.039719","135667.696255","136417.711743","137184.326784","137950.961696","138717.673754","139484.827649","139490.21297"
"Blocked","Male","tile","16","M_tile.wav","None","741.377174116","401","133367.762881","140234.249345","141000.96491","127217.973864","127984.932556","128734.552085","129501.196641","130267.854346","134134.414742","134901.039719","135667.696255","136417.711743","137184.326784","137950.961696","138717.673754","139484.827649","140239.269099"
"Blocked","Male","tile","16","M_dime.wav","None","737.5923415","401","133367.762881","140234.249345","141000.96491","141767.545177","127984.932556","128734.552085","129501.196641","130267.854346","134134.414742","134901.039719","135667.696255","136417.711743","137184.326784","137950.961696","138717.673754","139484.827649","141006.163795"
"Blocked","Male","tile","16","M_jolt.wav","space","265.260017299","401","133367.762881","140234.249345","141000.96491","141767.545177","142534.172784","128734.552085","129501.196641","130267.854346","134134.414742","134901.039719","135667.696255","136417.711743","137184.326784","137950.961696","138717.673754","139484.827649","141772.727113"
"Blocked","Male","tile","16","M_park.wav","None","730.279829811","401","133367.762881","140234.249345","141000.96491","141767.545177","142534.172784","143284.218662","129501.196641","130267.854346","134134.414742","134901.039719","135667.696255","136417.711743","137184.326784","137950.961696","138717.673754","139484.827649","142539.382773"
"Blocked","Male","tile","16","M_tile.wav","None","743.767533196","401","133367.762881","140234.249345","141000.96491","141767.545177","142534.172784","143284.218662","144050.790163","130267.854346","134134.414742","134901.039719","135667.696255","136417.711743","137184.326784","137950.961696","138717.673754","139484.827649","143289.197213"
"Blocked","Male","tile","16","M_reek.wav","space","589.997019357","401","133367.762881","140234.249345","141000.96491","141767.545177","142534.172784","143284.218662","144050.790163","144817.432965","134134.414742","134901.039719","135667.696255","136417.711743","137184.326784","137950.961696","138717.673754","139484.827649","144055.801735"
"Blocked","Male","tile","18","M_gnash.wav","None","737.101119787","401","147950.989457","140234.249345","141000.96491","141767.545177","142534.172784","143284.218662","144050.790163","144817.432965","134134.414742","134901.039719","135667.696255","136417.711743","137184.326784","137950.961696","138717.673754","139484.827649","144822.30807"
"Blocked","Male","tile","18","M_dime.wav","None","723.338437442","401","147950.989457","140234.249345","141000.96491","141767.545177","142534.172784","143284.218662","144050.790163","144817.432965","148700.739316","134901.039719","135667.696255","136417.711743","137184.326784","137950.961696","138717.673754","139484.827649","147956.680148"
"Blocked","Male","tile","18","M_romp.wav","None","737.357688891","401","147950.989457","140234.249345","141000.96491","141767.545177","142534.172784","143284.218662","144050.790163","144817.432965","148700.739316","149467.334779","135667.696255","136417.711743","137184.326784","137950.961696","138717.673754","139484.827649","148705.808748"
"Blocked","Male","tile","18","M_tile.wav","None","733.632176922","401","147950.989457","140234.249345","141000.96491","141767.545177","142534.172784","143284.218662","144050.790163","144817.432965","148700.739316","149467.334779","150233.977581","136417.711743","137184.326784","137950.961696","138717.673754","139484.827649","149472.60818"
"Blocked","Male","tile","18","M_cling.wav","space","310.460304844","401","147950.989457","140234.249345","141000.96491","141767.545177","142534.172784","143284.218662","144050.790163","144817.432965","148700.739316","149467.334779","150233.977581","150984.010602","137184.326784","137950.961696","138717.673754","139484.827649","150239.063377"
"Blocked","Male","tile","18","M_depth.wav","None","742.519461848","401","147950.989457","140234.249345","141000.96491","141767.545177","142534.172784","143284.218662","144050.790163","144817.432965","148700.739316","149467.334779","150233.977581","150984.010602","151750.580349","137950.961696","138717.673754","139484.827649","150989.360272"
"Blocked","Male","tile","18","M_tile.wav","None","739.79714092","401","147950.989457","140234.249345","141000.96491","141767.545177","142534.172784","143284.218662","144050.790163","144817.432965","148700.739316","149467.334779","150233.977581","150984.010602","151750.580349","152517.312278","138717.673754","139484.827649","151755.489352"
"Blocked","Male","tile","18","M_depth.wav","space","418.988159248","401","147950.989457","140234.249345","141000.96491","141767.545177","142534.172784","143284.218662","144050.790163","144817.432965","148700.739316","149467.334779","150233.977581","150984.010602","151750.580349","152517.312278","153283.903065","139484.827649","152522.403041"
"Blocked","Male","tile","18","M_cad.wav","None","731.890838321","401","147950.989457","140234.249345","141000.96491","141767.545177","142534.172784","143284.218662","144050.790163","144817.432965","148700.739316","149467.334779","150233.977581","150984.010602","151750.580349","152517.312278","153283.903065","154050.843639","153289.189031"
"Blocked","Male","tile","18","M_tile.wav","None","728.101622405","401","147950.989457","154800.523074","141000.96491","141767.545177","142534.172784","143284.218662","144050.790163","144817.432965","148700.739316","149467.334779","150233.977581","150984.010602","151750.580349","152517.312278","153283.903065","154050.843639","154056.247078"
"Blocked","Male","tile","18","M_park.wav","space","527.581470918","401","147950.989457","154800.523074","155567.157401","141767.545177","142534.172784","143284.218662","144050.790163","144817.432965","148700.739316","149467.334779","150233.977581","150984.010602","151750.580349","152517.312278","153283.903065","154050.843639","154805.725757"
"Blocked","Male","tile","18","M_dime.wav","None","737.580360483","401","147950.989457","154800.523074","155567.157401","156333.836439","142534.172784","143284.218662","144050.790163","144817.432965","148700.739316","149467.334779","150233.977581","150984.010602","151750.580349","152517.312278","153283.903065","154050.843639","155572.259269"
"Blocked","Male","tile","18","M_greet.wav","None","733.991023003","401","147950.989457","154800.523074","155567.157401","156333.836439","157100.511677","143284.218662","144050.790163","144817.432965","148700.739316","149467.334779","150233.977581","150984.010602","151750.580349","152517.312278","153283.903065","154050.843639","156338.917559"
"Blocked","Male","tile","18","M_tile.wav","None","730.793552459","401","147950.989457","154800.523074","155567.157401","156333.836439","157100.511677","157867.394099","144050.790163","144817.432965","148700.739316","149467.334779","150233.977581","150984.010602","151750.580349","152517.312278","153283.903065","154050.843639","157105.477663"
"Blocked","Male","tile","18","M_cad.wav","None","727.336298392","401","147950.989457","154800.523074","155567.157401","156333.836439","157100.511677","157867.394099","158617.107432","144817.432965","148700.739316","149467.334779","150233.977581","150984.010602","151750.580349","152517.312278","153283.903065","154050.843639","157873.040373"
"Blocked","Male","tile","18","M_dime.wav","space","134.764236955","401","147950.989457","154800.523074","155567.157401","156333.836439","157100.511677","157867.394099","158617.107432","159383.742636","148700.739316","149467.334779","150233.977581","150984.010602","151750.580349","152517.312278","153283.903065","154050.843639","158622.249334"
"Blocked","Male","cave","12","M_depth.wav","None","738.672970825","401","162483.694712","154800.523074","155567.157401","156333.836439","157100.511677","157867.394099","158617.107432","159383.742636","148700.739316","149467.334779","150233.977581","150984.010602","151750.580349","152517.312278","153283.903065","154050.843639","159388.734629"
"Blocked","Male","cave","12","M_depth.wav","None","740.510742005","401","162483.694712","154800.523074","155567.157401","156333.836439","157100.511677","157867.394099","158617.107432","159383.742636","163250.338098","149467.334779","150233.977581","150984.010602","151750.580349","152517.312278","153283.903065","154050.843639","162488.701024"
"Blocked","Male","cave","12","M_greet.wav","None","736.510543295","401","162483.694712","154800.523074","155567.157401","156333.836439","157100.511677","157867.394099","158617.107432","159383.742636","163250.338098","164016.939113","150233.977581","150984.010602","151750.580349","152517.312278","153283.903065","154050.843639","163255.652702"
"Blocked","Male","cave","12","M_romp.wav","None","733.311903871","401","162483.694712","154800.523074","155567.157401","156333.836439","157100.511677","157867.394099","158617.107432","159383.742636","163250.338098","164016.939113","164783.594481","150984.010602","151750.580349","152517.312278","153283.903065","154050.843639","164021.978154"
"Blocked","Male","cave","12","M_cave.wav","None","729.82455115","401","162483.694712","154800.523074","155567.157401","156333.836439","157100.511677","157867.394099","158617.107432","159383.742636","163250.338098","164016.939113","164783.594481","165533.550063","151750.580349","152517.312278","153283.903065","154050.843639","164788.693718"
"Blocked","Male","cave","12","M_greet.wav","space","426.036504114","401","162483.694712","154800.523074","155567.157401","156333.836439","157100.511677","157867.394099","158617.107432","159383.742636","163250.338098","164016.939113","164783.594481","165533.550063","166300.256569","152517.312278","153283.903065","154050.843639","165538.568941"
"Blocked","Male","cave","12","M_romp.wav","None","738.397115205","401","162483.694712","154800.523074","155567.157401","156333.836439","157100.511677","157867.394099","158617.107432","159383.742636","163250.338098","164016.939113","164783.594481","165533.550063","166300.256569","167066.874532","153283.903065","154050.843639","166305.536691"
"Blocked","Male","cave","12","M_cave.wav","None","734.896904806","401","162483.694712","154800.523074","155567.157401","156333.836439","157100.511677","157867.394099","158617.107432","159383.742636","163250.338098","164016.939113","164783.594481","165533.550063","166300.256569","167066.874532","167833.576071","154050.843639","167072.147057"
"Blocked","Male","cave","12","M_lash.wav","space","342.021226856","401","162483.694712","154800.523074","155567.157401","156333.836439","157100.511677","157867.394099","158617.107432","159383.742636","163250.338098","164016.939113","164783.594481","165533.550063","166300.256569","167066.874532","167833.576071","168600.506417","167838.450591"
"Blocked","Male","cave","12","M_greet.wav","None","726.28868992","401","162483.694712","169350.109875","155567.157401","156333.836439","157100.511677","157867.394099","158617.107432","159383.742636","163250.338098","164016.939113","164783.594481","165533.550063","166300.256569","167066.874532","167833.576071","168600.506417","168606.368349"
"Blocked","Male","cave","12","M_cave.wav","None","740.724939218","401","162483.694712","169350.109875","170116.742157","156333.836439","157100.511677","157867.394099","158617.107432","159383.742636","163250.338098","164016.939113","164783.594481","165533.550063","166300.256569","167066.874532","167833.576071","168600.506417","169355.22986"
"Blocked","Male","cave","12","M_cad.wav","space","538.551699551","401","162483.694712","169350.109875","170116.742157","170883.430253","157100.511677","157867.394099","158617.107432","159383.742636","163250.338098","164016.939113","164783.594481","165533.550063","166300.256569","167066.874532","167833.576071","168600.506417","170121.754021"
"Blocked","Male","cave","12","M_cave.wav","None","733.200860296","401","162483.694712","169350.109875","170116.742157","170883.430253","171650.074516","157867.394099","158617.107432","159383.742636","163250.338098","164016.939113","164783.594481","165533.550063","166300.256569","167066.874532","167833.576071","168600.506417","170888.332242"
"Blocked","Male","cave","12","M_romp.wav","space","653.111557883","401","162483.694712","169350.109875","170116.742157","170883.430253","171650.074516","172400.089127","158617.107432","159383.742636","163250.338098","164016.939113","164783.594481","165533.550063","166300.256569","167066.874532","167833.576071","168600.506417","171655.055989"
"Blocked","Male","cave","12","M_park.wav","None","741.804399663","401","162483.694712","169350.109875","170116.742157","170883.430253","171650.074516","172400.089127","173166.732514","159383.742636","163250.338098","164016.939113","164783.594481","165533.550063","166300.256569","167066.874532","167833.576071","168600.506417","172405.130798"
"Blocked","Male","cave","12","M_jolt.wav","None","737.909984571","401","162483.694712","169350.109875","170116.742157","170883.430253","171650.074516","172400.089127","173166.732514","173933.363335","163250.338098","164016.939113","164783.594481","165533.550063","166300.256569","167066.874532","167833.576071","168600.506417","173172.123679"
"Blocked","Male","ball","1","M_park.wav","None","734.942198897","401","177016.573254","169350.109875","170116.742157","170883.430253","171650.074516","172400.089127","173166.732514","173933.363335","163250.338098","164016.939113","164783.594481","165533.550063","166300.256569","167066.874532","167833.576071","168600.506417","173938.293962"
"Blocked","Male","ball","1","M_gnash.wav","None","740.738965775","401","177016.573254","169350.109875","170116.742157","170883.430253","171650.074516","172400.089127","173166.732514","173933.363335","177783.263395","164016.939113","164783.594481","165533.550063","166300.256569","167066.874532","167833.576071","168600.506417","177021.823569"
"Blocked","Male","ball","1","M_ball.wav","None","737.2244366","401","177016.573254","169350.109875","170116.742157","170883.430253","171650.074516","172400.089127","173166.732514","173933.363335","177783.263395","178549.894801","164783.594481","165533.550063","166300.256569","167066.874532","167833.576071","168600.506417","177788.588227"
"Blocked","Male","ball","1","M_romp.wav","space","624.926068356","401","177016.573254","169350.109875","170116.742157","170883.430253","171650.074516","172400.089127","173166.732514","173933.363335","177783.263395","178549.894801","179316.541986","165533.550063","166300.256569","167066.874532","167833.576071","168600.506417","178554.848513"
"Blocked","Male","ball","1","M_ball.wav","None","729.850558724","401","177016.573254","169350.109875","170116.742157","170883.430253","171650.074516","172400.089127","173166.732514","173933.363335","177783.263395","178549.894801","179316.541986","180066.512472","166300.256569","167066.874532","167833.576071","168600.506417","179321.545668"
"Blocked","Male","ball","1","M_romp.wav","None","742.684858332","401","177016.573254","169350.109875","170116.742157","170883.430253","171650.074516","172400.089127","173166.732514","173933.363335","177783.263395","178549.894801","179316.541986","180066.512472","180833.137449","167066.874532","167833.576071","168600.506417","180071.919417"
"Blocked","Male","ball","1","M_ball.wav","space","0.0207476154901","401","177016.573254","169350.109875","170116.742157","170883.430253","171650.074516","172400.089127","173166.732514","173933.363335","177783.263395","178549.894801","179316.541986","180066.512472","180833.137449","181599.843662","167833.576071","168600.506417","180838.315294"
"Blocked","Male","ball","1","M_bluff.wav","space","446.635379652","401","177016.573254","169350.109875","170116.742157","170883.430253","171650.074516","172400.089127","173166.732514","173933.363335","177783.263395","178549.894801","179316.541986","180066.512472","180833.137449","181599.843662","182366.506628","168600.506417","181604.9955"
"Blocked","Male","ball","1","M_jaw.wav","None","731.277760894","401","177016.573254","169350.109875","170116.742157","170883.430253","171650.074516","172400.089127","173166.732514","173933.363335","177783.263395","178549.894801","179316.541986","180066.512472","180833.137449","181599.843662","182366.506628","183133.276253","182371.550928"
"Blocked","Male","ball","1","M_lash.wav","None","727.364351506","401","177016.573254","183883.071991","170116.742157","170883.430253","171650.074516","172400.089127","173166.732514","173933.363335","177783.263395","178549.894801","179316.541986","180066.512472","180833.137449","181599.843662","182366.506628","183133.276253","183138.842166"
"Blocked","Male","ball","1","M_jolt.wav","None","741.016574715","401","177016.573254","183883.071991","184649.703105","170883.430253","171650.074516","172400.089127","173166.732514","173933.363335","177783.263395","178549.894801","179316.541986","180066.512472","180833.137449","181599.843662","182366.506628","183133.276253","183888.35825"
"Blocked","Male","ball","1","M_depth.wav","None","737.91582897","401","177016.573254","183883.071991","184649.703105","185416.357011","171650.074516","172400.089127","173166.732514","173933.363335","177783.263395","178549.894801","179316.541986","180066.512472","180833.137449","181599.843662","182366.506628","183133.276253","184654.721105"
"Blocked","Male","ball","1","M_knife.wav","None","734.625724705","401","177016.573254","183883.071991","184649.703105","185416.357011","186182.97965","172400.089127","173166.732514","173933.363335","177783.263395","178549.894801","179316.541986","180066.512472","180833.137449","181599.843662","182366.506628","183133.276253","185421.253448"
"Blocked","Male","ball","1","M_ball.wav","None","731.169055078","401","177016.573254","183883.071991","184649.703105","185416.357011","186182.97965","186950.180592","173166.732514","173933.363335","177783.263395","178549.894801","179316.541986","180066.512472","180833.137449","181599.843662","182366.506628","183133.276253","186188.101681"
"Blocked","Male","ball","1","M_jaw.wav","space","415.57970591","401","177016.573254","183883.071991","184649.703105","185416.357011","186182.97965","186950.180592","187699.676513","173933.363335","177783.263395","178549.894801","179316.541986","180066.512472","180833.137449","181599.843662","182366.506628","183133.276253","186955.709101"
"Blocked","Male","ball","1","M_lash.wav","None","739.987668319","401","177016.573254","183883.071991","184649.703105","185416.357011","186182.97965","186950.180592","187699.676513","188466.409318","177783.263395","178549.894801","179316.541986","180066.512472","180833.137449","181599.843662","182366.506628","183133.276253","187704.874229"
"Blocked","Male","tile","14","M_knife.wav","None","736.779385637","401","191582.903965","183883.071991","184649.703105","185416.357011","186182.97965","186950.180592","187699.676513","188466.409318","177783.263395","178549.894801","179316.541986","180066.512472","180833.137449","181599.843662","182366.506628","183133.276253","188471.35105"
"Blocked","Male","tile","14","M_tile.wav","None","740.182579016","401","191582.903965","183883.071991","184649.703105","185416.357011","186182.97965","186950.180592","187699.676513","188466.409318","192349.550274","178549.894801","179316.541986","180066.512472","180833.137449","181599.843662","182366.506628","183133.276253","191588.053172"
"Blocked","Male","tile","14","M_cling.wav","space","704.307614083","401","191582.903965","183883.071991","184649.703105","185416.357011","186182.97965","186950.180592","187699.676513","188466.409318","192349.550274","193116.178757","179316.541986","180066.512472","180833.137449","181599.843662","182366.506628","183133.276253","192354.605971"
"Blocked","Male","tile","14","M_greet.wav","None","732.178090518","401","191582.903965","183883.071991","184649.703105","185416.357011","186182.97965","186950.180592","187699.676513","188466.409318","192349.550274","193116.178757","193882.821267","180066.512472","180833.137449","181599.843662","182366.506628","183133.276253","193121.976693"
"Blocked","Male","tile","14","M_tile.wav","None","729.718767533","401","191582.903965","183883.071991","184649.703105","185416.357011","186182.97965","186950.180592","187699.676513","188466.409318","192349.550274","193116.178757","193882.821267","194632.785031","180833.137449","181599.843662","182366.506628","183133.276253","193887.849495"
"Blocked","Male","tile","14","M_depth.wav","space","460.842820741","401","191582.903965","183883.071991","184649.703105","185416.357011","186182.97965","186950.180592","187699.676513","188466.409318","192349.550274","193116.178757","193882.821267","194632.785031","195399.468452","181599.843662","182366.506628","183133.276253","194637.879594"
"Blocked","Male","tile","14","M_jaw.wav","None","738.668587526","401","191582.903965","183883.071991","184649.703105","185416.357011","186182.97965","186950.180592","187699.676513","188466.409318","192349.550274","193116.178757","193882.821267","194632.785031","195399.468452","196166.084662","182366.506628","183133.276253","195404.709416"
"Blocked","Male","tile","14","M_tile.wav","None","735.831716383","401","191582.903965","183883.071991","184649.703105","185416.357011","186182.97965","186950.180592","187699.676513","188466.409318","192349.550274","193116.178757","193882.821267","194632.785031","195399.468452","196166.084662","196932.709346","183133.276253","196171.039835"
"Blocked","Male","tile","14","M_bluff.wav","space","392.953700673","401","191582.903965","183883.071991","184649.703105","185416.357011","186182.97965","186950.180592","187699.676513","188466.409318","192349.550274","193116.178757","193882.821267","194632.785031","195399.468452","196166.084662","196932.709346","197699.682941","196937.757446"
"Blocked","Male","tile","14","M_tile.wav","None","727.033850757","401","191582.903965","198449.369974","184649.703105","185416.357011","186182.97965","186950.180592","187699.676513","188466.409318","192349.550274","193116.178757","193882.821267","194632.785031","195399.468452","196166.084662","196932.709346","197699.682941","197705.739492"
"Blocked","Male","tile","14","M_lash.wav","space","323.971970264","401","191582.903965","198449.369974","199215.970404","185416.357011","186182.97965","186950.180592","187699.676513","188466.409318","192349.550274","193116.178757","193882.821267","194632.785031","195399.468452","196166.084662","196932.709346","197699.682941","198454.664415"
"Blocked","Male","tile","14","M_romp.wav","None","737.756569104","401","191582.903965","198449.369974","199215.970404","199982.653825","186182.97965","186950.180592","187699.676513","188466.409318","192349.550274","193116.178757","193882.821267","194632.785031","195399.468452","196166.084662","196932.709346","197699.682941","199221.008276"
"Blocked","Male","tile","14","M_gnash.wav","None","734.764529175","401","191582.903965","198449.369974","199215.970404","199982.653825","200749.240813","186950.180592","187699.676513","188466.409318","192349.550274","193116.178757","193882.821267","194632.785031","195399.468452","196166.084662","196932.709346","197699.682941","199987.542372"
"Blocked","Male","tile","14","M_greet.wav","None","731.11324107","401","191582.903965","198449.369974","199215.970404","199982.653825","200749.240813","201516.343277","187699.676513","188466.409318","192349.550274","193116.178757","193882.821267","194632.785031","195399.468452","196166.084662","196932.709346","197699.682941","200754.650973"
"Blocked","Male","tile","14","M_knife.wav","None","727.225254816","401","191582.903965","198449.369974","199215.970404","199982.653825","200749.240813","201516.343277","202265.893842","188466.409318","192349.550274","193116.178757","193882.821267","194632.785031","195399.468452","196166.084662","196932.709346","197699.682941","201521.831751"
"Blocked","Male","tile","14","M_jaw.wav","None","741.672024032","401","191582.903965","198449.369974","199215.970404","199982.653825","200749.240813","201516.343277","202265.893842","203032.541612","192349.550274","193116.178757","193882.821267","194632.785031","195399.468452","196166.084662","196932.709346","197699.682941","202270.902492"
"Blocked","Male","cave","11","M_gnash.wav","None","738.28110389","401","206149.115158","198449.369974","199215.970404","199982.653825","200749.240813","201516.343277","202265.893842","203032.541612","192349.550274","193116.178757","193882.821267","194632.785031","195399.468452","196166.084662","196932.709346","197699.682941","203037.584744"
"Blocked","Male","cave","11","M_cave.wav","None","739.820226295","401","206149.115158","198449.369974","199215.970404","199982.653825","200749.240813","201516.343277","202265.893842","203032.541612","206915.771694","193116.178757","193882.821267","194632.785031","195399.468452","196166.084662","196932.709346","197699.682941","206154.570904"
"Blocked","Male","cave","11","M_lash.wav","space","552.98619553","401","206149.115158","198449.369974","199215.970404","199982.653825","200749.240813","201516.343277","202265.893842","203032.541612","206915.771694","207682.424724","193882.821267","194632.785031","195399.468452","196166.084662","196932.709346","197699.682941","206920.994541"
"Blocked","Male","cave","11","M_dime.wav","None","732.752594913","401","206149.115158","198449.369974","199215.970404","199982.653825","200749.240813","201516.343277","202265.893842","203032.541612","206915.771694","207682.424724","208449.161037","194632.785031","195399.468452","196166.084662","196932.709346","197699.682941","207687.585036"
"Blocked","Male","cave","11","M_cave.wav","None","729.863124182","401","206149.115158","198449.369974","199215.970404","199982.653825","200749.240813","201516.343277","202265.893842","203032.541612","206915.771694","207682.424724","208449.161037","209199.095579","195399.468452","196166.084662","196932.709346","197699.682941","208454.091371"
"Blocked","Male","cave","11","M_cad.wav","space","461.879324855","401","206149.115158","198449.369974","199215.970404","199982.653825","200749.240813","201516.343277","202265.893842","203032.541612","206915.771694","207682.424724","208449.161037","209199.095579","209965.697178","196166.084662","196932.709346","197699.682941","209204.06361"
"Blocked","Male","cave","11","M_cave.wav","None","738.955839723","401","206149.115158","198449.369974","199215.970404","199982.653825","200749.240813","201516.343277","202265.893842","203032.541612","206915.771694","207682.424724","208449.161037","209199.095579","209965.697178","210732.34261","196932.709346","197699.682941","209970.969118"
"Blocked","Male","cave","11","M_greet.wav","space","512.366163269","401","206149.115158","198449.369974","199215.970404","199982.653825","200749.240813","201516.343277","202265.893842","203032.541612","206915.771694","207682.424724","208449.161037","209199.095579","209965.697178","210732.34261","211499.003238","197699.682941","210737.46844"
"Blocked","Male","cave","11","M_gnash.wav","None","731.786808023","401","206149.115158","198449.369974","199215.970404","199982.653825","200749.240813","201516.343277","202265.893842","203032.541612","206915.771694","207682.424724","208449.161037","209199.095579","209965.697178","210732.34261","211499.003238","212266.124112","211504.11621"
"Blocked","Male","cave","11","M_jolt.wav","None","727.5753343","401","206149.115158","213015.634643","199215.970404","199982.653825","200749.240813","201516.343277","202265.893842","203032.541612","206915.771694","207682.424724","208449.161037","209199.095579","209965.697178","210732.34261","211499.003238","212266.124112","212271.767171"
"Blocked","Male","cave","11","M_greet.wav","None","742.446406864","401","206149.115158","213015.634643","213782.236535","199982.653825","200749.240813","201516.343277","202265.893842","203032.541612","206915.771694","207682.424724","208449.161037","209199.095579","209965.697178","210732.34261","211499.003238","212266.124112","213020.723946"
"Blocked","Male","cave","11","M_lash.wav","None","739.282249392","401","206149.115158","213015.634643","213782.236535","214548.882551","200749.240813","201516.343277","202265.893842","203032.541612","206915.771694","207682.424724","208449.161037","209199.095579","209965.697178","210732.34261","211499.003238","212266.124112","213787.323207"
"Blocked","Male","cave","11","M_knife.wav","None","736.634444548","401","206149.115158","213015.634643","213782.236535","214548.882551","215315.520093","201516.343277","202265.893842","203032.541612","206915.771694","207682.424724","208449.161037","209199.095579","209965.697178","210732.34261","211499.003238","212266.124112","214553.755611"
"Blocked","Male","cave","11","M_cave.wav","None","733.320670469","401","206149.115158","213015.634643","213782.236535","214548.882551","215315.520093","216082.19913","202265.893842","203032.541612","206915.771694","207682.424724","208449.161037","209199.095579","209965.697178","210732.34261","211499.003238","212266.124112","215320.585141"
"Blocked","Male","cave","11","M_reek.wav","space","490.0738732","401","206149.115158","213015.634643","213782.236535","214548.882551","215315.520093","216082.19913","216832.180136","203032.541612","206915.771694","207682.424724","208449.161037","209199.095579","209965.697178","210732.34261","211499.003238","212266.124112","216087.479837"
"Blocked","Male","cave","11","M_reek.wav","None","742.430626987","401","206149.115158","213015.634643","213782.236535","214548.882551","215315.520093","216082.19913","216832.180136","217598.821769","206915.771694","207682.424724","208449.161037","209199.095579","209965.697178","210732.34261","211499.003238","212266.124112","216837.258334"
"Blocked","Male","ball","5","M_gnash.wav","None","739.268807275","401","220715.426583","213015.634643","213782.236535","214548.882551","215315.520093","216082.19913","216832.180136","217598.821769","206915.771694","207682.424724","208449.161037","209199.095579","209965.697178","210732.34261","211499.003238","212266.124112","217603.85818"
"Blocked","Male","ball","5","M_cling.wav","None","740.941181971","401","220715.426583","213015.634643","213782.236535","214548.882551","215315.520093","216082.19913","216832.180136","217598.821769","221482.088963","207682.424724","208449.161037","209199.095579","209965.697178","210732.34261","211499.003238","212266.124112","220720.678359"
"Blocked","Male","ball","5","M_ball.wav","None","737.874918178","401","220715.426583","213015.634643","213782.236535","214548.882551","215315.520093","216082.19913","216832.180136","217598.821769","221482.088963","222248.657249","208449.161037","209199.095579","209965.697178","210732.34261","211499.003238","212266.124112","221487.153427"
"Blocked","Male","ball","5","M_gnash.wav","space","483.527269965","401","220715.426583","213015.634643","213782.236535","214548.882551","215315.520093","216082.19913","216832.180136","217598.821769","221482.088963","222248.657249","223015.32489","209199.095579","209965.697178","210732.34261","211499.003238","212266.124112","222253.708855"
"Blocked","Male","ball","5","M_bluff.wav","None","730.757901627","401","220715.426583","213015.634643","213782.236535","214548.882551","215315.520093","216082.19913","216832.180136","217598.821769","221482.088963","222248.657249","223015.32489","223782.294394","209965.697178","210732.34261","211499.003238","212266.124112","223020.406887"
"Blocked","Male","ball","5","M_jaw.wav","None","726.735786422","401","220715.426583","213015.634643","213782.236535","214548.882551","215315.520093","216082.19913","216832.180136","217598.821769","221482.088963","222248.657249","223015.32489","223782.294394","224531.989316","210732.34261","211499.003238","212266.124112","223787.970766"
"Blocked","Male","ball","5","M_ball.wav","None","741.295060314","401","220715.426583","213015.634643","213782.236535","214548.882551","215315.520093","216082.19913","216832.180136","217598.821769","221482.088963","222248.657249","223015.32489","223782.294394","224531.989316","225298.660464","211499.003238","212266.124112","224537.026896"
"Blocked","Male","ball","5","M_dime.wav","space","345.218112961","401","220715.426583","213015.634643","213782.236535","214548.882551","215315.520093","216082.19913","216832.180136","217598.821769","221482.088963","222248.657249","223015.32489","223782.294394","224531.989316","225298.660464","226065.258848","212266.124112","225303.790093"
"Blocked","Male","ball","5","M_ball.wav","None","733.972028708","401","220715.426583","213015.634643","213782.236535","214548.882551","215315.520093","216082.19913","216832.180136","217598.821769","221482.088963","222248.657249","223015.32489","223782.294394","224531.989316","225298.660464","226065.258848","226831.968277","226070.293506"
"Blocked","Male","ball","5","M_cad.wav","space","523.554095755","401","220715.426583","227581.929119","213782.236535","214548.882551","215315.520093","216082.19913","216832.180136","217598.821769","221482.088963","222248.657249","223015.32489","223782.294394","224531.989316","225298.660464","226065.258848","226831.968277","226837.35915"
"Blocked","Male","ball","5","M_cling.wav","None","743.134292594","401","220715.426583","227581.929119","228348.502957","214548.882551","215315.520093","216082.19913","216832.180136","217598.821769","221482.088963","222248.657249","223015.32489","223782.294394","224531.989316","225298.660464","226065.258848","226831.968277","227587.033617"
"Blocked","Male","ball","5","M_depth.wav","None","740.311740228","401","220715.426583","227581.929119","228348.502957","229115.151019","215315.520093","216082.19913","216832.180136","217598.821769","221482.088963","222248.657249","223015.32489","223782.294394","224531.989316","225298.660464","226065.258848","226831.968277","228353.463683"
"Blocked","Male","ball","5","M_jaw.wav","None","737.169207032","401","220715.426583","227581.929119","228348.502957","229115.151019","229881.900482","216082.19913","216832.180136","217598.821769","221482.088963","222248.657249","223015.32489","223782.294394","224531.989316","225298.660464","226065.258848","226831.968277","229120.214606"
"Blocked","Male","ball","5","M_ball.wav","None","734.045668132","401","220715.426583","227581.929119","228348.502957","229115.151019","229881.900482","230648.466138","216832.180136","217598.821769","221482.088963","222248.657249","223015.32489","223782.294394","224531.989316","225298.660464","226065.258848","226831.968277","229887.089431"
"Blocked","Male","ball","5","M_bluff.wav","space","442.950486254","401","220715.426583","227581.929119","228348.502957","229115.151019","229881.900482","230648.466138","231398.542407","217598.821769","221482.088963","222248.657249","223015.32489","223782.294394","224531.989316","225298.660464","226065.258848","226831.968277","230653.730187"
"Blocked","Male","ball","5","M_dime.wav","None","743.508041893","401","220715.426583","227581.929119","228348.502957","229115.151019","229881.900482","230648.466138","231398.542407","232165.103972","221482.088963","222248.657249","223015.32489","223782.294394","224531.989316","225298.660464","226065.258848","226831.968277","231403.690446"
"Blocked","Male","done","21","M_lash.wav","None","740.552821676","401","235281.678687","227581.929119","228348.502957","229115.151019","229881.900482","230648.466138","231398.542407","232165.103972","221482.088963","222248.657249","223015.32489","223782.294394","224531.989316","225298.660464","226065.258848","226831.968277","232170.109115"
"Blocked","Male","done","21","M_romp.wav","None","740.883030204","401","235281.678687","227581.929119","228348.502957","229115.151019","229881.900482","230648.466138","231398.542407","232165.103972","236048.318566","222248.657249","223015.32489","223782.294394","224531.989316","225298.660464","226065.258848","226831.968277","235286.724156"
"Blocked","Male","done","21","M_greet.wav","None","737.896250234","401","235281.678687","227581.929119","228348.502957","229115.151019","229881.900482","230648.466138","231398.542407","232165.103972","236048.318566","236814.929224","223015.32489","223782.294394","224531.989316","225298.660464","226065.258848","226831.968277","236053.403778"
"Blocked","Male","done","21","M_done.wav","None","734.506498971","401","235281.678687","227581.929119","228348.502957","229115.151019","229881.900482","230648.466138","231398.542407","232165.103972","236048.318566","236814.929224","237581.584007","223782.294394","224531.989316","225298.660464","226065.258848","226831.968277","236820.40338"
"Blocked","Male","done","21","M_bluff.wav","space","549.384292594","401","235281.678687","227581.929119","228348.502957","229115.151019","229881.900482","230648.466138","231398.542407","232165.103972","236048.318566","236814.929224","237581.584007","238348.737318","224531.989316","225298.660464","226065.258848","226831.968277","237586.758054"
"Blocked","Male","done","21","M_greet.wav","None","726.718545446","401","235281.678687","227581.929119","228348.502957","229115.151019","229881.900482","230648.466138","231398.542407","232165.103972","236048.318566","236814.929224","237581.584007","238348.737318","239098.187944","225298.660464","226065.258848","226831.968277","238354.205922"
"Blocked","Male","done","21","M_knife.wav","None","741.527667384","401","235281.678687","227581.929119","228348.502957","229115.151019","229881.900482","230648.466138","231398.542407","232165.103972","236048.318566","236814.929224","237581.584007","238348.737318","239098.187944","239864.885976","226065.258848","226831.968277","239103.124123"
"Blocked","Male","done","21","M_done.wav","None","738.089699832","401","235281.678687","227581.929119","228348.502957","229115.151019","229881.900482","230648.466138","231398.542407","232165.103972","236048.318566","236814.929224","237581.584007","238348.737318","239098.187944","239864.885976","240631.538713","226831.968277","239870.113206"
"Blocked","Male","done","21","M_reek.wav","space","395.40221152","401","235281.678687","227581.929119","228348.502957","229115.151019","229881.900482","230648.466138","231398.542407","232165.103972","236048.318566","236814.929224","237581.584007","238348.737318","239098.187944","239864.885976","240631.538713","241398.200217","240636.64964"
"Blocked","Male","done","21","M_park.wav","None","730.936740228","401","235281.678687","242165.145467","228348.502957","229115.151019","229881.900482","230648.466138","231398.542407","232165.103972","236048.318566","236814.929224","237581.584007","238348.737318","239098.187944","239864.885976","240631.538713","241398.200217","241403.255038"
"Blocked","Male","done","21","M_done.wav","None","727.100476903","401","235281.678687","242165.145467","242914.843019","229115.151019","229881.900482","230648.466138","231398.542407","232165.103972","236048.318566","236814.929224","237581.584007","238348.737318","239098.187944","239864.885976","240631.538713","241398.200217","242170.839665"
"Blocked","Male","done","21","M_priest.wav","space","520.015604545","401","235281.678687","242165.145467","242914.843019","243681.450463","229881.900482","230648.466138","231398.542407","232165.103972","236048.318566","236814.929224","237581.584007","238348.737318","239098.187944","239864.885976","240631.538713","241398.200217","242919.886736"
"Blocked","Male","done","21","M_cling.wav","None","737.075696652","401","235281.678687","242165.145467","242914.843019","243681.450463","244448.090343","230648.466138","231398.542407","232165.103972","236048.318566","236814.929224","237581.584007","238348.737318","239098.187944","239864.885976","240631.538713","241398.200217","243686.777632"
"Blocked","Male","done","21","M_done.wav","None","734.085117823","401","235281.678687","242165.145467","242914.843019","243681.450463","244448.090343","245214.745418","231398.542407","232165.103972","236048.318566","236814.929224","237581.584007","238348.737318","239098.187944","239864.885976","240631.538713","241398.200217","244453.171755"
"Blocked","Male","done","21","M_jaw.wav","space","587.791051057","401","235281.678687","242165.145467","242914.843019","243681.450463","244448.090343","245214.745418","245964.739281","232165.103972","236048.318566","236814.929224","237581.584007","238348.737318","239098.187944","239864.885976","240631.538713","241398.200217","245219.894041"
"Blocked","Male","done","21","M_depth.wav","None","742.999871423","401","235281.678687","242165.145467","242914.843019","243681.450463","244448.090343","245214.745418","245964.739281","246731.353446","236048.318566","236814.929224","237581.584007","238348.737318","239098.187944","239864.885976","240631.538713","241398.200217","245970.147688"
"Blocked","Male","done","24","M_romp.wav","None","740.366093136","401","249831.34088","242165.145467","242914.843019","243681.450463","244448.090343","245214.745418","245964.739281","246731.353446","236048.318566","236814.929224","237581.584007","238348.737318","239098.187944","239864.885976","240631.538713","241398.200217","246736.451515"
"Blocked","Male","done","24","M_done.wav","None","740.227580887","401","249831.34088","242165.145467","242914.843019","243681.450463","244448.090343","245214.745418","245964.739281","246731.353446","250597.911504","236814.929224","237581.584007","238348.737318","239098.187944","239864.885976","240631.538713","241398.200217","249836.504991"
"Blocked","Male","done","24","M_cad.wav","None","737.322330279","401","249831.34088","242165.145467","242914.843019","243681.450463","244448.090343","245214.745418","245964.739281","246731.353446","250597.911504","251364.599016","237581.584007","238348.737318","239098.187944","239864.885976","240631.538713","241398.200217","250603.066848"
"Blocked","Male","done","24","M_bluff.wav","space","85.766843557","401","249831.34088","242165.145467","242914.843019","243681.450463","244448.090343","245214.745418","245964.739281","246731.353446","250597.911504","251364.599016","252131.23422","238348.737318","239098.187944","239864.885976","240631.538713","241398.200217","251369.702345"
"Blocked","Male","done","24","M_reek.wav","None","733.832347578","401","249831.34088","242165.145467","242914.843019","243681.450463","244448.090343","245214.745418","245964.739281","246731.353446","250597.911504","251364.599016","252131.23422","252898.360938","239098.187944","239864.885976","240631.538713","241398.200217","252132.758732"
"Blocked","Male","done","24","M_done.wav","None","726.474541799","401","249831.34088","242165.145467","242914.843019","243681.450463","244448.090343","245214.745418","245964.739281","246731.353446","250597.911504","251364.599016","252131.23422","252898.360938","253647.862996","239864.885976","240631.538713","241398.200217","252903.856719"
"Blocked","Male","done","24","M_park.wav","space","498.11664251","401","249831.34088","242165.145467","242914.843019","243681.450463","244448.090343","245214.745418","245964.739281","246731.353446","250597.911504","251364.599016","252131.23422","252898.360938","253647.862996","254414.45086","240631.538713","241398.200217","253653.170586"
"Blocked","Male","done","24","M_greet.wav","None","736.912053488","401","249831.34088","242165.145467","242914.843019","243681.450463","244448.090343","245214.745418","245964.739281","246731.353446","250597.911504","251364.599016","252131.23422","252898.360938","253647.862996","254414.45086","255181.154444","241398.200217","254419.405449"
"Blocked","Male","done","24","M_jaw.wav","None","733.531945483","401","249831.34088","242165.145467","242914.843019","243681.450463","244448.090343","245214.745418","245964.739281","246731.353446","250597.911504","251364.599016","252131.23422","252898.360938","253647.862996","254414.45086","255181.154444","255947.763933","255186.253682"
"Blocked","Male","done","24","M_reek.wav","None","730.129920984","401","249831.34088","256714.800648","242914.843019","243681.450463","244448.090343","245214.745418","245964.739281","246731.353446","250597.911504","251364.599016","252131.23422","252898.360938","253647.862996","254414.45086","255181.154444","255947.763933","255953.164742"
"Blocked","Male","done","24","M_done.wav","None","726.354439405","401","249831.34088","256714.800648","257464.403521","243681.450463","244448.090343","245214.745418","245964.739281","246731.353446","250597.911504","251364.599016","252131.23422","252898.360938","253647.862996","254414.45086","255181.154444","255947.763933","256720.40601"
"Blocked","Male","done","24","M_greet.wav","space","649.653719375","401","249831.34088","256714.800648","257464.403521","258231.029666","244448.090343","245214.745418","245964.739281","246731.353446","250597.911504","251364.599016","252131.23422","252898.360938","253647.862996","254414.45086","255181.154444","255947.763933","257469.439347"
"Blocked","Male","done","24","M_reek.wav","None","736.932216663","401","249831.34088","256714.800648","257464.403521","258231.029666","258997.694969","245214.745418","245964.739281","246731.353446","250597.911504","251364.599016","252131.23422","252898.360938","253647.862996","254414.45086","255181.154444","255947.763933","258235.995067"
"Blocked","Male","done","24","M_done.wav","None","733.64123574","401","249831.34088","256714.800648","257464.403521","258231.029666","258997.694969","259764.315562","245964.739281","246731.353446","250597.911504","251364.599016","252131.23422","252898.360938","253647.862996","254414.45086","255181.154444","255947.763933","259002.974215"
"Blocked","Male","done","24","M_bluff.wav","space","621.197634187","401","249831.34088","256714.800648","257464.403521","258231.029666","258997.694969","259764.315562","260514.281373","246731.353446","250597.911504","251364.599016","252131.23422","252898.360938","253647.862996","254414.45086","255181.154444","255947.763933","259769.725138"
"Blocked","Male","done","24","M_lash.wav","None","743.653567421","401","249831.34088","256714.800648","257464.403521","258231.029666","258997.694969","259764.315562","260514.281373","261280.970053","250597.911504","251364.599016","252131.23422","252898.360938","253647.862996","254414.45086","255181.154444","255947.763933","260519.294698"
"Blocked","Male","ball","3","M_reek.wav","None","740.872218066","401","264380.91833","256714.800648","257464.403521","258231.029666","258997.694969","259764.315562","260514.281373","261280.970053","250597.911504","251364.599016","252131.23422","252898.360938","253647.862996","254414.45086","255181.154444","255947.763933","261286.051466"
"Blocked","Male","ball","3","M_cling.wav","None","739.729638115","401","264380.91833","256714.800648","257464.403521","258231.029666","258997.694969","259764.315562","260514.281373","261280.970053","265147.560548","251364.599016","252131.23422","252898.360938","253647.862996","254414.45086","255181.154444","255947.763933","264386.322646"
"Blocked","Male","ball","3","M_ball.wav","None","737.219761081","401","264380.91833","256714.800648","257464.403521","258231.029666","258997.694969","259764.315562","260514.281373","261280.970053","265147.560548","265914.152796","252131.23422","252898.360938","253647.862996","254414.45086","255181.154444","255947.763933","265152.603972"
"Blocked","Male","ball","3","M_reek.wav","space","359.126320834","401","264380.91833","256714.800648","257464.403521","258231.029666","258997.694969","259764.315562","260514.281373","261280.970053","265147.560548","265914.152796","266680.852873","252898.360938","253647.862996","254414.45086","255181.154444","255947.763933","265919.435256"
"Blocked","Male","ball","3","M_depth.wav","None","730.209989246","401","264380.91833","256714.800648","257464.403521","258231.029666","258997.694969","259764.315562","260514.281373","261280.970053","265147.560548","265914.152796","266680.852873","267447.773869","253647.862996","254414.45086","255181.154444","255947.763933","266685.965553"
"Blocked","Male","ball","3","M_lash.wav","None","726.478925098","401","264380.91833","256714.800648","257464.403521","258231.029666","258997.694969","259764.315562","260514.281373","261280.970053","265147.560548","265914.152796","266680.852873","267447.773869","268197.438108","254414.45086","255181.154444","255947.763933","267453.495827"
"Blocked","Male","ball","3","M_reek.wav","None","741.280449317","401","264380.91833","256714.800648","257464.403521","258231.029666","258997.694969","259764.315562","260514.281373","261280.970053","265147.560548","265914.152796","266680.852873","267447.773869","268197.438108","268964.069805","255181.154444","255947.763933","268202.414613"
"Blocked","Male","ball","3","M_ball.wav","None","738.457604732","401","264380.91833","256714.800648","257464.403521","258231.029666","258997.694969","259764.315562","260514.281373","261280.970053","265147.560548","265914.152796","266680.852873","267447.773869","268197.438108","268964.069805","269730.714653","255947.763933","268969.065598"
"Blocked","Male","ball","3","M_romp.wav","space","470.325942117","401","264380.91833","256714.800648","257464.403521","258231.029666","258997.694969","259764.315562","260514.281373","261280.970053","265147.560548","265914.152796","266680.852873","267447.773869","268197.438108","268964.069805","269730.714653","270497.469375","269736.028965"
"Blocked","Male","ball","3","M_greet.wav","None","731.132235366","401","264380.91833","271264.423976","257464.403521","258231.029666","258997.694969","259764.315562","260514.281373","261280.970053","265147.560548","265914.152796","266680.852873","267447.773869","268197.438108","268964.069805","269730.714653","270497.469375","270502.50374"
"Blocked","Male","ball","3","M_ball.wav","None","727.320518515","401","264380.91833","271264.423976","272014.048473","258231.029666","258997.694969","259764.315562","260514.281373","261280.970053","265147.560548","265914.152796","266680.852873","267447.773869","268197.438108","268964.069805","269730.714653","270497.469375","271270.131031"
"Blocked","Male","ball","3","M_depth.wav","space","611.041530297","401","264380.91833","271264.423976","272014.048473","272780.639845","258997.694969","259764.315562","260514.281373","261280.970053","265147.560548","265914.152796","266680.852873","267447.773869","268197.438108","268964.069805","269730.714653","270497.469375","272019.170797"
"Blocked","Male","ball","3","M_ball.wav","None","738.015768188","401","264380.91833","271264.423976","272014.048473","272780.639845","273547.317713","259764.315562","260514.281373","261280.970053","265147.560548","265914.152796","266680.852873","267447.773869","268197.438108","268964.069805","269730.714653","270497.469375","272785.673918"
"Blocked","Male","ball","3","M_cad.wav","space","565.469831214","401","264380.91833","271264.423976","272014.048473","272780.639845","273547.317713","274313.987984","260514.281373","261280.970053","265147.560548","265914.152796","266680.852873","267447.773869","268197.438108","268964.069805","269730.714653","270497.469375","273552.588192"
"Blocked","Male","ball","3","M_jaw.wav","None","730.759362727","401","264380.91833","271264.423976","272014.048473","272780.639845","273547.317713","274313.987984","275080.709101","261280.970053","265147.560548","265914.152796","266680.852873","267447.773869","268197.438108","268964.069805","269730.714653","270497.469375","274319.021765"
"Blocked","Male","ball","3","M_park.wav","None","727.835410043","401","264380.91833","271264.423976","272014.048473","272780.639845","273547.317713","274313.987984","275080.709101","275830.548672","265147.560548","265914.152796","266680.852873","267447.773869","268197.438108","268964.069805","269730.714653","270497.469375","275085.938084"
"Blocked","Male","ball","4","M_bluff.wav","None","741.86372031","401","278947.129816","271264.423976","272014.048473","272780.639845","273547.317713","274313.987984","275080.709101","275830.548672","265147.560548","265914.152796","266680.852873","267447.773869","268197.438108","268964.069805","269730.714653","270497.469375","275835.733238"
"Blocked","Male","ball","4","M_ball.wav","space","0.0204553955118","401","278947.129816","271264.423976","272014.048473","272780.639845","273547.317713","274313.987984","275080.709101","275830.548672","279713.799794","265914.152796","266680.852873","267447.773869","268197.438108","268964.069805","269730.714653","270497.469375","278952.079145"
"Blocked","Male","ball","4","M_reek.wav","None","737.100243127","401","278947.129816","271264.423976","272014.048473","272780.639845","273547.317713","274313.987984","275080.709101","275830.548672","279713.799794","280480.426232","266680.852873","267447.773869","268197.438108","268964.069805","269730.714653","270497.469375","279718.723992"
"Blocked","Male","ball","4","M_ball.wav","space","32.1792593978","401","278947.129816","271264.423976","272014.048473","272780.639845","273547.317713","274313.987984","275080.709101","275830.548672","279713.799794","280480.426232","281247.105562","267447.773869","268197.438108","268964.069805","269730.714653","270497.469375","280485.537159"
"Blocked","Male","ball","4","M_jaw.wav","None","729.927997008","401","278947.129816","271264.423976","272014.048473","272780.639845","273547.317713","274313.987984","275080.709101","275830.548672","279713.799794","280480.426232","281247.105562","281997.042734","268197.438108","268964.069805","269730.714653","270497.469375","281252.259737"
"Blocked","Male","ball","4","M_gnash.wav","space","19.2824247241","401","278947.129816","271264.423976","272014.048473","272780.639845","273547.317713","274313.987984","275080.709101","275830.548672","279713.799794","280480.426232","281247.105562","281997.042734","282763.750994","268964.069805","269730.714653","270497.469375","282002.317596"
"Blocked","Male","ball","4","M_ball.wav","None","739.447938096","401","278947.129816","271264.423976","272014.048473","272780.639845","273547.317713","274313.987984","275080.709101","275830.548672","279713.799794","280480.426232","281247.105562","281997.042734","282763.750994","283530.427401","269730.714653","270497.469375","282769.020596"
"Blocked","Male","ball","4","M_reek.wav","None","736.695226295","401","278947.129816","271264.423976","272014.048473","272780.639845","273547.317713","274313.987984","275080.709101","275830.548672","279713.799794","280480.426232","281247.105562","281997.042734","282763.750994","283530.427401","284296.997732","270497.469375","283535.548555"
"Blocked","Male","ball","4","M_knife.wav","space","191.380388536","401","278947.129816","271264.423976","272014.048473","272780.639845","273547.317713","274313.987984","275080.709101","275830.548672","279713.799794","280480.426232","281247.105562","281997.042734","282763.750994","283530.427401","284296.997732","285063.693426","284302.117718"
"Blocked","Male","ball","4","M_jaw.wav","None","729.937348046","401","278947.129816","285830.592797","272014.048473","272780.639845","273547.317713","274313.987984","275080.709101","275830.548672","279713.799794","280480.426232","281247.105562","281997.042734","282763.750994","283530.427401","284296.997732","285063.693426","285068.864842"
"Blocked","Male","ball","4","M_jaw.wav","None","726.263851225","401","278947.129816","285830.592797","286580.280999","272780.639845","273547.317713","274313.987984","275080.709101","275830.548672","279713.799794","280480.426232","281247.105562","281997.042734","282763.750994","283530.427401","284296.997732","285063.693426","285836.41791"
"Blocked","Male","ball","4","M_reek.wav","None","741.230187488","401","278947.129816","285830.592797","286580.280999","287346.967049","273547.317713","274313.987984","275080.709101","275830.548672","279713.799794","280480.426232","281247.105562","281997.042734","282763.750994","283530.427401","284296.997732","285063.693426","286585.320624"
"Blocked","Male","ball","4","M_ball.wav","None","738.316754722","401","278947.129816","285830.592797","286580.280999","287346.967049","288113.556083","274313.987984","275080.709101","275830.548672","279713.799794","280480.426232","281247.105562","281997.042734","282763.750994","283530.427401","284296.997732","285063.693426","287352.152784"
"Blocked","Male","ball","4","M_reek.wav","space","534.311588274","401","278947.129816","285830.592797","286580.280999","287346.967049","288113.556083","288880.188073","275080.709101","275830.548672","279713.799794","280480.426232","281247.105562","281997.042734","282763.750994","283530.427401","284296.997732","285063.693426","288118.90926"
"Blocked","Male","ball","4","M_park.wav","None","731.933210211","401","278947.129816","285830.592797","286580.280999","287346.967049","288113.556083","288880.188073","289646.855713","275830.548672","279713.799794","280480.426232","281247.105562","281997.042734","282763.750994","283530.427401","284296.997732","285063.693426","288885.247861"
"Blocked","Male","ball","4","M_jaw.wav","None","729.130528801","401","278947.129816","285830.592797","286580.280999","287346.967049","288113.556083","288880.188073","289646.855713","290396.825323","279713.799794","280480.426232","281247.105562","281997.042734","282763.750994","283530.427401","284296.997732","285063.693426","289651.972485"
"Blocked","Male","cave","8","M_priest.wav","None","742.927108659","401","293496.772723","285830.592797","286580.280999","287346.967049","288113.556083","288880.188073","289646.855713","290396.825323","279713.799794","280480.426232","281247.105562","281997.042734","282763.750994","283530.427401","284296.997732","285063.693426","290401.90995"
"Blocked","Male","cave","8","M_reek.wav","None","743.714641388","401","293496.772723","285830.592797","286580.280999","287346.967049","288113.556083","288880.188073","289646.855713","290396.825323","294263.441533","280480.426232","281247.105562","281997.042734","282763.750994","283530.427401","284296.997732","285063.693426","293498.457371"
"Blocked","Male","cave","8","M_cave.wav","None","737.328759117","401","293496.772723","285830.592797","286580.280999","287346.967049","288113.556083","288880.188073","289646.855713","290396.825323","294263.441533","295030.033488","281247.105562","281997.042734","282763.750994","283530.427401","284296.997732","285063.693426","294268.704998"
"Blocked","Male","cave","8","M_priest.wav","space","449.731449878","401","293496.772723","285830.592797","286580.280999","287346.967049","288113.556083","288880.188073","289646.855713","290396.825323","294263.441533","295030.033488","295796.717201","281997.042734","282763.750994","283530.427401","284296.997732","285063.693426","295035.033664"
"Blocked","Male","cave","8","M_gnash.wav","None","730.670527866","401","293496.772723","285830.592797","286580.280999","287346.967049","288113.556083","288880.188073","289646.855713","290396.825323","294263.441533","295030.033488","295796.717201","296563.637028","282763.750994","283530.427401","284296.997732","285063.693426","295801.775528"
"Blocked","Male","cave","8","M_park.wav","None","727.402047877","401","293496.772723","285830.592797","286580.280999","287346.967049","288113.556083","288880.188073","289646.855713","290396.825323","294263.441533","295030.033488","295796.717201","296563.637028","297313.316755","283530.427401","284296.997732","285063.693426","296569.240345"
"Blocked","Male","cave","8","M_cave.wav","None","742.053371049","401","293496.772723","285830.592797","286580.280999","287346.967049","288113.556083","288880.188073","289646.855713","290396.825323","294263.441533","295030.033488","295796.717201","296563.637028","297313.316755","298080.003974","284296.997732","285063.693426","297318.480281"
"Blocked","Male","cave","8","M_greet.wav","space","447.323849822","401","293496.772723","285830.592797","286580.280999","287346.967049","288113.556083","288880.188073","289646.855713","290396.825323","294263.441533","295030.033488","295796.717201","296563.637028","297313.316755","298080.003974","298846.584826","285063.693426","298085.315072"
"Blocked","Male","cave","8","M_greet.wav","None","734.983401908","401","293496.772723","285830.592797","286580.280999","287346.967049","288113.556083","288880.188073","289646.855713","290396.825323","294263.441533","295030.033488","295796.717201","296563.637028","297313.316755","298080.003974","298846.584826","299613.2437","298851.655718"
"Blocked","Male","cave","8","M_cave.wav","None","732.319817187","401","293496.772723","300379.927413","286580.280999","287346.967049","288113.556083","288880.188073","289646.855713","290396.825323","294263.441533","295030.033488","295796.717201","296563.637028","297313.316755","298080.003974","298846.584826","299613.2437","299618.217867"
"Blocked","Male","cave","8","M_knife.wav","space","587.200182345","401","293496.772723","300379.927413","301129.867215","287346.967049","288113.556083","288880.188073","289646.855713","290396.825323","294263.441533","295030.033488","295796.717201","296563.637028","297313.316755","298080.003974","298846.584826","299613.2437","300385.284388"
"Blocked","Male","cave","8","M_cave.wav","None","742.312570133","401","293496.772723","300379.927413","301129.867215","301896.548006","288113.556083","288880.188073","289646.855713","290396.825323","294263.441533","295030.033488","295796.717201","296563.637028","297313.316755","298080.003974","298846.584826","299613.2437","301134.667512"
"Blocked","Male","cave","8","M_priest.wav","None","739.099319712","401","293496.772723","300379.927413","301129.867215","301896.548006","302663.172983","288880.188073","289646.855713","290396.825323","294263.441533","295030.033488","295796.717201","296563.637028","297313.316755","298080.003974","298846.584826","299613.2437","301901.611885"
"Blocked","Male","cave","8","M_greet.wav","space","423.939241631","401","293496.772723","300379.927413","301129.867215","301896.548006","302663.172983","303429.807602","289646.855713","290396.825323","294263.441533","295030.033488","295796.717201","296563.637028","297313.316755","298080.003974","298846.584826","299613.2437","302668.388524"
"Blocked","Male","cave","8","M_cling.wav","None","732.435536282","401","293496.772723","300379.927413","301129.867215","301896.548006","302663.172983","303429.807602","304196.446313","290396.825323","294263.441533","295030.033488","295796.717201","296563.637028","297313.316755","298080.003974","298846.584826","299613.2437","303434.787615"
"Blocked","Male","cave","8","M_cling.wav","None","729.566520946","401","293496.772723","300379.927413","301129.867215","301896.548006","302663.172983","303429.807602","304196.446313","304946.425566","294263.441533","295030.033488","295796.717201","296563.637028","297313.316755","298080.003974","298846.584826","299613.2437","304201.388337"
"Blocked","Male","done","20","M_jaw.wav","None","743.598045633","401","308063.08707","300379.927413","301129.867215","301896.548006","302663.172983","303429.807602","304196.446313","304946.425566","294263.441533","295030.033488","295796.717201","296563.637028","297313.316755","298080.003974","298846.584826","299613.2437","304951.299794"
"Blocked","Male","done","20","M_done.wav","None","740.222613148","401","308063.08707","300379.927413","301129.867215","301896.548006","302663.172983","303429.807602","304196.446313","304946.425566","308829.650388","295030.033488","295796.717201","296563.637028","297313.316755","298080.003974","298846.584826","299613.2437","308068.174619"
"Blocked","Male","done","20","M_knife.wav","space","448.936027211","401","308063.08707","300379.927413","301129.867215","301896.548006","302663.172983","303429.807602","304196.446313","304946.425566","308829.650388","309596.296405","295796.717201","296563.637028","297313.316755","298080.003974","298846.584826","299613.2437","308835.040093"
"Blocked","Male","done","20","M_cad.wav","None","733.3636268","401","308063.08707","300379.927413","301129.867215","301896.548006","302663.172983","303429.807602","304196.446313","304946.425566","308829.650388","309596.296405","310363.05814","296563.637028","297313.316755","298080.003974","298846.584826","299613.2437","309601.326094"
"Blocked","Male","done","20","M_greet.wav","None","730.684262203","401","308063.08707","300379.927413","301129.867215","301896.548006","302663.172983","303429.807602","304196.446313","304946.425566","308829.650388","309596.296405","310363.05814","311129.768153","297313.316755","298080.003974","298846.584826","299613.2437","310367.945226"
"Blocked","Male","done","20","M_done.wav","None","728.186658407","401","308063.08707","300379.927413","301129.867215","301896.548006","302663.172983","303429.807602","304196.446313","304946.425566","308829.650388","309596.296405","310363.05814","311129.768153","311879.584639","298080.003974","298846.584826","299613.2437","311134.822389"
"Blocked","Male","done","20","M_dime.wav","space","494.905437629","401","308063.08707","300379.927413","301129.867215","301896.548006","302663.172983","303429.807602","304196.446313","304946.425566","308829.650388","309596.296405","310363.05814","311129.768153","311879.584639","312646.258416","298846.584826","299613.2437","311884.877034"
"Blocked","Male","done","20","M_done.wav","None","741.553090518","401","308063.08707","300379.927413","301129.867215","301896.548006","302663.172983","303429.807602","304196.446313","304946.425566","308829.650388","309596.296405","310363.05814","311129.768153","311879.584639","312646.258416","313412.901802","299613.2437","312647.875561"
"Blocked","Male","done","20","M_reek.wav","space","497.784972882","401","308063.08707","300379.927413","301129.867215","301896.548006","302663.172983","303429.807602","304196.446313","304946.425566","308829.650388","309596.296405","310363.05814","311129.768153","311879.584639","312646.258416","313412.901802","314179.571196","313418.003086"
"Blocked","Male","done","20","M_dime.wav","None","731.550694315","401","308063.08707","314946.210492","301129.867215","301896.548006","302663.172983","303429.807602","304196.446313","304946.425566","308829.650388","309596.296405","310363.05814","311129.768153","311879.584639","312646.258416","313412.901802","314179.571196","314184.766575"
"Blocked","Male","done","20","M_jolt.wav","None","729.007211988","401","308063.08707","314946.210492","315696.187406","301896.548006","302663.172983","303429.807602","304196.446313","304946.425566","308829.650388","309596.296405","310363.05814","311129.768153","311879.584639","312646.258416","313412.901802","314179.571196","314951.303885"
"Blocked","Male","done","20","M_done.wav","None","742.711450346","401","308063.08707","314946.210492","315696.187406","316462.803909","302663.172983","303429.807602","304196.446313","304946.425566","308829.650388","309596.296405","310363.05814","311129.768153","311879.584639","312646.258416","313412.901802","314179.571196","315701.590845"
"Blocked","Male","done","20","M_bluff.wav","space","455.545457733","401","308063.08707","314946.210492","315696.187406","316462.803909","317229.441743","303429.807602","304196.446313","304946.425566","308829.650388","309596.296405","310363.05814","311129.768153","311879.584639","312646.258416","313412.901802","314179.571196","316467.978539"
"Blocked","Male","done","20","M_dime.wav","None","736.091499907","401","308063.08707","314946.210492","315696.187406","316462.803909","317229.441743","317996.047141","304196.446313","304946.425566","308829.650388","309596.296405","310363.05814","311129.768153","311879.584639","312646.258416","313412.901802","314179.571196","317234.458867"
"Blocked","Male","done","20","M_bluff.wav","None","733.22540677","401","308063.08707","314946.210492","315696.187406","316462.803909","317229.441743","317996.047141","318762.710398","304946.425566","308829.650388","309596.296405","310363.05814","311129.768153","311879.584639","312646.258416","313412.901802","314179.571196","318001.444735"
"Blocked","Male","done","20","M_romp.wav","None","730.810208996","401","308063.08707","314946.210492","315696.187406","316462.803909","317229.441743","317996.047141","318762.710398","319529.850559","308829.650388","309596.296405","310363.05814","311129.768153","311879.584639","312646.258416","313412.901802","314179.571196","318767.851424"
"Blocked","Male","done","23","M_cling.wav","None","727.43623761","401","322629.318426","314946.210492","315696.187406","316462.803909","317229.441743","317996.047141","318762.710398","319529.850559","308829.650388","309596.296405","310363.05814","311129.768153","311879.584639","312646.258416","313412.901802","314179.571196","319535.433421"
"Blocked","Male","done","23","M_done.wav","None","740.116537311","401","322629.318426","314946.210492","315696.187406","316462.803909","317229.441743","317996.047141","318762.710398","319529.850559","323396.026101","309596.296405","310363.05814","311129.768153","311879.584639","312646.258416","313412.901802","314179.571196","322634.525785"
"Blocked","Male","done","23","M_dime.wav","space","553.948768001","401","322629.318426","314946.210492","315696.187406","316462.803909","317229.441743","317996.047141","318762.710398","319529.850559","323396.026101","324162.61455","310363.05814","311129.768153","311879.584639","312646.258416","313412.901802","314179.571196","323401.187582"
"Blocked","Male","done","23","M_reek.wav","None","733.68740649","401","322629.318426","314946.210492","315696.187406","316462.803909","317229.441743","317996.047141","318762.710398","319529.850559","323396.026101","324162.61455","324929.269041","311129.768153","311879.584639","312646.258416","313412.901802","314179.571196","324167.641025"
"Blocked","Male","done","23","M_jolt.wav","None","731.026743969","401","322629.318426","314946.210492","315696.187406","316462.803909","317229.441743","317996.047141","318762.710398","319529.850559","323396.026101","324162.61455","324929.269041","325696.223057","311879.584639","312646.258416","313412.901802","314179.571196","324934.430814"
"Blocked","Male","done","23","M_done.wav","None","727.738100804","401","322629.318426","314946.210492","315696.187406","316462.803909","317229.441743","317996.047141","318762.710398","319529.850559","323396.026101","324162.61455","324929.269041","325696.223057","326445.865088","312646.258416","313412.901802","314179.571196","325701.86524"
