"Condition","Talker","Target","Trial","current_stimulus","response_response","response_time_response","subject_nr","time_Audio1","time_Audio10","time_Audio11","time_Audio12","time_Audio13","time_Audio14","time_Audio15","time_Audio16","time_Audio2","time_Audio3","time_Audio4","time_Audio5","time_Audio6","time_Audio7","time_Audio8","time_Audio9","time_response","title"
"Blocked","Male","tile","14","M_reek.wav","NA","NA","305","110772.104106","NA","NA","NA","NA","NA","NA","NA","NA","NA","NA","NA","NA","NA","NA","NA","NA","Mapping"
"Blocked","Male","tile","14","M_tile.wav","None","717.840190046","305","110772.104106","NA","NA","NA","NA","NA","NA","NA","111538.45048","NA","NA","NA","NA","NA","NA","NA","110787.563385","Mapping"
"Blocked","Male","tile","14","M_cling.wav","None","723.341618199","305","110772.104106","NA","NA","NA","NA","NA","NA","NA","111538.45048","112305.505169","NA","NA","NA","NA","NA","NA","111548.291772","Mapping"
"Blocked","Male","tile","14","M_cad.wav","space","0.0340091064572","305","110772.104106","NA","NA","NA","NA","NA","NA","NA","111538.45048","112305.505169","113072.148658","NA","NA","NA","NA","NA","112316.227605","Mapping"
"Blocked","Male","tile","14","M_gnash.wav","None","721.662189346","305","110772.104106","NA","NA","NA","NA","NA","NA","NA","111538.45048","112305.505169","113072.148658","113838.57418","NA","NA","NA","NA","113082.414754","Mapping"
"Blocked","Male","tile","14","M_priest.wav","None","721.317461226","305","110772.104106","NA","NA","NA","NA","NA","NA","NA","111538.45048","112305.505169","113072.148658","113838.57418","114605.309493","NA","NA","NA","113849.22396","Mapping"
"Blocked","Male","tile","14","M_romp.wav","None","721.684140619","305","110772.104106","NA","NA","NA","NA","NA","NA","NA","111538.45048","112305.505169","113072.148658","113838.57418","114605.309493","115371.509937","NA","NA","114615.246938","Mapping"
"Blocked","Male","tile","14","M_tile.wav","None","721.805027686","305","110772.104106","NA","NA","NA","NA","NA","NA","NA","111538.45048","112305.505169","113072.148658","113838.57418","114605.309493","115371.509937","116121.621317","NA","115381.370089","Mapping"
"Blocked","Male","tile","14","M_priest.wav","space","499.969237018","305","110772.104106","NA","NA","NA","NA","NA","NA","NA","111538.45048","112305.505169","113072.148658","113838.57418","114605.309493","115371.509937","116121.621317","116887.955633","116131.474667","Mapping"
"Blocked","Male","tile","14","M_cad.wav","None","733.550517354","305","110772.104106","117654.874904","NA","NA","NA","NA","NA","NA","111538.45048","112305.505169","113072.148658","113838.57418","114605.309493","115371.509937","116121.621317","116887.955633","116897.3276","Mapping"
"Blocked","Male","tile","14","M_knife.wav","None","730.169399176","305","110772.104106","117654.874904","118421.463051","NA","NA","NA","NA","NA","111538.45048","112305.505169","113072.148658","113838.57418","114605.309493","115371.509937","116121.621317","116887.955633","117664.27346","Mapping"
"Blocked","Male","tile","14","M_depth.wav","None","730.851744302","305","110772.104106","117654.874904","118421.463051","119188.160336","NA","NA","NA","NA","111538.45048","112305.505169","113072.148658","113838.57418","114605.309493","115371.509937","116121.621317","116887.955633","118430.550888","Mapping"
"Blocked","Male","tile","14","M_tile.wav","None","730.811860878","305","110772.104106","117654.874904","118421.463051","119188.160336","119955.303758","NA","NA","NA","111538.45048","112305.505169","113072.148658","113838.57418","114605.309493","115371.509937","116121.621317","116887.955633","119197.18603","Mapping"
"Blocked","Male","tile","14","M_jolt.wav","space","385.620601475","305","110772.104106","117654.874904","118421.463051","119188.160336","119955.303758","120721.975691","NA","NA","111538.45048","112305.505169","113072.148658","113838.57418","114605.309493","115371.509937","116121.621317","116887.955633","119965.737735","Mapping"
"Blocked","Male","tile","14","M_tile.wav","None","726.335032843","305","110772.104106","117654.874904","118421.463051","119188.160336","119955.303758","120721.975691","121488.942884","NA","111538.45048","112305.505169","113072.148658","113838.57418","114605.309493","115371.509937","116121.621317","116887.955633","120731.99012","Mapping"
"Blocked","Male","tile","14","M_reek.wav","space","579.94337799","305","110772.104106","117654.874904","118421.463051","119188.160336","119955.303758","120721.975691","121488.942884","122255.696439","111538.45048","112305.505169","113072.148658","113838.57418","114605.309493","115371.509937","116121.621317","116887.955633","121499.395721","Mapping"
"Blocked","Male","done","19","M_jolt.wav","None","719.677606598","305","125405.713768","117654.874904","118421.463051","119188.160336","119955.303758","120721.975691","121488.942884","122255.696439","111538.45048","112305.505169","113072.148658","113838.57418","114605.309493","115371.509937","116121.621317","116887.955633","122265.880604","Mapping"
"Blocked","Male","done","19","M_cad.wav","None","719.339061528","305","125405.713768","117654.874904","118421.463051","119188.160336","119955.303758","120721.975691","121488.942884","122255.696439","126154.767466","112305.505169","113072.148658","113838.57418","114605.309493","115371.509937","116121.621317","116887.955633","125415.895151","Mapping"
"Blocked","Male","done","19","M_priest.wav","None","734.655502252","305","125405.713768","117654.874904","118421.463051","119188.160336","119955.303758","120721.975691","121488.942884","122255.696439","126154.767466","126921.497215","113072.148658","113838.57418","114605.309493","115371.509937","116121.621317","116887.955633","126163.783266","Mapping"
"Blocked","Male","done","19","M_dime.wav","None","731.208530255","305","125405.713768","117654.874904","118421.463051","119188.160336","119955.303758","120721.975691","121488.942884","122255.696439","126154.767466","126921.497215","127688.526243","113838.57418","114605.309493","115371.509937","116121.621317","116887.955633","126931.149602","Mapping"
"Blocked","Male","done","19","M_park.wav","space","308.990169317","305","125405.713768","117654.874904","118421.463051","119188.160336","119955.303758","120721.975691","121488.942884","122255.696439","126154.767466","126921.497215","127688.526243","128454.850974","114605.309493","115371.509937","116121.621317","116887.955633","127698.233663","Mapping"
"Blocked","Male","done","19","M_done.wav","None","730.620482471","305","125405.713768","117654.874904","118421.463051","119188.160336","119955.303758","120721.975691","121488.942884","122255.696439","126154.767466","126921.497215","127688.526243","128454.850974","129221.341113","115371.509937","116121.621317","116887.955633","128464.098654","Mapping"
"Blocked","Male","done","19","M_reek.wav","space","616.721694358","305","125405.713768","117654.874904","118421.463051","119188.160336","119955.303758","120721.975691","121488.942884","122255.696439","126154.767466","126921.497215","127688.526243","128454.850974","129221.341113","129988.50123","116121.621317","116887.955633","129230.463577","Mapping"
"Blocked","Male","done","19","M_done.wav","None","726.489929017","305","125405.713768","117654.874904","118421.463051","119188.160336","119955.303758","120721.975691","121488.942884","122255.696439","126154.767466","126921.497215","127688.526243","128454.850974","129221.341113","129988.50123","130755.419883","116887.955633","129997.926375","Mapping"
"Blocked","Male","done","19","M_romp.wav","space","657.593463548","305","125405.713768","117654.874904","118421.463051","119188.160336","119955.303758","120721.975691","121488.942884","122255.696439","126154.767466","126921.497215","127688.526243","128454.850974","129221.341113","129988.50123","130755.419883","131522.247949","130765.576223","Mapping"
"Blocked","Male","done","19","M_bluff.wav","None","718.257265165","305","125405.713768","132272.217109","118421.463051","119188.160336","119955.303758","120721.975691","121488.942884","122255.696439","126154.767466","126921.497215","127688.526243","128454.850974","129221.341113","129988.50123","130755.419883","131522.247949","131532.528885","Mapping"
"Blocked","Male","done","19","M_priest.wav","None","734.99126453","305","125405.713768","132272.217109","133037.974198","119188.160336","119955.303758","120721.975691","121488.942884","122255.696439","126154.767466","126921.497215","127688.526243","128454.850974","129221.341113","129988.50123","130755.419883","131522.247949","132282.191036","Mapping"
"Blocked","Male","done","19","M_lash.wav","None","733.490846585","305","125405.713768","132272.217109","133037.974198","133805.078046","119955.303758","120721.975691","121488.942884","122255.696439","126154.767466","126921.497215","127688.526243","128454.850974","129221.341113","129988.50123","130755.419883","131522.247949","133047.121088","Mapping"
"Blocked","Male","done","19","M_done.wav","None","732.471502386","305","125405.713768","132272.217109","133037.974198","133805.078046","134571.239534","120721.975691","121488.942884","122255.696439","126154.767466","126921.497215","127688.526243","128454.850974","129221.341113","129988.50123","130755.419883","131522.247949","133814.618204","Mapping"
"Blocked","Male","done","19","M_jaw.wav","space","482.720155269","305","125405.713768","132272.217109","133037.974198","133805.078046","134571.239534","135338.429023","121488.942884","122255.696439","126154.767466","126921.497215","127688.526243","128454.850974","129221.341113","129988.50123","130755.419883","131522.247949","134580.390752","Mapping"
"Blocked","Male","done","19","M_done.wav","None","730.638105422","305","125405.713768","132272.217109","133037.974198","133805.078046","134571.239534","135338.429023","136105.025209","122255.696439","126154.767466","126921.497215","127688.526243","128454.850974","129221.341113","129988.50123","130755.419883","131522.247949","135348.110473","Mapping"
"Blocked","Male","done","19","M_dime.wav","space","564.261495136","305","125405.713768","132272.217109","133037.974198","133805.078046","134571.239534","135338.429023","136105.025209","136872.154409","126154.767466","126921.497215","127688.526243","128454.850974","129221.341113","129988.50123","130755.419883","131522.247949","136114.782715","Mapping"
"Blocked","Male","ball","6","M_priest.wav","None","723.361405078","305","139988.536785","132272.217109","133037.974198","133805.078046","134571.239534","135338.429023","136105.025209","136872.154409","126154.767466","126921.497215","127688.526243","128454.850974","129221.341113","129988.50123","130755.419883","131522.247949","136881.975605","Mapping"
"Blocked","Male","ball","6","M_park.wav","None","719.417901244","305","139988.536785","132272.217109","133037.974198","133805.078046","134571.239534","135338.429023","136105.025209","136872.154409","140737.712298","126921.497215","127688.526243","128454.850974","129221.341113","129988.50123","130755.419883","131522.247949","139998.733627","Mapping"
"Blocked","Male","ball","6","M_greet.wav","None","734.141037799","305","139988.536785","132272.217109","133037.974198","133805.078046","134571.239534","135338.429023","136105.025209","136872.154409","140737.712298","141504.985264","127688.526243","128454.850974","129221.341113","129988.50123","130755.419883","131522.247949","140747.399003","Mapping"
"Blocked","Male","ball","6","M_ball.wav","None","733.286792412","305","139988.536785","132272.217109","133037.974198","133805.078046","134571.239534","135338.429023","136105.025209","136872.154409","140737.712298","141504.985264","142271.608038","128454.850974","129221.341113","129988.50123","130755.419883","131522.247949","141514.586946","Mapping"
"Blocked","Male","ball","6","M_reek.wav","space","453.217612114","305","139988.536785","132272.217109","133037.974198","133805.078046","134571.239534","135338.429023","136105.025209","136872.154409","140737.712298","141504.985264","142271.608038","143037.734898","129221.341113","129988.50123","130755.419883","131522.247949","142281.717383","Mapping"
"Blocked","Male","ball","6","M_park.wav","None","730.379636865","305","139988.536785","132272.217109","133037.974198","133805.078046","134571.239534","135338.429023","136105.025209","136872.154409","140737.712298","141504.985264","142271.608038","143037.734898","143804.857296","129988.50123","130755.419883","131522.247949","143047.003602","Mapping"
"Blocked","Male","ball","6","M_ball.wav","None","726.404597051","305","139988.536785","132272.217109","133037.974198","133805.078046","134571.239534","135338.429023","136105.025209","136872.154409","140737.712298","141504.985264","142271.608038","143037.734898","143804.857296","144572.024834","130755.419883","131522.247949","143814.614803","Mapping"
"Blocked","Male","ball","6","M_jolt.wav","space","536.705506034","305","139988.536785","132272.217109","133037.974198","133805.078046","134571.239534","135338.429023","136105.025209","136872.154409","140737.712298","141504.985264","142271.608038","143037.734898","143804.857296","144572.024834","145338.415728","131522.247949","144582.22353","Mapping"
"Blocked","Male","ball","6","M_ball.wav","None","718.695981428","305","139988.536785","132272.217109","133037.974198","133805.078046","134571.239534","135338.429023","136105.025209","136872.154409","140737.712298","141504.985264","142271.608038","143037.734898","143804.857296","144572.024834","145338.415728","146088.165375","145348.682752","Mapping"
"Blocked","Male","ball","6","M_depth.wav","space","636.676351074","305","139988.536785","146854.431055","133037.974198","133805.078046","134571.239534","135338.429023","136105.025209","136872.154409","140737.712298","141504.985264","142271.608038","143037.734898","143804.857296","144572.024834","145338.415728","146088.165375","146098.25246","Mapping"
"Blocked","Male","ball","6","M_jolt.wav","None","730.101999361","305","139988.536785","146854.431055","147621.520062","133805.078046","134571.239534","135338.429023","136105.025209","136872.154409","140737.712298","141504.985264","142271.608038","143037.734898","143804.857296","144572.024834","145338.415728","146088.165375","146863.775196","Mapping"
"Blocked","Male","ball","6","M_cad.wav","None","725.465328898","305","139988.536785","146854.431055","147621.520062","148388.4483","134571.239534","135338.429023","136105.025209","136872.154409","140737.712298","141504.985264","142271.608038","143037.734898","143804.857296","144572.024834","145338.415728","146088.165375","147631.620751","Mapping"
"Blocked","Male","ball","6","M_ball.wav","None","721.868407913","305","139988.536785","146854.431055","147621.520062","148388.4483","149155.214531","135338.429023","136105.025209","136872.154409","140737.712298","141504.985264","142271.608038","143037.734898","143804.857296","144572.024834","145338.415728","146088.165375","148398.574341","Mapping"
"Blocked","Male","ball","6","M_romp.wav","space","353.785965126","305","139988.536785","146854.431055","147621.520062","148388.4483","149155.214531","149904.754867","136105.025209","136872.154409","140737.712298","141504.985264","142271.608038","143037.734898","143804.857296","144572.024834","145338.415728","146088.165375","149165.09045","Mapping"
"Blocked","Male","ball","6","M_park.wav","None","731.920865364","305","139988.536785","146854.431055","147621.520062","148388.4483","149155.214531","149904.754867","150671.441641","136872.154409","140737.712298","141504.985264","142271.608038","143037.734898","143804.857296","144572.024834","145338.415728","146088.165375","149915.13845","Mapping"
"Blocked","Male","ball","6","M_greet.wav","None","729.743667413","305","139988.536785","146854.431055","147621.520062","148388.4483","149155.214531","149904.754867","150671.441641","151438.073072","140737.712298","141504.985264","142271.608038","143037.734898","143804.857296","144572.024834","145338.415728","146088.165375","150681.538619","Mapping"
"Blocked","Male","cave","8","M_park.wav","None","726.95832653","305","154571.705149","146854.431055","147621.520062","148388.4483","149155.214531","149904.754867","150671.441641","151438.073072","140737.712298","141504.985264","142271.608038","143037.734898","143804.857296","144572.024834","145338.415728","146088.165375","151447.887466","Mapping"
"Blocked","Male","cave","8","M_cave.wav","None","718.967435881","305","154571.705149","146854.431055","147621.520062","148388.4483","149155.214531","149904.754867","150671.441641","151438.073072","155337.679897","141504.985264","142271.608038","143037.734898","143804.857296","144572.024834","145338.415728","146088.165375","154581.885913","Mapping"
"Blocked","Male","cave","8","M_lash.wav","space","596.060576849","305","154571.705149","146854.431055","147621.520062","148388.4483","149155.214531","149904.754867","150671.441641","151438.073072","155337.679897","156088.009552","142271.608038","143037.734898","143804.857296","144572.024834","145338.415728","146088.165375","155346.690749","Mapping"
"Blocked","Male","cave","8","M_jaw.wav","None","732.216435019","305","154571.705149","146854.431055","147621.520062","148388.4483","149155.214531","149904.754867","150671.441641","151438.073072","155337.679897","156088.009552","156854.634182","143037.734898","143804.857296","144572.024834","145338.415728","146088.165375","156097.929684","Mapping"
"Blocked","Male","cave","8","M_bluff.wav","None","728.751530871","305","154571.705149","146854.431055","147621.520062","148388.4483","149155.214531","149904.754867","150671.441641","151438.073072","155337.679897","156088.009552","156854.634182","157621.348781","143804.857296","144572.024834","145338.415728","146088.165375","156864.725595","Mapping"
"Blocked","Male","cave","8","M_park.wav","None","725.348461419","305","154571.705149","146854.431055","147621.520062","148388.4483","149155.214531","149904.754867","150671.441641","151438.073072","155337.679897","156088.009552","156854.634182","157621.348781","158388.178392","144572.024834","145338.415728","146088.165375","157631.468638","Mapping"
"Blocked","Male","cave","8","M_cave.wav","None","721.906126942","305","154571.705149","146854.431055","147621.520062","148388.4483","149155.214531","149904.754867","150671.441641","151438.073072","155337.679897","156088.009552","156854.634182","157621.348781","158388.178392","159155.120233","145338.415728","146088.165375","158398.326075","Mapping"
"Blocked","Male","cave","8","M_depth.wav","space","385.753546376","305","154571.705149","146854.431055","147621.520062","148388.4483","149155.214531","149904.754867","150671.441641","151438.073072","155337.679897","156088.009552","156854.634182","157621.348781","158388.178392","159155.120233","159904.206703","146088.165375","159164.878976","Mapping"
"Blocked","Male","cave","8","M_cave.wav","None","733.206716366","305","154571.705149","146854.431055","147621.520062","148388.4483","149155.214531","149904.754867","150671.441641","151438.073072","155337.679897","156088.009552","156854.634182","157621.348781","158388.178392","159155.120233","159904.206703","160671.274378","159913.831265","Mapping"
"Blocked","Male","cave","8","M_jaw.wav","space","445.969664957","305","154571.705149","161437.889114","147621.520062","148388.4483","149155.214531","149904.754867","150671.441641","151438.073072","155337.679897","156088.009552","156854.634182","157621.348781","158388.178392","159155.120233","159904.206703","160671.274378","160680.668605","Mapping"
"Blocked","Male","cave","8","M_depth.wav","None","725.753787439","305","154571.705149","161437.889114","162204.910722","148388.4483","149155.214531","149904.754867","150671.441641","151438.073072","155337.679897","156088.009552","156854.634182","157621.348781","158388.178392","159155.120233","159904.206703","160671.274378","161447.640128","Mapping"
"Blocked","Male","cave","8","M_bluff.wav","None","721.924059093","305","154571.705149","161437.889114","162204.910722","162970.952869","149155.214531","149904.754867","150671.441641","151438.073072","155337.679897","156088.009552","156854.634182","157621.348781","158388.178392","159155.120233","159904.206703","160671.274378","162214.95545","Mapping"
"Blocked","Male","cave","8","M_knife.wav","None","720.375719946","305","154571.705149","161437.889114","162204.910722","162970.952869","163721.226255","149904.754867","150671.441641","151438.073072","155337.679897","156088.009552","156854.634182","157621.348781","158388.178392","159155.120233","159904.206703","160671.274378","162980.28959","Mapping"
"Blocked","Male","cave","8","M_cave.wav","None","732.899707742","305","154571.705149","161437.889114","162204.910722","162970.952869","163721.226255","164487.329309","150671.441641","151438.073072","155337.679897","156088.009552","156854.634182","157621.348781","158388.178392","159155.120233","159904.206703","160671.274378","163731.190907","Mapping"
"Blocked","Male","cave","8","M_gnash.wav","space","374.029080383","305","154571.705149","161437.889114","162204.910722","162970.952869","163721.226255","164487.329309","165254.468712","151438.073072","155337.679897","156088.009552","156854.634182","157621.348781","158388.178392","159155.120233","159904.206703","160671.274378","164496.56926","Mapping"
"Blocked","Male","cave","8","M_greet.wav","None","726.32483067","305","154571.705149","161437.889114","162204.910722","162970.952869","163721.226255","164487.329309","165254.468712","166021.697775","155337.679897","156088.009552","156854.634182","157621.348781","158388.178392","159155.120233","159904.206703","160671.274378","165264.310623","Mapping"
"Blocked","Male","done","20","M_dime.wav","None","722.272806335","305","169137.886609","161437.889114","162204.910722","162970.952869","163721.226255","164487.329309","165254.468712","166021.697775","155337.679897","156088.009552","156854.634182","157621.348781","158388.178392","159155.120233","159904.206703","160671.274378","166031.705403","Mapping"
"Blocked","Male","done","20","M_reek.wav","None","718.727208208","305","169137.886609","161437.889114","162204.910722","162970.952869","163721.226255","164487.329309","165254.468712","166021.697775","169887.610595","156088.009552","156854.634182","157621.348781","158388.178392","159155.120233","159904.206703","160671.274378","169148.76456","Mapping"
"Blocked","Male","done","20","M_done.wav","None","733.542169444","305","169137.886609","161437.889114","162204.910722","162970.952869","163721.226255","164487.329309","165254.468712","166021.697775","169887.610595","170654.031788","156854.634182","157621.348781","158388.178392","159155.120233","159904.206703","160671.274378","169897.528562","Mapping"
"Blocked","Male","done","20","M_romp.wav","space","574.938791804","305","169137.886609","161437.889114","162204.910722","162970.952869","163721.226255","164487.329309","165254.468712","166021.697775","169887.610595","170654.031788","171421.084623","157621.348781","158388.178392","159155.120233","159904.206703","160671.274378","170663.467136","Mapping"
"Blocked","Male","done","20","M_done.wav","None","726.858153939","305","169137.886609","161437.889114","162204.910722","162970.952869","163721.226255","164487.329309","165254.468712","166021.697775","169887.610595","170654.031788","171421.084623","172188.111487","158388.178392","159155.120233","159904.206703","160671.274378","171430.794207","Mapping"
"Blocked","Male","done","20","M_romp.wav","space","720.069328789","305","169137.886609","161437.889114","162204.910722","162970.952869","163721.226255","164487.329309","165254.468712","166021.697775","169887.610595","170654.031788","171421.084623","172188.111487","172954.468063","159155.120233","159904.206703","160671.274378","172198.353777","Mapping"
"Blocked","Male","done","20","M_knife.wav","None","724.801225122","305","169137.886609","161437.889114","162204.910722","162970.952869","163721.226255","164487.329309","165254.468712","166021.697775","169887.610595","170654.031788","171421.084623","172188.111487","172954.468063","173703.933889","159904.206703","160671.274378","172959.508514","Mapping"
"Blocked","Male","done","20","M_done.wav","None","734.534615651","305","169137.886609","161437.889114","162204.910722","162970.952869","163721.226255","164487.329309","165254.468712","166021.697775","169887.610595","170654.031788","171421.084623","172188.111487","172954.468063","173703.933889","174471.046394","160671.274378","173713.404482","Mapping"
"Blocked","Male","done","20","M_cling.wav","space","469.634708948","305","169137.886609","161437.889114","162204.910722","162970.952869","163721.226255","164487.329309","165254.468712","166021.697775","169887.610595","170654.031788","171421.084623","172188.111487","172954.468063","173703.933889","174471.046394","175237.479026","174480.734954","Mapping"
"Blocked","Male","done","20","M_done.wav","None","727.428887971","305","169137.886609","176004.276793","162204.910722","162970.952869","163721.226255","164487.329309","165254.468712","166021.697775","169887.610595","170654.031788","171421.084623","172188.111487","172954.468063","173703.933889","174471.046394","175237.479026","175247.142544","Mapping"
"Blocked","Male","done","20","M_cling.wav","space","400.369400159","305","169137.886609","176004.276793","176770.675417","162970.952869","163721.226255","164487.329309","165254.468712","166021.697775","169887.610595","170654.031788","171421.084623","172188.111487","172954.468063","173703.933889","174471.046394","175237.479026","176013.982049","Mapping"
"Blocked","Male","done","20","M_romp.wav","None","721.420106478","305","169137.886609","176004.276793","176770.675417","177520.854814","163721.226255","164487.329309","165254.468712","166021.697775","169887.610595","170654.031788","171421.084623","172188.111487","172954.468063","173703.933889","174471.046394","175237.479026","176780.05264","Mapping"
"Blocked","Male","done","20","M_depth.wav","None","734.292532783","305","169137.886609","176004.276793","176770.675417","177520.854814","178287.553336","164487.329309","165254.468712","166021.697775","169887.610595","170654.031788","171421.084623","172188.111487","172954.468063","173703.933889","174471.046394","175237.479026","177530.676011","Mapping"
"Blocked","Male","done","20","M_depth.wav","None","731.736288872","305","169137.886609","176004.276793","176770.675417","177520.854814","178287.553336","179054.19868","165254.468712","166021.697775","169887.610595","170654.031788","171421.084623","172188.111487","172954.468063","173703.933889","174471.046394","175237.479026","178296.852957","Mapping"
"Blocked","Male","done","20","M_priest.wav","None","728.456270415","305","169137.886609","176004.276793","176770.675417","177520.854814","178287.553336","179054.19868","179820.461886","166021.697775","169887.610595","170654.031788","171421.084623","172188.111487","172954.468063","173703.933889","174471.046394","175237.479026","179063.788615","Mapping"
"Blocked","Male","done","20","M_greet.wav","None","724.663024303","305","169137.886609","176004.276793","176770.675417","177520.854814","178287.553336","179054.19868","179820.461886","180587.926539","169887.610595","170654.031788","171421.084623","172188.111487","172954.468063","173703.933889","174471.046394","175237.479026","179830.989543","Mapping"
"Blocked","Male","tile","17","M_dime.wav","None","720.915535931","305","183704.52441","176004.276793","176770.675417","177520.854814","178287.553336","179054.19868","179820.461886","180587.926539","169887.610595","170654.031788","171421.084623","172188.111487","172954.468063","173703.933889","174471.046394","175237.479026","180598.415859","Mapping"
"Blocked","Male","tile","17","M_tile.wav","None","719.47324276","305","183704.52441","176004.276793","176770.675417","177520.854814","178287.553336","179054.19868","179820.461886","180587.926539","184453.98498","170654.031788","171421.084623","172188.111487","172954.468063","173703.933889","174471.046394","175237.479026","183714.793907","Mapping"
"Blocked","Male","tile","17","M_reek.wav","space","382.446629927","305","183704.52441","176004.276793","176770.675417","177520.854814","178287.553336","179054.19868","179820.461886","180587.926539","184453.98498","185220.673299","171421.084623","172188.111487","172954.468063","173703.933889","174471.046394","175237.479026","184463.735066","Mapping"
"Blocked","Male","tile","17","M_depth.wav","None","731.487713754","305","183704.52441","176004.276793","176770.675417","177520.854814","178287.553336","179054.19868","179820.461886","180587.926539","184453.98498","185220.673299","185987.473229","172188.111487","172954.468063","173703.933889","174471.046394","175237.479026","185230.113284","Mapping"
"Blocked","Male","tile","17","M_tile.wav","None","728.43030002","305","183704.52441","176004.276793","176770.675417","177520.854814","178287.553336","179054.19868","179820.461886","180587.926539","184453.98498","185220.673299","185987.473229","186754.074671","172954.468063","173703.933889","174471.046394","175237.479026","185996.977214","Mapping"
"Blocked","Male","tile","17","M_depth.wav","space","529.047285672","305","183704.52441","176004.276793","176770.675417","177520.854814","178287.553336","179054.19868","179820.461886","180587.926539","184453.98498","185220.673299","185987.473229","186754.074671","187521.127814","173703.933889","174471.046394","175237.479026","186765.129777","Mapping"
"Blocked","Male","tile","17","M_priest.wav","None","720.889565535","305","183704.52441","176004.276793","176770.675417","177520.854814","178287.553336","179054.19868","179820.461886","180587.926539","184453.98498","185220.673299","185987.473229","186754.074671","187521.127814","188287.818607","174471.046394","175237.479026","187531.784087","Mapping"
"Blocked","Male","tile","17","M_greet.wav","None","718.749159481","305","183704.52441","176004.276793","176770.675417","177520.854814","178287.553336","179054.19868","179820.461886","180587.926539","184453.98498","185220.673299","185987.473229","186754.074671","187521.127814","188287.818607","189037.358635","175237.479026","188297.74925","Mapping"
"Blocked","Male","tile","17","M_tile.wav","None","733.288647607","305","183704.52441","176004.276793","176770.675417","177520.854814","178287.553336","179054.19868","179820.461886","180587.926539","184453.98498","185220.673299","185987.473229","186754.074671","187521.127814","188287.818607","189037.358635","189803.800542","189047.047504","Mapping"
"Blocked","Male","tile","17","M_romp.wav","space","440.805235412","305","183704.52441","190570.716104","176770.675417","177520.854814","178287.553336","179054.19868","179820.461886","180587.926539","184453.98498","185220.673299","185987.473229","186754.074671","187521.127814","188287.818607","189037.358635","189803.800542","189813.337917","Mapping"
"Blocked","Male","tile","17","M_jolt.wav","None","727.00717533","305","183704.52441","190570.716104","191337.732146","177520.854814","178287.553336","179054.19868","179820.461886","180587.926539","184453.98498","185220.673299","185987.473229","186754.074671","187521.127814","188287.818607","189037.358635","189803.800542","190580.284705","Mapping"
"Blocked","Male","tile","17","M_tile.wav","None","722.950204741","305","183704.52441","190570.716104","191337.732146","192103.805829","178287.553336","179054.19868","179820.461886","180587.926539","184453.98498","185220.673299","185987.473229","186754.074671","187521.127814","188287.818607","189037.358635","189803.800542","191348.248364","Mapping"
"Blocked","Male","tile","17","M_jolt.wav","space","564.495848026","305","183704.52441","190570.716104","191337.732146","192103.805829","192853.784883","179054.19868","179820.461886","180587.926539","184453.98498","185220.673299","185987.473229","186754.074671","187521.127814","188287.818607","189037.358635","189803.800542","192113.55066","Mapping"
"Blocked","Male","tile","17","M_lash.wav","None","734.254504554","305","183704.52441","190570.716104","191337.732146","192103.805829","192853.784883","193620.520196","179820.461886","180587.926539","184453.98498","185220.673299","185987.473229","186754.074671","187521.127814","188287.818607","189037.358635","189803.800542","192863.97956","Mapping"
"Blocked","Male","tile","17","M_gnash.wav","None","731.985482387","305","183704.52441","190570.716104","191337.732146","192103.805829","192853.784883","193620.520196","194387.232013","180587.926539","184453.98498","185220.673299","185987.473229","186754.074671","187521.127814","188287.818607","189037.358635","189803.800542","193630.275847","Mapping"
"Blocked","Male","tile","17","M_romp.wav","None","729.043390136","305","183704.52441","190570.716104","191337.732146","192103.805829","192853.784883","193620.520196","194387.232013","195153.924351","184453.98498","185220.673299","185987.473229","186754.074671","187521.127814","188287.818607","189037.358635","189803.800542","194396.955819","Mapping"
"Blocked","Male","ball","4","M_priest.wav","None","726.874230895","305","198287.530458","190570.716104","191337.732146","192103.805829","192853.784883","193620.520196","194387.232013","195153.924351","184453.98498","185220.673299","185987.473229","186754.074671","187521.127814","188287.818607","189037.358635","189803.800542","195163.303429","Mapping"
"Blocked","Male","ball","4","M_ball.wav","None","719.433359336","305","198287.530458","190570.716104","191337.732146","192103.805829","192853.784883","193620.520196","194387.232013","195153.924351","199036.968458","185220.673299","185987.473229","186754.074671","187521.127814","188287.818607","189037.358635","189803.800542","198297.550452","Mapping"
"Blocked","Male","ball","4","M_greet.wav","space","527.526772115","305","198287.530458","190570.716104","191337.732146","192103.805829","192853.784883","193620.520196","194387.232013","195153.924351","199036.968458","199803.878145","185987.473229","186754.074671","187521.127814","188287.818607","189037.358635","189803.800542","199046.40597","Mapping"
"Blocked","Male","ball","4","M_gnash.wav","None","730.082830414","305","198287.530458","190570.716104","191337.732146","192103.805829","192853.784883","193620.520196","194387.232013","195153.924351","199036.968458","199803.878145","200570.053237","186754.074671","187521.127814","188287.818607","189037.358635","189803.800542","199813.788074","Mapping"
"Blocked","Male","ball","4","M_depth.wav","None","728.502337355","305","198287.530458","190570.716104","191337.732146","192103.805829","192853.784883","193620.520196","194387.232013","195153.924351","199036.968458","199803.878145","200570.053237","201337.082883","187521.127814","188287.818607","189037.358635","189803.800542","200579.342345","Mapping"
"Blocked","Male","ball","4","M_dime.wav","None","724.790712819","305","198287.530458","190570.716104","191337.732146","192103.805829","192853.784883","193620.520196","194387.232013","195153.924351","199036.968458","199803.878145","200570.053237","201337.082883","202104.257222","188287.818607","189037.358635","189803.800542","201346.752275","Mapping"
"Blocked","Male","ball","4","M_ball.wav","None","721.273249481","305","198287.530458","190570.716104","191337.732146","192103.805829","192853.784883","193620.520196","194387.232013","195153.924351","199036.968458","199803.878145","200570.053237","201337.082883","202104.257222","202870.124996","189037.358635","189803.800542","202114.299786","Mapping"
"Blocked","Male","ball","4","M_jaw.wav","space","430.642093997","305","198287.530458","190570.716104","191337.732146","192103.805829","192853.784883","193620.520196","194387.232013","195153.924351","199036.968458","199803.878145","200570.053237","201337.082883","202104.257222","202870.124996","203620.181961","189803.800542","202879.266938","Mapping"
"Blocked","Male","ball","4","M_romp.wav","None","733.693973161","305","198287.530458","190570.716104","191337.732146","192103.805829","192853.784883","193620.520196","194387.232013","195153.924351","199036.968458","199803.878145","200570.053237","201337.082883","202104.257222","202870.124996","203620.181961","204387.041253","203629.345855","Mapping"
"Blocked","Male","ball","4","M_gnash.wav","None","730.168471579","305","198287.530458","205153.761726","191337.732146","192103.805829","192853.784883","193620.520196","194387.232013","195153.924351","199036.968458","199803.878145","200570.053237","201337.082883","202104.257222","202870.124996","203620.181961","204387.041253","204397.028475","Mapping"
"Blocked","Male","ball","4","M_ball.wav","None","727.049223147","305","198287.530458","205153.761726","205920.695528","192103.805829","192853.784883","193620.520196","194387.232013","195153.924351","199036.968458","199803.878145","200570.053237","201337.082883","202104.257222","202870.124996","203620.181961","204387.041253","205163.881583","Mapping"
"Blocked","Male","ball","4","M_romp.wav","space","483.108167537","305","198287.530458","205153.761726","205920.695528","206687.083331","192853.784883","193620.520196","194387.232013","195153.924351","199036.968458","199803.878145","200570.053237","201337.082883","202104.257222","202870.124996","203620.181961","204387.041253","205930.705938","Mapping"
"Blocked","Male","ball","4","M_gnash.wav","None","721.41639702","305","198287.530458","205153.761726","205920.695528","206687.083331","207436.952937","193620.520196","194387.232013","195153.924351","199036.968458","199803.878145","200570.053237","201337.082883","202104.257222","202870.124996","203620.181961","204387.041253","206696.903599","Mapping"
"Blocked","Male","ball","4","M_jaw.wav","None","736.069969833","305","198287.530458","205153.761726","205920.695528","206687.083331","207436.952937","208203.570147","194387.232013","195153.924351","199036.968458","199803.878145","200570.053237","201337.082883","202104.257222","202870.124996","203620.181961","204387.041253","207446.292132","Mapping"
"Blocked","Male","ball","4","M_ball.wav","None","738.573345356","305","198287.530458","205153.761726","205920.695528","206687.083331","207436.952937","208203.570147","208970.406251","195153.924351","199036.968458","199803.878145","200570.053237","201337.082883","202104.257222","202870.124996","203620.181961","204387.041253","208207.828698","Mapping"
"Blocked","Male","ball","4","M_depth.wav","space","401.757587679","305","198287.530458","205153.761726","205920.695528","206687.083331","207436.952937","208203.570147","208970.406251","209736.631738","199036.968458","199803.878145","200570.053237","201337.082883","202104.257222","202870.124996","203620.181961","204387.041253","208980.009789","Mapping"
"Blocked","Male","done","23","M_jaw.wav","None","728.291481268","305","212870.779206","205153.761726","205920.695528","206687.083331","207436.952937","208203.570147","208970.406251","209736.631738","199036.968458","199803.878145","200570.053237","201337.082883","202104.257222","202870.124996","203620.181961","204387.041253","209746.020091","Mapping"
"Blocked","Male","done","23","M_romp.wav","None","719.056477305","305","212870.779206","205153.761726","205920.695528","206687.083331","207436.952937","208203.570147","208970.406251","209736.631738","213620.292027","199803.878145","200570.053237","201337.082883","202104.257222","202870.124996","203620.181961","204387.041253","212880.700883","Mapping"
"Blocked","Male","done","23","M_done.wav","None","733.070680406","305","212870.779206","205153.761726","205920.695528","206687.083331","207436.952937","208203.570147","208970.406251","209736.631738","213620.292027","214386.872444","200570.053237","201337.082883","202104.257222","202870.124996","203620.181961","204387.041253","213630.34974","Mapping"
"Blocked","Male","done","23","M_gnash.wav","space","376.506485045","305","212870.779206","205153.761726","205920.695528","206687.083331","207436.952937","208203.570147","208970.406251","209736.631738","213620.292027","214386.872444","215153.185736","201337.082883","202104.257222","202870.124996","203620.181961","204387.041253","214397.182134","Mapping"
"Blocked","Male","done","23","M_depth.wav","None","727.20102733","305","212870.779206","205153.761726","205920.695528","206687.083331","207436.952937","208203.570147","208970.406251","209736.631738","213620.292027","214386.872444","215153.185736","215920.707895","202104.257222","202870.124996","203620.181961","204387.041253","215162.958083","Mapping"
"Blocked","Male","done","23","M_done.wav","None","722.496957052","305","212870.779206","205153.761726","205920.695528","206687.083331","207436.952937","208203.570147","208970.406251","209736.631738","213620.292027","214386.872444","215153.185736","215920.707895","216687.190923","202870.124996","203620.181961","204387.041253","215931.482581","Mapping"
"Blocked","Male","done","23","M_cad.wav","None","720.435390249","305","212870.779206","205153.761726","205920.695528","206687.083331","207436.952937","208203.570147","208970.406251","209736.631738","213620.292027","214386.872444","215153.185736","215920.707895","216687.190923","217436.679628","203620.181961","204387.041253","216697.432595","Mapping"
"Blocked","Male","done","23","M_bluff.wav","space","39.0402278863","305","212870.779206","205153.761726","205920.695528","206687.083331","207436.952937","208203.570147","208970.406251","209736.631738","213620.292027","214386.872444","215153.185736","215920.707895","216687.190923","217436.679628","218203.520679","204387.041253","217446.597286","Mapping"
"Blocked","Male","done","23","M_done.wav","None","731.853774749","305","212870.779206","205153.761726","205920.695528","206687.083331","207436.952937","208203.570147","208970.406251","209736.631738","213620.292027","214386.872444","215153.185736","215920.707895","216687.190923","217436.679628","218203.520679","218969.792851","218213.028064","Mapping"
"Blocked","Male","done","23","M_cling.wav","space","538.333612029","305","212870.779206","219736.386872","205920.695528","206687.083331","207436.952937","208203.570147","208970.406251","209736.631738","213620.292027","214386.872444","215153.185736","215920.707895","216687.190923","217436.679628","218203.520679","218969.792851","218979.240875","Mapping"
"Blocked","Male","done","23","M_done.wav","None","726.268560626","305","212870.779206","219736.386872","220504.214185","206687.083331","207436.952937","208203.570147","208970.406251","209736.631738","213620.292027","214386.872444","215153.185736","215920.707895","216687.190923","217436.679628","218203.520679","218969.792851","219745.738125","Mapping"
"Blocked","Male","done","23","M_depth.wav","space","491.168622393","305","212870.779206","219736.386872","220504.214185","221270.752246","207436.952937","208203.570147","208970.406251","209736.631738","213620.292027","214386.872444","215153.185736","215920.707895","216687.190923","217436.679628","218203.520679","218969.792851","220514.410717","Mapping"
"Blocked","Male","done","23","M_gnash.wav","None","717.870180029","305","212870.779206","219736.386872","220504.214185","221270.752246","222020.127485","208203.570147","208970.406251","209736.631738","213620.292027","214386.872444","215153.185736","215920.707895","216687.190923","217436.679628","218203.520679","218969.792851","221281.117896","Mapping"
"Blocked","Male","done","23","M_reek.wav","None","732.966798358","305","212870.779206","219736.386872","220504.214185","221270.752246","222020.127485","222786.818277","208970.406251","209736.631738","213620.292027","214386.872444","215153.185736","215920.707895","216687.190923","217436.679628","218203.520679","218969.792851","222029.92271","Mapping"
"Blocked","Male","done","23","M_cling.wav","None","730.424776208","305","212870.779206","219736.386872","220504.214185","221270.752246","222020.127485","222786.818277","223553.403951","209736.631738","213620.292027","214386.872444","215153.185736","215920.707895","216687.190923","217436.679628","218203.520679","218969.792851","222796.432327","Mapping"
"Blocked","Male","done","23","M_jolt.wav","None","733.224957716","305","212870.779206","219736.386872","220504.214185","221270.752246","222020.127485","222786.818277","223553.403951","224319.696219","213620.292027","214386.872444","215153.185736","215920.707895","216687.190923","217436.679628","218203.520679","218969.792851","223557.641788","Mapping"
"Blocked","Male","tile","13","M_gnash.wav","None","725.497174077","305","227436.828959","219736.386872","220504.214185","221270.752246","222020.127485","222786.818277","223553.403951","224319.696219","213620.292027","214386.872444","215153.185736","215920.707895","216687.190923","217436.679628","218203.520679","218969.792851","224329.414151","Mapping"
"Blocked","Male","tile","13","M_tile.wav","None","719.898046926","305","227436.828959","219736.386872","220504.214185","221270.752246","222020.127485","222786.818277","223553.403951","224319.696219","228186.366823","214386.872444","215153.185736","215920.707895","216687.190923","217436.679628","218203.520679","218969.792851","227446.713226","Mapping"
"Blocked","Male","tile","13","M_gnash.wav","space","393.455360085","305","227436.828959","219736.386872","220504.214185","221270.752246","222020.127485","222786.818277","223553.403951","224319.696219","228186.366823","228953.345455","215153.185736","215920.707895","216687.190923","217436.679628","218203.520679","218969.792851","228195.965723","Mapping"
"Blocked","Male","tile","13","M_jaw.wav","None","730.672732927","305","227436.828959","219736.386872","220504.214185","221270.752246","222020.127485","222786.818277","223553.403951","224319.696219","228186.366823","228953.345455","229719.528585","215920.707895","216687.190923","217436.679628","218203.520679","218969.792851","228963.158303","Mapping"
"Blocked","Male","tile","13","M_lash.wav","None","731.833369005","305","227436.828959","219736.386872","220504.214185","221270.752246","222020.127485","222786.818277","223553.403951","224319.696219","228186.366823","228953.345455","229719.528585","230486.35325","216687.190923","217436.679628","218203.520679","218969.792851","229728.37403","Mapping"
"Blocked","Male","tile","13","M_bluff.wav","None","728.385469876","305","227436.828959","219736.386872","220504.214185","221270.752246","222020.127485","222786.818277","223553.403951","224319.696219","228186.366823","228953.345455","229719.528585","230486.35325","231252.892238","217436.679628","218203.520679","218969.792851","230495.965444","Mapping"
"Blocked","Male","tile","13","M_tile.wav","None","726.12603195","305","227436.828959","219736.386872","220504.214185","221270.752246","222020.127485","222786.818277","223553.403951","224319.696219","228186.366823","228953.345455","229719.528585","230486.35325","231252.892238","232020.389664","218203.520679","218969.792851","231262.361286","Mapping"
"Blocked","Male","tile","13","M_park.wav","space","478.29712322","305","227436.828959","219736.386872","220504.214185","221270.752246","222020.127485","222786.818277","223553.403951","224319.696219","228186.366823","228953.345455","229719.528585","230486.35325","231252.892238","232020.389664","232786.767263","218969.792851","232031.064177","Mapping"
"Blocked","Male","tile","13","M_tile.wav","None","718.363311142","305","227436.828959","219736.386872","220504.214185","221270.752246","222020.127485","222786.818277","223553.403951","224319.696219","228186.366823","228953.345455","229719.528585","230486.35325","231252.892238","232020.389664","232786.767263","233536.384275","232797.215463","Mapping"
"Blocked","Male","tile","13","M_lash.wav","space","491.335885134","305","227436.828959","234303.225017","220504.214185","221270.752246","222020.127485","222786.818277","223553.403951","224319.696219","228186.366823","228953.345455","229719.528585","230486.35325","231252.892238","232020.389664","232786.767263","233536.384275","233545.995233","Mapping"
"Blocked","Male","tile","13","M_depth.wav","None","729.60515786","305","227436.828959","234303.225017","235069.917046","221270.752246","222020.127485","222786.818277","223553.403951","224319.696219","228186.366823","228953.345455","229719.528585","230486.35325","231252.892238","232020.389664","232786.767263","233536.384275","234313.303754","Mapping"
"Blocked","Male","tile","13","M_romp.wav","None","726.934829261","305","227436.828959","234303.225017","235069.917046","235836.617114","222020.127485","222786.818277","223553.403951","224319.696219","228186.366823","228953.345455","229719.528585","230486.35325","231252.892238","232020.389664","232786.767263","233536.384275","235079.975996","Mapping"
"Blocked","Male","tile","13","M_cad.wav","None","724.847909994","305","227436.828959","234303.225017","235069.917046","235836.617114","236603.580597","222786.818277","223553.403951","224319.696219","228186.366823","228953.345455","229719.528585","230486.35325","231252.892238","232020.389664","232786.767263","233536.384275","235846.023399","Mapping"
"Blocked","Male","tile","13","M_cling.wav","None","720.637280028","305","227436.828959","234303.225017","235069.917046","235836.617114","236603.580597","237369.479906","223553.403951","224319.696219","228186.366823","228953.345455","229719.528585","230486.35325","231252.892238","232020.389664","232786.767263","233536.384275","236614.286955","Mapping"
"Blocked","Male","tile","13","M_tile.wav","None","720.002547372","305","227436.828959","234303.225017","235069.917046","235836.617114","236603.580597","237369.479906","238119.45865","224319.696219","228186.366823","228953.345455","229719.528585","230486.35325","231252.892238","232020.389664","232786.767263","233536.384275","237378.939988","Mapping"
"Blocked","Male","tile","13","M_cling.wav","space","340.57561215","305","227436.828959","234303.225017","235069.917046","235836.617114","236603.580597","237369.479906","238119.45865","238886.304957","228186.366823","228953.345455","229719.528585","230486.35325","231252.892238","232020.389664","232786.767263","233536.384275","238128.667683","Mapping"
"Blocked","Male","cave","12","M_lash.wav","None","731.025190558","305","242020.13676","234303.225017","235069.917046","235836.617114","236603.580597","237369.479906","238119.45865","238886.304957","228186.366823","228953.345455","229719.528585","230486.35325","231252.892238","232020.389664","232786.767263","233536.384275","238895.274999","Mapping"
"Blocked","Male","cave","12","M_bluff.wav","None","719.065752346","305","242020.13676","234303.225017","235069.917046","235836.617114","236603.580597","237369.479906","238119.45865","238886.304957","242769.665657","228953.345455","229719.528585","230486.35325","231252.892238","232020.389664","232786.767263","233536.384275","242030.271148","Mapping"
"Blocked","Male","cave","12","M_cave.wav","None","733.979958575","305","242020.13676","234303.225017","235069.917046","235836.617114","236603.580597","237369.479906","238119.45865","238886.304957","242769.665657","243536.396951","229719.528585","230486.35325","231252.892238","232020.389664","232786.767263","233536.384275","242779.718115","Mapping"
"Blocked","Male","cave","12","M_park.wav","space","370.986816008","305","242020.13676","234303.225017","235069.917046","235836.617114","236603.580597","237369.479906","238119.45865","238886.304957","242769.665657","243536.396951","244303.08558","230486.35325","231252.892238","232020.389664","232786.767263","233536.384275","243546.207326","Mapping"
"Blocked","Male","cave","12","M_lash.wav","None","727.746718097","305","242020.13676","234303.225017","235069.917046","235836.617114","236603.580597","237369.479906","238119.45865","238886.304957","242769.665657","243536.396951","244303.08558","245069.247995","231252.892238","232020.389664","232786.767263","233536.384275","244313.042193","Mapping"
"Blocked","Male","cave","12","M_cave.wav","None","725.063094404","305","242020.13676","234303.225017","235069.917046","235836.617114","236603.580597","237369.479906","238119.45865","238886.304957","242769.665657","243536.396951","244303.08558","245069.247995","245836.461909","232020.389664","232786.767263","233536.384275","245079.632504","Mapping"
"Blocked","Male","cave","12","M_reek.wav","space","542.424282525","305","242020.13676","234303.225017","235069.917046","235836.617114","236603.580597","237369.479906","238119.45865","238886.304957","242769.665657","243536.396951","244303.08558","245069.247995","245836.461909","246603.697155","232786.767263","233536.384275","245846.69616","Mapping"
"Blocked","Male","cave","12","M_reek.wav","None","717.806180939","305","242020.13676","234303.225017","235069.917046","235836.617114","236603.580597","237369.479906","238119.45865","238886.304957","242769.665657","243536.396951","244303.08558","245069.247995","245836.461909","246603.697155","247352.555456","233536.384275","246614.228213","Mapping"
"Blocked","Male","cave","12","M_dime.wav","None","733.876076527","305","242020.13676","234303.225017","235069.917046","235836.617114","236603.580597","237369.479906","238119.45865","238886.304957","242769.665657","243536.396951","244303.08558","245069.247995","245836.461909","246603.697155","247352.555456","248119.700423","247362.073353","Mapping"
"Blocked","Male","cave","12","M_greet.wav","None","730.58307264","305","242020.13676","248886.27002","235069.917046","235836.617114","236603.580597","237369.479906","238119.45865","238886.304957","242769.665657","243536.396951","244303.08558","245069.247995","245836.461909","246603.697155","247352.555456","248119.700423","248129.433505","Mapping"
"Blocked","Male","cave","12","M_cling.wav","None","728.02621033","305","242020.13676","248886.27002","249653.004406","235836.617114","236603.580597","237369.479906","238119.45865","238886.304957","242769.665657","243536.396951","244303.08558","245069.247995","245836.461909","246603.697155","247352.555456","248119.700423","248895.985479","Mapping"
"Blocked","Male","cave","12","M_cave.wav","None","724.976216909","305","242020.13676","248886.27002","249653.004406","250420.063424","236603.580597","237369.479906","238119.45865","238886.304957","242769.665657","243536.396951","244303.08558","245069.247995","245836.461909","246603.697155","247352.555456","248119.700423","249663.085307","Mapping"
"Blocked","Male","cave","12","M_cad.wav","space","478.6075335","305","242020.13676","248886.27002","249653.004406","250420.063424","251186.529447","237369.479906","238119.45865","238886.304957","242769.665657","243536.396951","244303.08558","245069.247995","245836.461909","246603.697155","247352.555456","248119.700423","250430.358273","Mapping"
"Blocked","Male","cave","12","M_jolt.wav","None","718.919514213","305","242020.13676","248886.27002","249653.004406","250420.063424","251186.529447","251936.278785","238119.45865","238886.304957","242769.665657","243536.396951","244303.08558","245069.247995","245836.461909","246603.697155","247352.555456","248119.700423","251196.180598","Mapping"
"Blocked","Male","cave","12","M_cave.wav","None","732.670609839","305","242020.13676","248886.27002","249653.004406","250420.063424","251186.529447","251936.278785","252702.9164","238886.304957","242769.665657","243536.396951","244303.08558","245069.247995","245836.461909","246603.697155","247352.555456","248119.700423","251946.591258","Mapping"
"Blocked","Male","cave","12","M_cling.wav","space","531.93465434","305","242020.13676","248886.27002","249653.004406","250420.063424","251186.529447","251936.278785","252702.9164","253469.596681","242769.665657","243536.396951","244303.08558","245069.247995","245836.461909","246603.697155","247352.555456","248119.700423","252713.055426","Mapping"
"Blocked","Male","tile","18","M_greet.wav","None","726.979968604","305","256603.340678","248886.27002","249653.004406","250420.063424","251186.529447","251936.278785","252702.9164","253469.596681","242769.665657","243536.396951","244303.08558","245069.247995","245836.461909","246603.697155","247352.555456","248119.700423","253479.312448","Mapping"
"Blocked","Male","tile","18","M_romp.wav","None","719.864656217","305","256603.340678","248886.27002","249653.004406","250420.063424","251186.529447","251936.278785","252702.9164","253469.596681","257352.28091","243536.396951","244303.08558","245069.247995","245836.461909","246603.697155","247352.555456","248119.700423","256613.282143","Mapping"
"Blocked","Male","tile","18","M_tile.wav","None","735.839944798","305","256603.340678","248886.27002","249653.004406","250420.063424","251186.529447","251936.278785","252702.9164","253469.596681","257352.28091","258119.081459","244303.08558","245069.247995","245836.461909","246603.697155","247352.555456","248119.700423","257361.478194","Mapping"
"Blocked","Male","tile","18","M_park.wav","space","380.099386908","305","256603.340678","248886.27002","249653.004406","250420.063424","251186.529447","251936.278785","252702.9164","253469.596681","257352.28091","258119.081459","258886.07184","245069.247995","245836.461909","246603.697155","247352.555456","248119.700423","258128.78084","Mapping"
"Blocked","Male","tile","18","M_romp.wav","None","729.069979396","305","256603.340678","248886.27002","249653.004406","250420.063424","251186.529447","251936.278785","252702.9164","253469.596681","257352.28091","258119.081459","258886.07184","259652.434909","245836.461909","246603.697155","247352.555456","248119.700423","258895.659301","Mapping"
"Blocked","Male","tile","18","M_jaw.wav","None","727.237200364","305","256603.340678","248886.27002","249653.004406","250420.063424","251186.529447","251936.278785","252702.9164","253469.596681","257352.28091","258119.081459","258886.07184","259652.434909","260419.816085","246603.697155","247352.555456","248119.700423","259661.606841","Mapping"
"Blocked","Male","tile","18","M_cad.wav","None","722.771502566","305","256603.340678","248886.27002","249653.004406","250420.063424","251186.529447","251936.278785","252702.9164","253469.596681","257352.28091","258119.081459","258886.07184","259652.434909","260419.816085","261186.503168","247352.555456","248119.700423","260430.267067","Mapping"
"Blocked","Male","tile","18","M_tile.wav","None","720.813199878","305","256603.340678","248886.27002","249653.004406","250420.063424","251186.529447","251936.278785","252702.9164","253469.596681","257352.28091","258119.081459","258886.07184","259652.434909","260419.816085","261186.503168","261952.566957","248119.700423","261196.442468","Mapping"
"Blocked","Male","tile","18","M_jolt.wav","space","522.577527445","305","256603.340678","248886.27002","249653.004406","250420.063424","251186.529447","251936.278785","252702.9164","253469.596681","257352.28091","258119.081459","258886.07184","259652.434909","260419.816085","261186.503168","261952.566957","262702.39668","261962.255827","Mapping"
"Blocked","Male","tile","18","M_knife.wav","None","733.108709101","305","256603.340678","263469.397882","249653.004406","250420.063424","251186.529447","251936.278785","252702.9164","253469.596681","257352.28091","258119.081459","258886.07184","259652.434909","260419.816085","261186.503168","261952.566957","262702.39668","262711.725053","Mapping"
"Blocked","Male","tile","18","M_tile.wav","None","729.822815862","305","256603.340678","263469.397882","264235.565553","250420.063424","251186.529447","251936.278785","252702.9164","253469.596681","257352.28091","258119.081459","258886.07184","259652.434909","260419.816085","261186.503168","261952.566957","262702.39668","263479.23701","Mapping"
"Blocked","Male","tile","18","M_knife.wav","space","463.90851168","305","256603.340678","263469.397882","264235.565553","265003.021241","251186.529447","251936.278785","252702.9164","253469.596681","257352.28091","258119.081459","258886.07184","259652.434909","260419.816085","261186.503168","261952.566957","262702.39668","264244.864556","Mapping"
"Blocked","Male","tile","18","M_park.wav","None","723.163843155","305","256603.340678","263469.397882","264235.565553","265003.021241","265769.082866","251936.278785","252702.9164","253469.596681","257352.28091","258119.081459","258886.07184","259652.434909","260419.816085","261186.503168","261952.566957","262702.39668","265013.191493","Mapping"
"Blocked","Male","tile","18","M_tile.wav","None","722.605785821","305","256603.340678","263469.397882","264235.565553","265003.021241","265769.082866","266536.171873","252702.9164","253469.596681","257352.28091","258119.081459","258886.07184","259652.434909","260419.816085","261186.503168","261952.566957","262702.39668","265778.212132","Mapping"
"Blocked","Male","tile","18","M_priest.wav","space","450.527186505","305","256603.340678","263469.397882","264235.565553","265003.021241","265769.082866","266536.171873","267285.42437","253469.596681","257352.28091","258119.081459","258886.07184","259652.434909","260419.816085","261186.503168","261952.566957","262702.39668","266546.22093","Mapping"
"Blocked","Male","tile","18","M_cling.wav","None","733.246909454","305","256603.340678","263469.397882","264235.565553","265003.021241","265769.082866","266536.171873","267285.42437","268052.623134","257352.28091","258119.081459","258886.07184","259652.434909","260419.816085","261186.503168","261952.566957","262702.39668","267295.105819","Mapping"
"Blocked","Male","cave","11","M_jaw.wav","None","730.17620109","305","271186.134633","263469.397882","264235.565553","265003.021241","265769.082866","266536.171873","267285.42437","268052.623134","257352.28091","258119.081459","258886.07184","259652.434909","260419.816085","261186.503168","261952.566957","262702.39668","268062.341684","Mapping"
"Blocked","Male","cave","11","M_cave.wav","None","719.049366657","305","271186.134633","263469.397882","264235.565553","265003.021241","265769.082866","266536.171873","267285.42437","268052.623134","271935.340754","258119.081459","258886.07184","259652.434909","260419.816085","261186.503168","261952.566957","262702.39668","271196.662599","Mapping"
"Blocked","Male","cave","11","M_dime.wav","space","435.932974797","305","271186.134633","263469.397882","264235.565553","265003.021241","265769.082866","266536.171873","267285.42437","268052.623134","271935.340754","272702.589913","258886.07184","259652.434909","260419.816085","261186.503168","261952.566957","262702.39668","271944.714267","Mapping"
"Blocked","Male","cave","11","M_gnash.wav","None","730.577198789","305","271186.134633","263469.397882","264235.565553","265003.021241","265769.082866","266536.171873","267285.42437","268052.623134","271935.340754","272702.589913","273469.239895","259652.434909","260419.816085","261186.503168","261952.566957","262702.39668","272712.366279","Mapping"
"Blocked","Male","cave","11","M_jaw.wav","None","727.993128821","305","271186.134633","263469.397882","264235.565553","265003.021241","265769.082866","266536.171873","267285.42437","268052.623134","271935.340754","272702.589913","273469.239895","274235.707464","260419.816085","261186.503168","261952.566957","262702.39668","273479.049033","Mapping"
"Blocked","Male","cave","11","M_cave.wav","None","725.580341183","305","271186.134633","263469.397882","264235.565553","265003.021241","265769.082866","266536.171873","267285.42437","268052.623134","271935.340754","272702.589913","273469.239895","274235.707464","275002.991869","261186.503168","261952.566957","262702.39668","274245.655421","Mapping"
"Blocked","Male","cave","11","M_cling.wav","space","383.508949075","305","271186.134633","263469.397882","264235.565553","265003.021241","265769.082866","266536.171873","267285.42437","268052.623134","271935.340754","272702.589913","273469.239895","274235.707464","275002.991869","275768.798735","261952.566957","262702.39668","275013.082046","Mapping"
"Blocked","Male","cave","11","M_bluff.wav","None","720.76156782","305","271186.134633","263469.397882","264235.565553","265003.021241","265769.082866","266536.171873","267285.42437","268052.623134","271935.340754","272702.589913","273469.239895","274235.707464","275002.991869","275768.798735","276519.065629","262702.39668","275778.220789","Mapping"
"Blocked","Male","cave","11","M_reek.wav","None","734.018914402","305","271186.134633","263469.397882","264235.565553","265003.021241","265769.082866","266536.171873","267285.42437","268052.623134","271935.340754","272702.589913","273469.239895","274235.707464","275002.991869","275768.798735","276519.065629","277285.654085","276529.069856","Mapping"
"Blocked","Male","cave","11","M_cave.wav","None","730.61429942","305","271186.134633","278052.359718","264235.565553","265003.021241","265769.082866","266536.171873","267285.42437","268052.623134","271935.340754","272702.589913","273469.239895","274235.707464","275002.991869","275768.798735","276519.065629","277285.654085","277296.541001","Mapping"
"Blocked","Male","cave","11","M_cad.wav","space","462.196310982","305","271186.134633","278052.359718","278819.174798","265003.021241","265769.082866","266536.171873","267285.42437","268052.623134","271935.340754","272702.589913","273469.239895","274235.707464","275002.991869","275768.798735","276519.065629","277285.654085","278062.324679","Mapping"
"Blocked","Male","cave","11","M_cling.wav","None","725.653924514","305","271186.134633","278052.359718","278819.174798","279585.551162","265769.082866","266536.171873","267285.42437","268052.623134","271935.340754","272702.589913","273469.239895","274235.707464","275002.991869","275768.798735","276519.065629","277285.654085","278829.154291","Mapping"
"Blocked","Male","cave","11","M_lash.wav","None","724.074976984","305","271186.134633","278052.359718","278819.174798","279585.551162","280352.745906","266536.171873","267285.42437","268052.623134","271935.340754","272702.589913","273469.239895","274235.707464","275002.991869","275768.798735","276519.065629","277285.654085","279594.961157","Mapping"
"Blocked","Male","cave","11","M_cave.wav","None","720.799905248","305","271186.134633","278052.359718","278819.174798","279585.551162","280352.745906","281102.402802","267285.42437","268052.623134","271935.340754","272702.589913","273469.239895","274235.707464","275002.991869","275768.798735","276519.065629","277285.654085","280362.527528","Mapping"
"Blocked","Male","cave","11","M_dime.wav","space","580.271719955","305","271186.134633","278052.359718","278819.174798","279585.551162","280352.745906","281102.402802","281868.636636","268052.623134","271935.340754","272702.589913","273469.239895","274235.707464","275002.991869","275768.798735","276519.065629","277285.654085","281112.20421","Mapping"
"Blocked","Male","cave","11","M_priest.wav","None","732.179952785","305","271186.134633","278052.359718","278819.174798","279585.551162","280352.745906","281102.402802","281868.636636","282635.578786","271935.340754","272702.589913","273469.239895","274235.707464","275002.991869","275768.798735","276519.065629","277285.654085","281878.502043","Mapping"
"Blocked","Male","done","22","M_greet.wav","None","729.443460703","305","285769.458202","278052.359718","278819.174798","279585.551162","280352.745906","281102.402802","281868.636636","282635.578786","271935.340754","272702.589913","273469.239895","274235.707464","275002.991869","275768.798735","276519.065629","277285.654085","282645.581776","Mapping"
"Blocked","Male","done","22","M_jaw.wav","None","719.810241833","305","285769.458202","278052.359718","278819.174798","279585.551162","280352.745906","281102.402802","281868.636636","282635.578786","286518.913516","272702.589913","273469.239895","274235.707464","275002.991869","275768.798735","276519.065629","277285.654085","285779.478505","Mapping"
"Blocked","Male","done","22","M_greet.wav","None","734.520084225","305","285769.458202","278052.359718","278819.174798","279585.551162","280352.745906","281102.402802","281868.636636","282635.578786","286518.913516","287285.684384","273469.239895","274235.707464","275002.991869","275768.798735","276519.065629","277285.654085","286529.020079","Mapping"
"Blocked","Male","done","22","M_cling.wav","None","732.287544757","305","285769.458202","278052.359718","278819.174798","279585.551162","280352.745906","281102.402802","281868.636636","282635.578786","286518.913516","287285.684384","288052.300048","274235.707464","275002.991869","275768.798735","276519.065629","277285.654085","287295.466624","Mapping"
"Blocked","Male","done","22","M_done.wav","None","729.816323612","305","285769.458202","278052.359718","278819.174798","279585.551162","280352.745906","281102.402802","281868.636636","282635.578786","286518.913516","287285.684384","288052.300048","288818.963633","275002.991869","275768.798735","276519.065629","277285.654085","288062.095582","Mapping"
"Blocked","Male","done","22","M_jolt.wav","space","439.662531018","305","285769.458202","278052.359718","278819.174798","279585.551162","280352.745906","281102.402802","281868.636636","282635.578786","286518.913516","287285.684384","288052.300048","288818.963633","289585.186337","275768.798735","276519.065629","277285.654085","288828.71341","Mapping"
"Blocked","Male","done","22","M_done.wav","None","723.752818536","305","285769.458202","278052.359718","278819.174798","279585.551162","280352.745906","281102.402802","281868.636636","282635.578786","286518.913516","287285.684384","288052.300048","288818.963633","289585.186337","290352.785171","276519.065629","277285.654085","289595.493244","Mapping"
"Blocked","Male","done","22","M_dime.wav","space","521.104935557","305","285769.458202","278052.359718","278819.174798","279585.551162","280352.745906","281102.402802","281868.636636","282635.578786","286518.913516","287285.684384","288052.300048","288818.963633","289585.186337","290352.785171","291102.075696","277285.654085","290363.234607","Mapping"
"Blocked","Male","done","22","M_done.wav","None","734.624894336","305","285769.458202","278052.359718","278819.174798","279585.551162","280352.745906","281102.402802","281868.636636","282635.578786","286518.913516","287285.684384","288052.300048","288818.963633","289585.186337","290352.785171","291102.075696","291868.933751","291111.917916","Mapping"
"Blocked","Male","done","22","M_depth.wav","space","477.463592775","305","285769.458202","292635.398848","278819.174798","279585.551162","280352.745906","281102.402802","281868.636636","282635.578786","286518.913516","287285.684384","288052.300048","288818.963633","289585.186337","290352.785171","291102.075696","291868.933751","291878.814308","Mapping"
"Blocked","Male","done","22","M_knife.wav","None","728.79790701","305","285769.458202","292635.398848","293401.585378","279585.551162","280352.745906","281102.402802","281868.636636","282635.578786","286518.913516","287285.684384","288052.300048","288818.963633","289585.186337","290352.785171","291102.075696","291868.933751","292645.180778","Mapping"
"Blocked","Male","done","22","M_lash.wav","None","731.759167742","305","285769.458202","292635.398848","293401.585378","294168.863291","280352.745906","281102.402802","281868.636636","282635.578786","286518.913516","287285.684384","288052.300048","288818.963633","289585.186337","290352.785171","291102.075696","291868.933751","293410.523885","Mapping"
"Blocked","Male","done","22","M_jaw.wav","None","727.988182101","305","285769.458202","292635.398848","293401.585378","294168.863291","294935.245528","281102.402802","281868.636636","282635.578786","286518.913516","287285.684384","288052.300048","288818.963633","289585.186337","290352.785171","291102.075696","291868.933751","294178.546286","Mapping"
"Blocked","Male","done","22","M_done.wav","None","725.737092085","305","285769.458202","292635.398848","293401.585378","294168.863291","294935.245528","295702.528388","281868.636636","282635.578786","286518.913516","287285.684384","288052.300048","288818.963633","289585.186337","290352.785171","291102.075696","291868.933751","294945.148346","Mapping"
"Blocked","Male","done","22","M_cad.wav","space","475.478391629","305","285769.458202","292635.398848","293401.585378","294168.863291","294935.245528","295702.528388","296469.139723","282635.578786","286518.913516","287285.684384","288052.300048","288818.963633","289585.186337","290352.785171","291102.075696","291868.933751","295712.726156","Mapping"
"Blocked","Male","done","22","M_knife.wav","None","719.030506909","305","285769.458202","292635.398848","293401.585378","294168.863291","294935.245528","295702.528388","296469.139723","297218.231758","286518.913516","287285.684384","288052.300048","288818.963633","289585.186337","290352.785171","291102.075696","291868.933751","296479.330071","Mapping"
"Blocked","Male","ball","1","M_dime.wav","None","735.235201661","305","300352.432714","292635.398848","293401.585378","294168.863291","294935.245528","295702.528388","296469.139723","297218.231758","286518.913516","287285.684384","288052.300048","288818.963633","289585.186337","290352.785171","291102.075696","291868.933751","297227.441719","Mapping"
"Blocked","Male","ball","1","M_bluff.wav","None","719.472006429","305","300352.432714","292635.398848","293401.585378","294168.863291","294935.245528","295702.528388","296469.139723","297218.231758","301101.619975","287285.684384","288052.300048","288818.963633","289585.186337","290352.785171","291102.075696","291868.933751","300362.620899","Mapping"
"Blocked","Male","ball","1","M_ball.wav","None","735.081851948","305","300352.432714","292635.398848","293401.585378","294168.863291","294935.245528","295702.528388","296469.139723","297218.231758","301101.619975","301868.791532","288052.300048","288818.963633","289585.186337","290352.785171","291102.075696","291868.933751","301111.229078","Mapping"
"Blocked","Male","ball","1","M_jaw.wav","space","333.843056578","305","300352.432714","292635.398848","293401.585378","294168.863291","294935.245528","295702.528388","296469.139723","297218.231758","301101.619975","301868.791532","302635.024748","288818.963633","289585.186337","290352.785171","291102.075696","291868.933751","301878.289023","Mapping"
"Blocked","Male","ball","1","M_depth.wav","None","729.274342768","305","300352.432714","292635.398848","293401.585378","294168.863291","294935.245528","295702.528388","296469.139723","297218.231758","301101.619975","301868.791532","302635.024748","303402.024404","289585.186337","290352.785171","291102.075696","291868.933751","302644.587784","Mapping"
"Blocked","Male","ball","1","M_ball.wav","None","726.760146208","305","300352.432714","292635.398848","293401.585378","294168.863291","294935.245528","295702.528388","296469.139723","297218.231758","301101.619975","301868.791532","302635.024748","303402.024404","304168.771157","290352.785171","291102.075696","291868.933751","303411.597025","Mapping"
"Blocked","Male","ball","1","M_greet.wav","space","401.114198379","305","300352.432714","292635.398848","293401.585378","294168.863291","294935.245528","295702.528388","296469.139723","297218.231758","301101.619975","301868.791532","302635.024748","303402.024404","304168.771157","304935.444327","291102.075696","291868.933751","304178.946665","Mapping"
"Blocked","Male","ball","1","M_bluff.wav","None","720.272764564","305","300352.432714","292635.398848","293401.585378","294168.863291","294935.245528","295702.528388","296469.139723","297218.231758","301101.619975","301868.791532","302635.024748","303402.024404","304168.771157","304935.444327","305685.089164","291868.933751","304945.634985","Mapping"
"Blocked","Male","ball","1","M_knife.wav","None","735.220052302","305","300352.432714","292635.398848","293401.585378","294168.863291","294935.245528","295702.528388","296469.139723","297218.231758","301101.619975","301868.791532","302635.024748","303402.024404","304168.771157","304935.444327","305685.089164","306451.975972","305695.132656","Mapping"
"Blocked","Male","ball","1","M_ball.wav","None","733.17456292","305","300352.432714","307218.234232","293401.585378","294168.863291","294935.245528","295702.528388","296469.139723","297218.231758","301101.619975","301868.791532","302635.024748","303402.024404","304168.771157","304935.444327","305685.089164","306451.975972","306461.736879","Mapping"
"Blocked","Male","ball","1","M_dime.wav","space","400.155761745","305","300352.432714","307218.234232","307985.40517","294168.863291","294935.245528","295702.528388","296469.139723","297218.231758","301101.619975","301868.791532","302635.024748","303402.024404","304168.771157","304935.444327","305685.089164","306451.975972","307227.871778","Mapping"
"Blocked","Male","ball","1","M_reek.wav","None","727.636034135","305","300352.432714","307218.234232","307985.40517","308751.933028","294935.245528","295702.528388","296469.139723","297218.231758","301101.619975","301868.791532","302635.024748","303402.024404","304168.771157","304935.444327","305685.089164","306451.975972","307994.952748","Mapping"
"Blocked","Male","ball","1","M_priest.wav","None","725.441832095","305","300352.432714","307218.234232","307985.40517","308751.933028","309518.863739","295702.528388","296469.139723","297218.231758","301101.619975","301868.791532","302635.024748","303402.024404","304168.771157","304935.444327","305685.089164","306451.975972","308762.135434","Mapping"
"Blocked","Male","ball","1","M_ball.wav","None","723.081294447","305","300352.432714","307218.234232","307985.40517","308751.933028","309518.863739","310285.473528","296469.139723","297218.231758","301101.619975","301868.791532","302635.024748","303402.024404","304168.771157","304935.444327","305685.089164","306451.975972","309529.000601","Mapping"
"Blocked","Male","ball","1","M_greet.wav","space","556.358100381","305","300352.432714","307218.234232","307985.40517","308751.933028","309518.863739","310285.473528","311034.937499","297218.231758","301101.619975","301868.791532","302635.024748","303402.024404","304168.771157","304935.444327","305685.089164","306451.975972","310295.607917","Mapping"
"Blocked","Male","ball","1","M_depth.wav","None","734.928811435","305","300352.432714","307218.234232","307985.40517","308751.933028","309518.863739","310285.473528","311034.937499","311801.839457","301101.619975","301868.791532","302635.024748","303402.024404","304168.771157","304935.444327","305685.089164","306451.975972","311044.90648","Mapping"
"Blocked","Male","tile","16","M_dime.wav","None","732.777275145","305","314935.314474","307218.234232","307985.40517","308751.933028","309518.863739","310285.473528","311034.937499","311801.839457","301101.619975","301868.791532","302635.024748","303402.024404","304168.771157","304935.444327","305685.089164","306451.975972","311811.485661","Mapping"
"Blocked","Male","tile","16","M_tile.wav","None","719.768194016","305","314935.314474","307218.234232","307985.40517","308751.933028","309518.863739","310285.473528","311034.937499","311801.839457","315684.519667","301868.791532","302635.024748","303402.024404","304168.771157","304935.444327","305685.089164","306451.975972","314945.323647","Mapping"
"Blocked","Male","tile","16","M_knife.wav","None","735.641764943","305","314935.314474","307218.234232","307985.40517","308751.933028","309518.863739","310285.473528","311034.937499","311801.839457","315684.519667","316451.819221","302635.024748","303402.024404","304168.771157","304935.444327","305685.089164","306451.975972","315693.997681","Mapping"
"Blocked","Male","tile","16","M_reek.wav","space","141.673053615","305","314935.314474","307218.234232","307985.40517","308751.933028","309518.863739","310285.473528","311034.937499","311801.839457","315684.519667","316451.819221","317217.906199","303402.024404","304168.771157","304935.444327","305685.089164","306451.975972","316462.210533","Mapping"
"Blocked","Male","tile","16","M_tile.wav","None","730.607806705","305","314935.314474","307218.234232","307985.40517","308751.933028","309518.863739","310285.473528","311034.937499","311801.839457","315684.519667","316451.819221","317217.906199","317984.598846","304168.771157","304935.444327","305685.089164","306451.975972","317226.809768","Mapping"
"Blocked","Male","tile","16","M_priest.wav","space","434.121220373","305","314935.314474","307218.234232","307985.40517","308751.933028","309518.863739","310285.473528","311034.937499","311801.839457","315684.519667","316451.819221","317217.906199","317984.598846","318751.713515","304935.444327","305685.089164","306451.975972","317993.683591","Mapping"
"Blocked","Male","tile","16","M_tile.wav","None","724.825340323","305","314935.314474","307218.234232","307985.40517","308751.933028","309518.863739","310285.473528","311034.937499","311801.839457","315684.519667","316451.819221","317217.906199","317984.598846","318751.713515","319518.475418","305685.089164","306451.975972","318760.967379","Mapping"
"Blocked","Male","tile","16","M_lash.wav","space","483.496179804","305","314935.314474","307218.234232","307985.40517","308751.933028","309518.863739","310285.473528","311034.937499","311801.839457","315684.519667","316451.819221","317217.906199","317984.598846","318751.713515","319518.475418","320268.12211","306451.975972","319528.297232","Mapping"
"Blocked","Male","tile","16","M_lash.wav","None","735.758941155","305","314935.314474","307218.234232","307985.40517","308751.933028","309518.863739","310285.473528","311034.937499","311801.839457","315684.519667","316451.819221","317217.906199","317984.598846","318751.713515","319518.475418","320268.12211","321034.801154","320277.741416","Mapping"
"Blocked","Male","tile","16","M_jolt.wav","None","733.249382582","305","314935.314474","321801.29253","307985.40517","308751.933028","309518.863739","310285.473528","311034.937499","311801.839457","315684.519667","316451.819221","317217.906199","317984.598846","318751.713515","319518.475418","320268.12211","321034.801154","321044.83908","Mapping"
"Blocked","Male","tile","16","M_knife.wav","None","732.160783838","305","314935.314474","321801.29253","322568.319393","308751.933028","309518.863739","310285.473528","311034.937499","311801.839457","315684.519667","316451.819221","317217.906199","317984.598846","318751.713515","319518.475418","320268.12211","321034.801154","321810.445293","Mapping"
"Blocked","Male","tile","16","M_gnash.wav","None","728.55149582","305","314935.314474","321801.29253","322568.319393","323334.828083","309518.863739","310285.473528","311034.937499","311801.839457","315684.519667","316451.819221","317217.906199","317984.598846","318751.713515","319518.475418","320268.12211","321034.801154","322578.610842","Mapping"
"Blocked","Male","tile","16","M_knife.wav","None","727.213393897","305","314935.314474","321801.29253","322568.319393","323334.828083","324101.179712","310285.473528","311034.937499","311801.839457","315684.519667","316451.819221","317217.906199","317984.598846","318751.713515","319518.475418","320268.12211","321034.801154","323344.49531","Mapping"
"Blocked","Male","tile","16","M_tile.wav","None","726.061105728","305","314935.314474","321801.29253","322568.319393","323334.828083","324101.179712","324868.659206","311034.937499","311801.839457","315684.519667","316451.819221","317217.906199","317984.598846","318751.713515","319518.475418","320268.12211","321034.801154","324110.27837","Mapping"
"Blocked","Male","tile","16","M_cad.wav","space","397.23098278","305","314935.314474","321801.29253","322568.319393","323334.828083","324101.179712","324868.659206","325634.667653","311801.839457","315684.519667","316451.819221","317217.906199","317984.598846","318751.713515","319518.475418","320268.12211","321034.801154","324878.486894","Mapping"
"Blocked","Male","tile","16","M_depth.wav","None","719.377708621","305","314935.314474","321801.29253","322568.319393","323334.828083","324101.179712","324868.659206","325634.667653","326384.702667","315684.519667","316451.819221","317217.906199","317984.598846","318751.713515","319518.475418","320268.12211","321034.801154","325644.64931","Mapping"
"Blocked","Male","ball","3","M_dime.wav","None","734.27058151","305","329518.634024","321801.29253","322568.319393","323334.828083","324101.179712","324868.659206","325634.667653","326384.702667","315684.519667","316451.819221","317217.906199","317984.598846","318751.713515","319518.475418","320268.12211","321034.801154","326394.252717","Mapping"
"Blocked","Male","ball","3","M_ball.wav","None","719.47664395","305","329518.634024","321801.29253","322568.319393","323334.828083","324101.179712","324868.659206","325634.667653","326384.702667","330267.978035","316451.819221","317217.906199","317984.598846","318751.713515","319518.475418","320268.12211","321034.801154","329528.505305","Mapping"
"Blocked","Male","ball","3","M_cad.wav","space","389.666133095","305","329518.634024","321801.29253","322568.319393","323334.828083","324101.179712","324868.659206","325634.667653","326384.702667","330267.978035","331034.881539","317217.906199","317984.598846","318751.713515","319518.475418","320268.12211","321034.801154","330277.946398","Mapping"
"Blocked","Male","ball","3","M_cling.wav","None","731.049305759","305","329518.634024","321801.29253","322568.319393","323334.828083","324101.179712","324868.659206","325634.667653","326384.702667","330267.978035","331034.881539","331801.491637","317984.598846","318751.713515","319518.475418","320268.12211","321034.801154","331044.519086","Mapping"
"Blocked","Male","ball","3","M_bluff.wav","None","729.415325914","305","329518.634024","321801.29253","322568.319393","323334.828083","324101.179712","324868.659206","325634.667653","326384.702667","330267.978035","331034.881539","331801.491637","332568.14471","318751.713515","319518.475418","320268.12211","321034.801154","331810.683665","Mapping"
"Blocked","Male","ball","3","M_park.wav","None","726.105007809","305","329518.634024","321801.29253","322568.319393","323334.828083","324101.179712","324868.659206","325634.667653","326384.702667","330267.978035","331034.881539","331801.491637","332568.14471","333334.324749","319518.475418","320268.12211","321034.801154","332578.379271","Mapping"
"Blocked","Male","ball","3","M_knife.wav","None","725.637229159","305","329518.634024","321801.29253","322568.319393","323334.828083","324101.179712","324868.659206","325634.667653","326384.702667","330267.978035","331034.881539","331801.491637","332568.14471","333334.324749","334101.786001","320268.12211","321034.801154","333343.550168","Mapping"
"Blocked","Male","ball","3","M_bluff.wav","None","721.784621943","305","329518.634024","321801.29253","322568.319393","323334.828083","324101.179712","324868.659206","325634.667653","326384.702667","330267.978035","331034.881539","331801.491637","332568.14471","333334.324749","334101.786001","334867.752401","321034.801154","334112.070648","Mapping"
"Blocked","Male","ball","3","M_cad.wav","None","721.549341455","305","329518.634024","321801.29253","322568.319393","323334.828083","324101.179712","324868.659206","325634.667653","326384.702667","330267.978035","331034.881539","331801.491637","332568.14471","333334.324749","334101.786001","334867.752401","335617.827916","334876.884449","Mapping"
"Blocked","Male","ball","3","M_park.wav","None","735.418851022","305","329518.634024","336384.5892","322568.319393","323334.828083","324101.179712","324868.659206","325634.667653","326384.702667","330267.978035","331034.881539","331801.491637","332568.14471","333334.324749","334101.786001","334867.752401","335617.827916","335627.558833","Mapping"
"Blocked","Male","ball","3","M_ball.wav","None","733.44539851","305","329518.634024","336384.5892","337151.378928","323334.828083","324101.179712","324868.659206","325634.667653","326384.702667","330267.978035","331034.881539","331801.491637","332568.14471","333334.324749","334101.786001","334867.752401","335617.827916","336394.114208","Mapping"
"Blocked","Male","ball","3","M_greet.wav","space","410.513991024","305","329518.634024","336384.5892","337151.378928","337918.090126","324101.179712","324868.659206","325634.667653","326384.702667","330267.978035","331034.881539","331801.491637","332568.14471","333334.324749","334101.786001","334867.752401","335617.827916","337160.930525","Mapping"
"Blocked","Male","ball","3","M_ball.wav","None","727.795876563","305","329518.634024","336384.5892","337151.378928","337918.090126","338684.545019","324868.659206","325634.667653","326384.702667","330267.978035","331034.881539","331801.491637","332568.14471","333334.324749","334101.786001","334867.752401","335617.827916","337927.474151","Mapping"
"Blocked","Male","ball","3","M_gnash.wav","space","437.008279376","305","329518.634024","336384.5892","337151.378928","337918.090126","338684.545019","339451.981228","325634.667653","326384.702667","330267.978035","331034.881539","331801.491637","332568.14471","333334.324749","334101.786001","334867.752401","335617.827916","338694.443818","Mapping"
"Blocked","Male","ball","3","M_ball.wav","None","720.781973563","305","329518.634024","336384.5892","337151.378928","337918.090126","338684.545019","339451.981228","340218.395929","326384.702667","330267.978035","331034.881539","331801.491637","332568.14471","333334.324749","334101.786001","334867.752401","335617.827916","339462.04327","Mapping"
"Blocked","Male","ball","3","M_park.wav","None","719.131606631","305","329518.634024","336384.5892","337151.378928","337918.090126","338684.545019","339451.981228","340218.395929","340967.871649","330267.978035","331034.881539","331801.491637","332568.14471","333334.324749","334101.786001","334867.752401","335617.827916","340228.520424","Mapping"
"Blocked","Male","ball","2","M_jolt.wav","None","734.400743619","305","344101.672534","336384.5892","337151.378928","337918.090126","338684.545019","339451.981228","340218.395929","340967.871649","330267.978035","331034.881539","331801.491637","332568.14471","333334.324749","334101.786001","334867.752401","335617.827916","340977.778176","Mapping"
"Blocked","Male","ball","2","M_lash.wav","space","707.516278606","305","344101.672534","336384.5892","337151.378928","337918.090126","338684.545019","339451.981228","340218.395929","340967.871649","344851.116718","331034.881539","331801.491637","332568.14471","333334.324749","334101.786001","334867.752401","335617.827916","344111.825473","Mapping"
"Blocked","Male","ball","2","M_ball.wav","None","733.962954022","305","344101.672534","336384.5892","337151.378928","337918.090126","338684.545019","339451.981228","340218.395929","340967.871649","344851.116718","345617.447015","331801.491637","332568.14471","333334.324749","334101.786001","334867.752401","335617.827916","344860.813936","Mapping"
"Blocked","Male","ball","2","M_lash.wav","None","732.655151747","305","344101.672534","336384.5892","337151.378928","337918.090126","338684.545019","339451.981228","340218.395929","340967.871649","344851.116718","345617.447015","346384.406479","332568.14471","333334.324749","334101.786001","334867.752401","335617.827916","345626.819291","Mapping"
"Blocked","Male","ball","2","M_gnash.wav","None","729.821269866","305","344101.672534","336384.5892","337151.378928","337918.090126","338684.545019","339451.981228","340218.395929","340967.871649","344851.116718","345617.447015","346384.406479","347151.20641","333334.324749","334101.786001","334867.752401","335617.827916","346394.227365","Mapping"
"Blocked","Male","ball","2","M_lash.wav","None","727.886773646","305","344101.672534","336384.5892","337151.378928","337918.090126","338684.545019","339451.981228","340218.395929","340967.871649","344851.116718","345617.447015","346384.406479","347151.20641","347918.00263","334101.786001","334867.752401","335617.827916","347160.859724","Mapping"
"Blocked","Male","ball","2","M_ball.wav","None","725.53025512","305","344101.672534","336384.5892","337151.378928","337918.090126","338684.545019","339451.981228","340218.395929","340967.871649","344851.116718","345617.447015","346384.406479","347151.20641","347918.00263","348684.049724","334867.752401","335617.827916","347927.931109","Mapping"
"Blocked","Male","ball","2","M_cling.wav","space","645.502627362","305","344101.672534","336384.5892","337151.378928","337918.090126","338684.545019","339451.981228","340218.395929","340967.871649","344851.116718","345617.447015","346384.406479","347151.20641","347918.00263","348684.049724","349450.948281","335617.827916","348693.770748","Mapping"
"Blocked","Male","ball","2","M_depth.wav","None","721.379605122","305","344101.672534","336384.5892","337151.378928","337918.090126","338684.545019","339451.981228","340218.395929","340967.871649","344851.116718","345617.447015","346384.406479","347151.20641","347918.00263","348684.049724","349450.948281","350200.939392","349460.303862","Mapping"
"Blocked","Male","ball","2","M_knife.wav","None","735.544065945","305","344101.672534","350967.819707","337151.378928","337918.090126","338684.545019","339451.981228","340218.395929","340967.871649","344851.116718","345617.447015","346384.406479","347151.20641","347918.00263","348684.049724","349450.948281","350200.939392","350210.71483","Mapping"
"Blocked","Male","ball","2","M_ball.wav","None","732.975145802","305","344101.672534","350967.819707","351734.302117","337918.090126","338684.545019","339451.981228","340218.395929","340967.871649","344851.116718","345617.447015","346384.406479","347151.20641","347918.00263","348684.049724","349450.948281","350200.939392","350977.905556","Mapping"
"Blocked","Male","ball","2","M_knife.wav","None","731.198327616","305","344101.672534","350967.819707","351734.302117","352501.128018","338684.545019","339451.981228","340218.395929","340967.871649","344851.116718","345617.447015","346384.406479","347151.20641","347918.00263","348684.049724","349450.948281","350200.939392","351744.435887","Mapping"
"Blocked","Male","ball","2","M_jolt.wav","space","0.034318305552","305","344101.672534","350967.819707","351734.302117","352501.128018","353267.762541","339451.981228","340218.395929","340967.871649","344851.116718","345617.447015","346384.406479","347151.20641","347918.00263","348684.049724","349450.948281","350200.939392","352510.582844","Mapping"
"Blocked","Male","ball","2","M_ball.wav","None","725.935271941","305","344101.672534","350967.819707","351734.302117","352501.128018","353267.762541","354034.315752","340218.395929","340967.871649","344851.116718","345617.447015","346384.406479","347151.20641","347918.00263","348684.049724","349450.948281","350200.939392","353278.062028","Mapping"
"Blocked","Male","ball","2","M_gnash.wav","space","511.239837389","305","344101.672534","350967.819707","351734.302117","352501.128018","353267.762541","354034.315752","354800.902353","340967.871649","344851.116718","345617.447015","346384.406479","347151.20641","347918.00263","348684.049724","349450.948281","350200.939392","354043.927947","Mapping"
"Blocked","Male","ball","2","M_reek.wav","None","721.741955727","305","344101.672534","350967.819707","351734.302117","352501.128018","353267.762541","354034.315752","354800.902353","355568.269307","344851.116718","345617.447015","346384.406479","347151.20641","347918.00263","348684.049724","349450.948281","350200.939392","354810.086343","Mapping"
"Blocked","Male","done","24","M_knife.wav","None","718.120610341","305","358684.42506","350967.819707","351734.302117","352501.128018","353267.762541","354034.315752","354800.902353","355568.269307","344851.116718","345617.447015","346384.406479","347151.20641","347918.00263","348684.049724","349450.948281","350200.939392","355578.455946","Mapping"
"Blocked","Male","done","24","M_gnash.wav","None","719.369360711","305","358684.42506","350967.819707","351734.302117","352501.128018","353267.762541","354034.315752","354800.902353","355568.269307","359433.719604","345617.447015","346384.406479","347151.20641","347918.00263","348684.049724","349450.948281","350200.939392","358694.892428","Mapping"
"Blocked","Male","done","24","M_cling.wav","None","735.973816831","305","358684.42506","350967.819707","351734.302117","352501.128018","353267.762541","354034.315752","354800.902353","355568.269307","359433.719604","360201.037091","346384.406479","347151.20641","347918.00263","348684.049724","349450.948281","350200.939392","359443.066837","Mapping"
"Blocked","Male","done","24","M_done.wav","None","732.986276038","305","358684.42506","350967.819707","351734.302117","352501.128018","353267.762541","354034.315752","354800.902353","355568.269307","359433.719604","360201.037091","360967.230733","347151.20641","347918.00263","348684.049724","349450.948281","350200.939392","360210.653614","Mapping"
"Blocked","Male","done","24","M_priest.wav","space","543.102299795","305","358684.42506","350967.819707","351734.302117","352501.128018","353267.762541","354034.315752","354800.902353","355568.269307","359433.719604","360201.037091","360967.230733","361734.044576","347918.00263","348684.049724","349450.948281","350200.939392","360971.946242","Mapping"
"Blocked","Male","done","24","M_done.wav","None","726.910713594","305","358684.42506","350967.819707","351734.302117","352501.128018","353267.762541","354034.315752","354800.902353","355568.269307","359433.719604","360201.037091","360967.230733","361734.044576","362500.92922","348684.049724","349450.948281","350200.939392","361744.519055","Mapping"
"Blocked","Male","done","24","M_lash.wav","None","725.444923155","305","358684.42506","350967.819707","351734.302117","352501.128018","353267.762541","354034.315752","354800.902353","355568.269307","359433.719604","360201.037091","360967.230733","361734.044576","362500.92922","363268.038942","349450.948281","350200.939392","362510.617163","Mapping"
"Blocked","Male","done","24","M_done.wav","None","722.818497103","305","358684.42506","350967.819707","351734.302117","352501.128018","353267.762541","354034.315752","354800.902353","355568.269307","359433.719604","360201.037091","360967.230733","361734.044576","362500.92922","363268.038942","364033.96484","350200.939392","363278.163128","Mapping"
"Blocked","Male","done","24","M_lash.wav","space","407.622912433","305","358684.42506","350967.819707","351734.302117","352501.128018","353267.762541","354034.315752","354800.902353","355568.269307","359433.719604","360201.037091","360967.230733","361734.044576","362500.92922","363268.038942","364033.96484","364783.868455","364043.373908","Mapping"
"Blocked","Male","done","24","M_done.wav","None","735.187898856","305","358684.42506","365550.882643","351734.302117","352501.128018","353267.762541","354034.315752","354800.902353","355568.269307","359433.719604","360201.037091","360967.230733","361734.044576","362500.92922","363268.038942","364033.96484","364783.868455","364793.659971","Mapping"
"Blocked","Male","done","24","M_depth.wav","space","378.774270415","305","358684.42506","365550.882643","366317.517784","352501.128018","353267.762541","354034.315752","354800.902353","355568.269307","359433.719604","360201.037091","360967.230733","361734.044576","362500.92922","363268.038942","364033.96484","364783.868455","365560.172679","Mapping"
"Blocked","Male","done","24","M_romp.wav","None","729.526937474","305","358684.42506","365550.882643","366317.517784","367083.815927","353267.762541","354034.315752","354800.902353","355568.269307","359433.719604","360201.037091","360967.230733","361734.044576","362500.92922","363268.038942","364033.96484","364783.868455","366327.080821","Mapping"
"Blocked","Male","done","24","M_lash.wav","None","727.468152996","305","358684.42506","365550.882643","366317.517784","367083.815927","367850.830733","354034.315752","354800.902353","355568.269307","359433.719604","360201.037091","360967.230733","361734.044576","362500.92922","363268.038942","364033.96484","364783.868455","367093.954335","Mapping"
"Blocked","Male","done","24","M_depth.wav","None","725.917958189","305","358684.42506","365550.882643","366317.517784","367083.815927","367850.830733","368617.796999","354800.902353","355568.269307","359433.719604","360201.037091","360967.230733","361734.044576","362500.92922","363268.038942","364033.96484","364783.868455","367860.118914","Mapping"
