"Condition","Talker","Target","Trial","current_stimulus","response_response","response_time_response","subject_nr","time_Audio1","time_Audio10","time_Audio11","time_Audio12","time_Audio13","time_Audio14","time_Audio15","time_Audio16","time_Audio2","time_Audio3","time_Audio4","time_Audio5","time_Audio6","time_Audio7","time_Audio8","time_Audio9","time_response"
"Blocked","Female","ball","5","F_gnash.wav","NA","NA","414","106628.461231","NA","NA","NA","NA","NA","NA","NA","NA","NA","NA","NA","NA","NA","NA","NA","NA"
"Blocked","Female","ball","5","F_dime.wav","None","739.110740687","414","106628.461231","NA","NA","NA","NA","NA","NA","NA","107395.17824","NA","NA","NA","NA","NA","NA","NA","106635.749279"
"Blocked","Female","ball","5","F_ball.wav","None","737.565986656","414","106628.461231","NA","NA","NA","NA","NA","NA","NA","107395.17824","108161.878884","NA","NA","NA","NA","NA","NA","107400.597153"
"Blocked","Female","ball","5","F_cling.wav","space","403.198920834","414","106628.461231","NA","NA","NA","NA","NA","NA","NA","107395.17824","108161.878884","108928.613719","NA","NA","NA","NA","NA","108167.275587"
"Blocked","Female","ball","5","F_ball.wav","None","731.217182012","414","106628.461231","NA","NA","NA","NA","NA","NA","NA","107395.17824","108161.878884","108928.613719","109695.497302","NA","NA","NA","NA","108933.746242"
"Blocked","Female","ball","5","F_cling.wav","space","420.891410162","414","106628.461231","NA","NA","NA","NA","NA","NA","NA","107395.17824","108161.878884","108928.613719","109695.497302","110445.215588","NA","NA","NA","109701.53137"
"Blocked","Female","ball","5","F_depth.wav","None","740.869410714","414","106628.461231","NA","NA","NA","NA","NA","NA","NA","107395.17824","108161.878884","108928.613719","109695.497302","110445.215588","111211.910971","NA","NA","110450.558812"
"Blocked","Female","ball","5","F_jaw.wav","None","737.662716429","414","106628.461231","NA","NA","NA","NA","NA","NA","NA","107395.17824","108161.878884","108928.613719","109695.497302","110445.215588","111211.910971","111978.687012","NA","111217.049046"
"Blocked","Female","ball","5","F_dime.wav","None","734.282434574","414","106628.461231","NA","NA","NA","NA","NA","NA","NA","107395.17824","108161.878884","108928.613719","109695.497302","110445.215588","111211.910971","111978.687012","112745.308752","111983.782421"
"Blocked","Female","ball","5","F_dime.wav","None","730.792564607","414","106628.461231","113512.284097","NA","NA","NA","NA","NA","NA","107395.17824","108161.878884","108928.613719","109695.497302","110445.215588","111211.910971","111978.687012","112745.308752","112750.541511"
"Blocked","Female","ball","5","F_ball.wav","None","726.700106141","414","106628.461231","113512.284097","114262.029268","NA","NA","NA","NA","NA","107395.17824","108161.878884","108928.613719","109695.497302","110445.215588","111211.910971","111978.687012","112745.308752","113517.963099"
"Blocked","Female","ball","5","F_gnash.wav","space","390.938787294","414","106628.461231","113512.284097","114262.029268","115028.641365","NA","NA","NA","NA","107395.17824","108161.878884","108928.613719","109695.497302","110445.215588","111211.910971","111978.687012","112745.308752","114267.472729"
"Blocked","Female","ball","5","F_ball.wav","None","737.586150868","414","106628.461231","113512.284097","114262.029268","115028.641365","115795.395195","NA","NA","NA","107395.17824","108161.878884","108928.613719","109695.497302","110445.215588","111211.910971","111978.687012","112745.308752","115033.865941"
"Blocked","Female","ball","5","F_priest.wav","space","433.896742867","414","106628.461231","113512.284097","114262.029268","115028.641365","115795.395195","116562.069246","NA","NA","107395.17824","108161.878884","108928.613719","109695.497302","110445.215588","111211.910971","111978.687012","112745.308752","115800.509015"
"Blocked","Female","ball","5","F_cad.wav","None","730.773861571","414","106628.461231","113512.284097","114262.029268","115028.641365","115795.395195","116562.069246","117328.987605","NA","107395.17824","108161.878884","108928.613719","109695.497302","110445.215588","111211.910971","111978.687012","112745.308752","116567.345256"
"Blocked","Female","ball","5","F_greet.wav","None","726.857328553","414","106628.461231","113512.284097","114262.029268","115028.641365","115795.395195","116562.069246","117328.987605","118078.766383","107395.17824","108161.878884","108928.613719","109695.497302","110445.215588","111211.910971","111978.687012","112745.308752","117334.655209"
"Blocked","Female","done","20","F_dime.wav","None","740.933117935","414","121195.518343","113512.284097","114262.029268","115028.641365","115795.395195","116562.069246","117328.987605","118078.766383","107395.17824","108161.878884","108928.613719","109695.497302","110445.215588","111211.910971","111978.687012","112745.308752","118083.957352"
"Blocked","Female","done","20","F_bluff.wav","None","741.125700779","414","121195.518343","113512.284097","114262.029268","115028.641365","115795.395195","116562.069246","117328.987605","118078.766383","121962.160248","108161.878884","108928.613719","109695.497302","110445.215588","111211.910971","111978.687012","112745.308752","121200.466173"
"Blocked","Female","done","20","F_dime.wav","None","737.629693878","414","121195.518343","113512.284097","114262.029268","115028.641365","115795.395195","116562.069246","117328.987605","118078.766383","121962.160248","122728.84628","108928.613719","109695.497302","110445.215588","111211.910971","111978.687012","112745.308752","121967.317903"
"Blocked","Female","done","20","F_done.wav","None","734.378872112","414","121195.518343","113512.284097","114262.029268","115028.641365","115795.395195","116562.069246","117328.987605","118078.766383","121962.160248","122728.84628","123495.608001","109695.497302","110445.215588","111211.910971","111978.687012","112745.308752","122733.969451"
"Blocked","Female","done","20","F_reek.wav","space","677.529819655","414","121195.518343","113512.284097","114262.029268","115028.641365","115795.395195","116562.069246","117328.987605","118078.766383","121962.160248","122728.84628","123495.608001","124262.457684","110445.215588","111211.910971","111978.687012","112745.308752","123500.784066"
"Blocked","Female","done","20","F_knife.wav","None","726.722608231","414","121195.518343","113512.284097","114262.029268","115028.641365","115795.395195","116562.069246","117328.987605","118078.766383","121962.160248","122728.84628","123495.608001","124262.457684","125012.28848","111211.910971","111978.687012","112745.308752","124268.337452"
"Blocked","Female","done","20","F_done.wav","None","741.116057026","414","121195.518343","113512.284097","114262.029268","115028.641365","115795.395195","116562.069246","117328.987605","118078.766383","121962.160248","122728.84628","123495.608001","124262.457684","125012.28848","125778.934476","111978.687012","112745.308752","125017.347652"
"Blocked","Female","done","20","F_cling.wav","space","674.142816397","414","121195.518343","113512.284097","114262.029268","115028.641365","115795.395195","116562.069246","117328.987605","118078.766383","121962.160248","122728.84628","123495.608001","124262.457684","125012.28848","125778.934476","126545.61554","112745.308752","125784.207856"
"Blocked","Female","done","20","F_done.wav","None","734.334744633","414","121195.518343","113512.284097","114262.029268","115028.641365","115795.395195","116562.069246","117328.987605","118078.766383","121962.160248","122728.84628","123495.608001","124262.457684","125012.28848","125778.934476","126545.61554","127312.32349","126550.670329"
"Blocked","Female","done","20","F_knife.wav","space","604.872608934","414","121195.518343","128079.366049","114262.029268","115028.641365","115795.395195","116562.069246","117328.987605","118078.766383","121962.160248","122728.84628","123495.608001","124262.457684","125012.28848","125778.934476","126545.61554","127312.32349","127317.432342"
"Blocked","Female","done","20","F_lash.wav","None","726.636691152","414","121195.518343","128079.366049","128828.991696","115028.641365","115795.395195","116562.069246","117328.987605","118078.766383","121962.160248","122728.84628","123495.608001","124262.457684","125012.28848","125778.934476","126545.61554","127312.32349","128084.959134"
"Blocked","Female","done","20","F_reek.wav","None","740.723585466","414","121195.518343","128079.366049","128828.991696","129595.694385","115795.395195","116562.069246","117328.987605","118078.766383","121962.160248","122728.84628","123495.608001","124262.457684","125012.28848","125778.934476","126545.61554","127312.32349","128834.391906"
"Blocked","Female","done","20","F_park.wav","None","738.015444034","414","121195.518343","128079.366049","128828.991696","129595.694385","130362.385385","116562.069246","117328.987605","118078.766383","121962.160248","122728.84628","123495.608001","124262.457684","125012.28848","125778.934476","126545.61554","127312.32349","129600.718197"
"Blocked","Female","done","20","F_done.wav","None","734.987889784","414","121195.518343","128079.366049","128828.991696","129595.694385","130362.385385","131129.033427","117328.987605","118078.766383","121962.160248","122728.84628","123495.608001","124262.457684","125012.28848","125778.934476","126545.61554","127312.32349","130367.326494"
"Blocked","Female","done","20","F_depth.wav","space","556.346116082","414","121195.518343","128079.366049","128828.991696","129595.694385","130362.385385","131129.033427","131895.93922","118078.766383","121962.160248","122728.84628","123495.608001","124262.457684","125012.28848","125778.934476","126545.61554","127312.32349","131133.991193"
"Blocked","Female","done","20","F_romp.wav","None","727.944734861","414","121195.518343","128079.366049","128828.991696","129595.694385","130362.385385","131129.033427","131895.93922","132645.78755","121962.160248","122728.84628","123495.608001","124262.457684","125012.28848","125778.934476","126545.61554","127312.32349","131901.08314"
"Blocked","Female","tile","16","F_gnash.wav","None","741.137097944","414","135762.57224","128079.366049","128828.991696","129595.694385","130362.385385","131129.033427","131895.93922","132645.78755","121962.160248","122728.84628","123495.608001","124262.457684","125012.28848","125778.934476","126545.61554","127312.32349","132651.253513"
"Blocked","Female","tile","16","F_park.wav","None","741.946296564","414","135762.57224","128079.366049","128828.991696","129595.694385","130362.385385","131129.033427","131895.93922","132645.78755","136529.215606","122728.84628","123495.608001","124262.457684","125012.28848","125778.934476","126545.61554","127312.32349","135767.588454"
"Blocked","Female","tile","16","F_dime.wav","None","738.977189309","414","135762.57224","128079.366049","128828.991696","129595.694385","130362.385385","131129.033427","131895.93922","132645.78755","136529.215606","137295.839392","123495.608001","124262.457684","125012.28848","125778.934476","126545.61554","127312.32349","136534.263673"
"Blocked","Female","tile","16","F_cling.wav","None","736.102766179","414","135762.57224","128079.366049","128828.991696","129595.694385","130362.385385","131129.033427","131895.93922","132645.78755","136529.215606","137295.839392","138062.523379","124262.457684","125012.28848","125778.934476","126545.61554","127312.32349","137300.934217"
"Blocked","Female","tile","16","F_cad.wav","None","733.040435969","414","135762.57224","128079.366049","128828.991696","129595.694385","130362.385385","131129.033427","131895.93922","132645.78755","136529.215606","137295.839392","138062.523379","138829.233082","125012.28848","125778.934476","126545.61554","127312.32349","138067.704997"
"Blocked","Female","tile","16","F_gnash.wav","None","729.688500905","414","135762.57224","128079.366049","128828.991696","129595.694385","130362.385385","131129.033427","131895.93922","132645.78755","136529.215606","137295.839392","138062.523379","138829.233082","139579.30088","125778.934476","126545.61554","127312.32349","138834.662515"
"Blocked","Female","tile","16","F_tile.wav","None","743.483160251","414","135762.57224","128079.366049","128828.991696","129595.694385","130362.385385","131129.033427","131895.93922","132645.78755","136529.215606","137295.839392","138062.523379","138829.233082","139579.30088","140345.948338","126545.61554","127312.32349","139584.339596"
"Blocked","Female","tile","16","F_bluff.wav","space","491.177426369","414","135762.57224","128079.366049","128828.991696","129595.694385","130362.385385","131129.033427","131895.93922","132645.78755","136529.215606","137295.839392","138062.523379","138829.233082","139579.30088","140345.948338","141112.667977","127312.32349","140351.047545"
"Blocked","Female","tile","16","F_cling.wav","None","736.954631106","414","135762.57224","128079.366049","128828.991696","129595.694385","130362.385385","131129.033427","131895.93922","132645.78755","136529.215606","137295.839392","138062.523379","138829.233082","139579.30088","140345.948338","141112.667977","141879.387324","141117.693834"
"Blocked","Female","tile","16","F_park.wav","None","733.778329257","414","135762.57224","142646.056406","128828.991696","129595.694385","130362.385385","131129.033427","131895.93922","132645.78755","136529.215606","137295.839392","138062.523379","138829.233082","139579.30088","140345.948338","141112.667977","141879.387324","141884.478641"
"Blocked","Female","tile","16","F_tile.wav","None","730.840783377","414","135762.57224","142646.056406","143413.123805","129595.694385","130362.385385","131129.033427","131895.93922","132645.78755","136529.215606","137295.839392","138062.523379","138829.233082","139579.30088","140345.948338","141112.667977","141879.387324","142651.00336"
"Blocked","Female","tile","16","F_romp.wav","space","583.447694617","414","135762.57224","142646.056406","143413.123805","144162.694804","130362.385385","131129.033427","131895.93922","132645.78755","136529.215606","137295.839392","138062.523379","138829.233082","139579.30088","140345.948338","141112.667977","141879.387324","143418.74173"
"Blocked","Female","tile","16","F_tile.wav","None","740.881976817","414","135762.57224","142646.056406","143413.123805","144162.694804","144929.385512","131129.033427","131895.93922","132645.78755","136529.215606","137295.839392","138062.523379","138829.233082","139579.30088","140345.948338","141112.667977","141879.387324","144167.687346"
"Blocked","Female","tile","16","F_park.wav","space","723.618196185","414","135762.57224","142646.056406","143413.123805","144162.694804","144929.385512","145696.120639","131895.93922","132645.78755","136529.215606","137295.839392","138062.523379","138829.233082","139579.30088","140345.948338","141112.667977","141879.387324","144934.533815"
"Blocked","Female","tile","16","F_tile.wav","None","734.218435118","414","135762.57224","142646.056406","143413.123805","144162.694804","144929.385512","145696.120639","146462.796151","132645.78755","136529.215606","137295.839392","138062.523379","138829.233082","139579.30088","140345.948338","141112.667977","141879.387324","145701.30518"
"Blocked","Female","tile","16","F_jaw.wav","space","630.116742024","414","135762.57224","142646.056406","143413.123805","144162.694804","144929.385512","145696.120639","146462.796151","147229.648465","136529.215606","137295.839392","138062.523379","138829.233082","139579.30088","140345.948338","141112.667977","141879.387324","146468.063978"
"Blocked","Female","cave","12","F_greet.wav","None","727.254475871","414","150329.52707","142646.056406","143413.123805","144162.694804","144929.385512","145696.120639","146462.796151","147229.648465","136529.215606","137295.839392","138062.523379","138829.233082","139579.30088","140345.948338","141112.667977","141879.387324","147235.188655"
"Blocked","Female","cave","12","F_lash.wav","None","742.082770294","414","150329.52707","142646.056406","143413.123805","144162.694804","144929.385512","145696.120639","146462.796151","147229.648465","151096.258107","137295.839392","138062.523379","138829.233082","139579.30088","140345.948338","141112.667977","141879.387324","150334.582735"
"Blocked","Female","cave","12","F_reek.wav","None","738.763857782","414","150329.52707","142646.056406","143413.123805","144162.694804","144929.385512","145696.120639","146462.796151","147229.648465","151096.258107","151862.908194","138062.523379","138829.233082","139579.30088","140345.948338","141112.667977","141879.387324","151101.377479"
"Blocked","Female","cave","12","F_jaw.wav","None","735.361366071","414","150329.52707","142646.056406","143413.123805","144162.694804","144929.385512","145696.120639","146462.796151","147229.648465","151096.258107","151862.908194","152629.580199","138829.233082","139579.30088","140345.948338","141112.667977","141879.387324","151868.207875"
"Blocked","Female","cave","12","F_cave.wav","None","732.37443248","414","150329.52707","142646.056406","143413.123805","144162.694804","144929.385512","145696.120639","146462.796151","147229.648465","151096.258107","151862.908194","152629.580199","153396.350687","139579.30088","140345.948338","141112.667977","141879.387324","152634.769415"
"Blocked","Female","cave","12","F_cling.wav","space","480.784382029","414","150329.52707","142646.056406","143413.123805","144162.694804","144929.385512","145696.120639","146462.796151","147229.648465","151096.258107","151862.908194","152629.580199","153396.350687","154146.291655","140345.948338","141112.667977","141879.387324","153401.333293"
"Blocked","Female","cave","12","F_romp.wav","None","742.608500999","414","150329.52707","142646.056406","143413.123805","144162.694804","144929.385512","145696.120639","146462.796151","147229.648465","151096.258107","151862.908194","152629.580199","153396.350687","154146.291655","154912.975057","141112.667977","141879.387324","154151.226043"
"Blocked","Female","cave","12","F_park.wav","None","739.29923224","414","150329.52707","142646.056406","143413.123805","144162.694804","144929.385512","145696.120639","146462.796151","147229.648465","151096.258107","151862.908194","152629.580199","153396.350687","154146.291655","154912.975057","155679.658167","141879.387324","154918.119269"
"Blocked","Female","cave","12","F_cave.wav","None","736.259111887","414","150329.52707","142646.056406","143413.123805","144162.694804","144929.385512","145696.120639","146462.796151","147229.648465","151096.258107","151862.908194","152629.580199","153396.350687","154146.291655","154912.975057","155679.658167","156446.339815","155684.795658"
"Blocked","Female","cave","12","F_bluff.wav","space","470.343118919","414","150329.52707","157213.074651","143413.123805","144162.694804","144929.385512","145696.120639","146462.796151","147229.648465","151096.258107","151862.908194","152629.580199","153396.350687","154146.291655","154912.975057","155679.658167","156446.339815","156451.733304"
"Blocked","Female","cave","12","F_gnash.wav","None","729.480721844","414","150329.52707","157213.074651","157963.030816","144162.694804","144929.385512","145696.120639","146462.796151","147229.648465","151096.258107","151862.908194","152629.580199","153396.350687","154146.291655","154912.975057","155679.658167","156446.339815","157218.163046"
"Blocked","Female","cave","12","F_greet.wav","None","743.042762158","414","150329.52707","157213.074651","157963.030816","158729.714802","144929.385512","145696.120639","146462.796151","147229.648465","151096.258107","151862.908194","152629.580199","153396.350687","154146.291655","154912.975057","155679.658167","156446.339815","157968.15837"
"Blocked","Female","cave","12","F_cave.wav","None","740.120996965","414","150329.52707","157213.074651","157963.030816","158729.714802","159496.4134","145696.120639","146462.796151","147229.648465","151096.258107","151862.908194","152629.580199","153396.350687","154146.291655","154912.975057","155679.658167","156446.339815","158734.702084"
"Blocked","Female","cave","12","F_bluff.wav","space","588.486409906","414","150329.52707","157213.074651","157963.030816","158729.714802","159496.4134","160263.147651","146462.796151","147229.648465","151096.258107","151862.908194","152629.580199","153396.350687","154146.291655","154912.975057","155679.658167","156446.339815","159501.541832"
"Blocked","Female","cave","12","F_cave.wav","None","733.439628932","414","150329.52707","157213.074651","157963.030816","158729.714802","159496.4134","160263.147651","161029.769099","147229.648465","151096.258107","151862.908194","152629.580199","153396.350687","154146.291655","154912.975057","155679.658167","156446.339815","160268.376904"
"Blocked","Female","cave","12","F_knife.wav","space","687.186724115","414","150329.52707","157213.074651","157963.030816","158729.714802","159496.4134","160263.147651","161029.769099","161796.834452","151096.258107","151862.908194","152629.580199","153396.350687","154146.291655","154912.975057","155679.658167","156446.339815","161034.870937"
"Blocked","Female","done","22","F_bluff.wav","None","726.401442003","414","164879.908963","157213.074651","157963.030816","158729.714802","159496.4134","160263.147651","161029.769099","161796.834452","151096.258107","151862.908194","152629.580199","153396.350687","154146.291655","154912.975057","155679.658167","156446.339815","161802.398898"
"Blocked","Female","done","22","F_romp.wav","None","741.041244873","414","164879.908963","157213.074651","157963.030816","158729.714802","159496.4134","160263.147651","161029.769099","161796.834452","165646.60873","151862.908194","152629.580199","153396.350687","154146.291655","154912.975057","155679.658167","156446.339815","164885.107239"
"Blocked","Female","done","22","F_bluff.wav","None","737.549621497","414","164879.908963","157213.074651","157963.030816","158729.714802","159496.4134","160263.147651","161029.769099","161796.834452","165646.60873","166413.249466","152629.580199","153396.350687","154146.291655","154912.975057","155679.658167","156446.339815","165652.059789"
"Blocked","Female","done","22","F_greet.wav","None","735.095140015","414","164879.908963","157213.074651","157963.030816","158729.714802","159496.4134","160263.147651","161029.769099","161796.834452","165646.60873","166413.249466","167179.965598","153396.350687","154146.291655","154912.975057","155679.658167","156446.339815","166418.261588"
"Blocked","Female","done","22","F_done.wav","None","732.052974017","414","164879.908963","157213.074651","157963.030816","158729.714802","159496.4134","160263.147651","161029.769099","161796.834452","165646.60873","166413.249466","167179.965598","167946.644032","154146.291655","154912.975057","155679.658167","156446.339815","167185.019802"
"Blocked","Female","done","22","F_cling.wav","space","466.238678819","414","164879.908963","157213.074651","157963.030816","158729.714802","159496.4134","160263.147651","161029.769099","161796.834452","165646.60873","166413.249466","167179.965598","167946.644032","168696.636434","154912.975057","155679.658167","156446.339815","167951.724245"
"Blocked","Female","done","22","F_done.wav","None","742.348996349","414","164879.908963","157213.074651","157963.030816","158729.714802","159496.4134","160263.147651","161029.769099","161796.834452","165646.60873","166413.249466","167179.965598","167946.644032","168696.636434","169463.375068","155679.658167","156446.339815","168701.731258"
"Blocked","Female","done","22","F_lash.wav","space","653.474206172","414","164879.908963","157213.074651","157963.030816","158729.714802","159496.4134","160263.147651","161029.769099","161796.834452","165646.60873","166413.249466","167179.965598","167946.644032","168696.636434","169463.375068","170230.030708","156446.339815","169468.522787"
"Blocked","Female","done","22","F_lash.wav","None","735.863133506","414","164879.908963","157213.074651","157963.030816","158729.714802","159496.4134","160263.147651","161029.769099","161796.834452","165646.60873","166413.249466","167179.965598","167946.644032","168696.636434","169463.375068","170230.030708","170996.709434","170235.060364"
"Blocked","Female","done","22","F_done.wav","None","733.126937517","414","164879.908963","171763.379101","157963.030816","158729.714802","159496.4134","160263.147651","161029.769099","161796.834452","165646.60873","166413.249466","167179.965598","167946.644032","168696.636434","169463.375068","170230.030708","170996.709434","171001.780295"
"Blocked","Female","done","22","F_cling.wav","space","609.428844293","414","164879.908963","171763.379101","172513.384069","158729.714802","159496.4134","160263.147651","161029.769099","161796.834452","165646.60873","166413.249466","167179.965598","167946.644032","168696.636434","169463.375068","170230.030708","170996.709434","171768.513377"
"Blocked","Female","done","22","F_jolt.wav","None","743.344348642","414","164879.908963","171763.379101","172513.384069","173280.138484","159496.4134","160263.147651","161029.769099","161796.834452","165646.60873","166413.249466","167179.965598","167946.644032","168696.636434","169463.375068","170230.030708","170996.709434","172518.497597"
"Blocked","Female","done","22","F_done.wav","None","740.415277576","414","164879.908963","171763.379101","172513.384069","173280.138484","174046.749996","160263.147651","161029.769099","161796.834452","165646.60873","166413.249466","167179.965598","167946.644032","168696.636434","169463.375068","170230.030708","170996.709434","173285.221912"
"Blocked","Female","done","22","F_dime.wav","space","541.931918604","414","164879.908963","171763.379101","172513.384069","173280.138484","174046.749996","174813.452978","161029.769099","161796.834452","165646.60873","166413.249466","167179.965598","167946.644032","168696.636434","169463.375068","170230.030708","170996.709434","174051.995322"
"Blocked","Female","done","22","F_cling.wav","None","734.172554228","414","164879.908963","171763.379101","172513.384069","173280.138484","174046.749996","174813.452978","175580.125568","161796.834452","165646.60873","166413.249466","167179.965598","167946.644032","168696.636434","169463.375068","170230.030708","170996.709434","174818.550141"
"Blocked","Female","done","22","F_bluff.wav","None","731.236761756","414","164879.908963","171763.379101","172513.384069","173280.138484","174046.749996","174813.452978","175580.125568","176347.319504","165646.60873","166413.249466","167179.965598","167946.644032","168696.636434","169463.375068","170230.030708","170996.709434","175585.229743"
"Blocked","Female","ball","4","F_depth.wav","None","727.405561349","414","179446.893893","171763.379101","172513.384069","173280.138484","174046.749996","174813.452978","175580.125568","176347.319504","165646.60873","166413.249466","167179.965598","167946.644032","168696.636434","169463.375068","170230.030708","170996.709434","176352.88395"
"Blocked","Female","ball","4","F_ball.wav","None","741.030724415","414","179446.893893","171763.379101","172513.384069","173280.138484","174046.749996","174813.452978","175580.125568","176347.319504","180213.59629","166413.249466","167179.965598","167946.644032","168696.636434","169463.375068","170230.030708","170996.709434","179451.974398"
"Blocked","Female","ball","4","F_depth.wav","space","527.072062805","414","179446.893893","171763.379101","172513.384069","173280.138484","174046.749996","174813.452978","175580.125568","176347.319504","180213.59629","180980.270048","167179.965598","167946.644032","168696.636434","169463.375068","170230.030708","170996.709434","180218.833433"
"Blocked","Female","ball","4","F_romp.wav","None","734.776019432","414","179446.893893","171763.379101","172513.384069","173280.138484","174046.749996","174813.452978","175580.125568","176347.319504","180213.59629","180980.270048","181747.013359","167946.644032","168696.636434","169463.375068","170230.030708","170996.709434","180985.224308"
"Blocked","Female","ball","4","F_cad.wav","None","731.600886524","414","179446.893893","171763.379101","172513.384069","173280.138484","174046.749996","174813.452978","175580.125568","176347.319504","180213.59629","180980.270048","181747.013359","182513.598862","168696.636434","169463.375068","170230.030708","170996.709434","181752.152018"
"Blocked","Female","ball","4","F_ball.wav","None","728.866443946","414","179446.893893","171763.379101","172513.384069","173280.138484","174046.749996","174813.452978","175580.125568","176347.319504","180213.59629","180980.270048","181747.013359","182513.598862","183263.654094","169463.375068","170230.030708","170996.709434","182518.970141"
"Blocked","Female","ball","4","F_jaw.wav","space","445.046968003","414","179446.893893","171763.379101","172513.384069","173280.138484","174046.749996","174813.452978","175580.125568","176347.319504","180213.59629","180980.270048","181747.013359","182513.598862","183263.654094","184030.338957","170230.030708","170996.709434","183268.814087"
"Blocked","Female","ball","4","F_cad.wav","None","739.388363905","414","179446.893893","171763.379101","172513.384069","173280.138484","174046.749996","174813.452978","175580.125568","176347.319504","180213.59629","180980.270048","181747.013359","182513.598862","183263.654094","184030.338957","184797.043108","170996.709434","184035.420924"
"Blocked","Female","ball","4","F_greet.wav","None","736.689866228","414","179446.893893","171763.379101","172513.384069","173280.138484","174046.749996","174813.452978","175580.125568","176347.319504","180213.59629","180980.270048","181747.013359","182513.598862","183263.654094","184030.338957","184797.043108","185563.745505","184801.928692"
"Blocked","Female","ball","4","F_reek.wav","None","733.758749515","414","179446.893893","186330.380396","172513.384069","173280.138484","174046.749996","174813.452978","175580.125568","176347.319504","180213.59629","180980.270048","181747.013359","182513.598862","183263.654094","184030.338957","184797.043108","185563.745505","185568.877444"
"Blocked","Female","ball","4","F_reek.wav","None","730.624821736","414","179446.893893","186330.380396","187097.367723","173280.138484","174046.749996","174813.452978","175580.125568","176347.319504","180213.59629","180980.270048","181747.013359","182513.598862","183263.654094","184030.338957","184797.043108","185563.745505","186335.896039"
"Blocked","Female","ball","4","F_ball.wav","None","727.762088007","414","179446.893893","186330.380396","187097.367723","187847.084255","174046.749996","174813.452978","175580.125568","176347.319504","180213.59629","180980.270048","181747.013359","182513.598862","183263.654094","184030.338957","184797.043108","185563.745505","187102.807092"
"Blocked","Female","ball","4","F_park.wav","space","469.510541499","414","179446.893893","186330.380396","187097.367723","187847.084255","188613.773209","174813.452978","175580.125568","176347.319504","180213.59629","180980.270048","181747.013359","182513.598862","183263.654094","184030.338957","184797.043108","185563.745505","187852.12034"
"Blocked","Female","ball","4","F_ball.wav","None","742.32620202","414","179446.893893","186330.380396","187097.367723","187847.084255","188613.773209","189380.430895","175580.125568","176347.319504","180213.59629","180980.270048","181747.013359","182513.598862","183263.654094","184030.338957","184797.043108","185563.745505","188615.580975"
"Blocked","Female","ball","4","F_cad.wav","None","736.417795471","414","179446.893893","186330.380396","187097.367723","187847.084255","188613.773209","189380.430895","190147.133584","176347.319504","180213.59629","180980.270048","181747.013359","182513.598862","183263.654094","184030.338957","184797.043108","185563.745505","189385.433081"
"Blocked","Female","ball","4","F_greet.wav","space","185.494099191","414","179446.893893","186330.380396","187097.367723","187847.084255","188613.773209","189380.430895","190147.133584","190913.853515","180213.59629","180980.270048","181747.013359","182513.598862","183263.654094","184030.338957","184797.043108","185563.745505","190152.272828"
"Blocked","Female","ball","2","F_reek.wav","None","729.702820418","414","194030.815593","186330.380396","187097.367723","187847.084255","188613.773209","189380.430895","190147.133584","190913.853515","180213.59629","180980.270048","181747.013359","182513.598862","183263.654094","184030.338957","184797.043108","185563.745505","190919.029289"
"Blocked","Female","ball","2","F_romp.wav","None","723.268975402","414","194030.815593","186330.380396","187097.367723","187847.084255","188613.773209","189380.430895","190147.133584","190913.853515","194780.590864","180980.270048","181747.013359","182513.598862","183263.654094","184030.338957","184797.043108","185563.745505","194036.683086"
"Blocked","Female","ball","2","F_ball.wav","None","737.954366925","414","194030.815593","186330.380396","187097.367723","187847.084255","188613.773209","189380.430895","190147.133584","190913.853515","194780.590864","195547.285371","181747.013359","182513.598862","183263.654094","184030.338957","184797.043108","185563.745505","194785.864536"
"Blocked","Female","ball","2","F_jaw.wav","space","409.325626903","414","194030.815593","186330.380396","187097.367723","187847.084255","188613.773209","189380.430895","190147.133584","190913.853515","194780.590864","195547.285371","196313.949193","182513.598862","183263.654094","184030.338957","184797.043108","185563.745505","195552.358278"
"Blocked","Female","ball","2","F_cad.wav","None","732.047129317","414","194030.815593","186330.380396","187097.367723","187847.084255","188613.773209","189380.430895","190147.133584","190913.853515","194780.590864","195547.285371","196313.949193","197080.701855","183263.654094","184030.338957","184797.043108","185563.745505","196318.987324"
"Blocked","Female","ball","2","F_bluff.wav","None","729.011976957","414","194030.815593","186330.380396","187097.367723","187847.084255","188613.773209","189380.430895","190147.133584","190913.853515","194780.590864","195547.285371","196313.949193","197080.701855","197830.672339","184030.338957","184797.043108","185563.745505","197085.825318"
"Blocked","Female","ball","2","F_ball.wav","None","743.20992056","414","194030.815593","186330.380396","187097.367723","187847.084255","188613.773209","189380.430895","190147.133584","190913.853515","194780.590864","195547.285371","196313.949193","197080.701855","197830.672339","198597.384088","184797.043108","185563.745505","197835.871784"
"Blocked","Female","ball","2","F_bluff.wav","space","431.181587795","414","194030.815593","186330.380396","187097.367723","187847.084255","188613.773209","189380.430895","190147.133584","190913.853515","194780.590864","195547.285371","196313.949193","197080.701855","197830.672339","198597.384088","199364.02307","185563.745505","198602.515734"
"Blocked","Female","ball","2","F_ball.wav","None","737.292162492","414","194030.815593","186330.380396","187097.367723","187847.084255","188613.773209","189380.430895","190147.133584","190913.853515","194780.590864","195547.285371","196313.949193","197080.701855","197830.672339","198597.384088","199364.02307","200130.720792","199369.165529"
"Blocked","Female","ball","2","F_depth.wav","space","481.500942165","414","194030.815593","200897.413837","187097.367723","187847.084255","188613.773209","189380.430895","190147.133584","190913.853515","194780.590864","195547.285371","196313.949193","197080.701855","197830.672339","198597.384088","199364.02307","200130.720792","200136.130938"
"Blocked","Female","ball","2","F_ball.wav","None","731.143831037","414","194030.815593","200897.413837","201664.444707","187847.084255","188613.773209","189380.430895","190147.133584","190913.853515","194780.590864","195547.285371","196313.949193","197080.701855","197830.672339","198597.384088","199364.02307","200130.720792","200902.62088"
"Blocked","Female","ball","2","F_cling.wav","space","499.623893598","414","194030.815593","200897.413837","201664.444707","202414.148673","188613.773209","189380.430895","190147.133584","190913.853515","194780.590864","195547.285371","196313.949193","197080.701855","197830.672339","198597.384088","199364.02307","200130.720792","201670.005646"
"Blocked","Female","ball","2","F_park.wav","None","741.567852283","414","194030.815593","200897.413837","201664.444707","202414.148673","203180.894321","189380.430895","190147.133584","190913.853515","194780.590864","195547.285371","196313.949193","197080.701855","197830.672339","198597.384088","199364.02307","200130.720792","202419.209598"
"Blocked","Female","ball","2","F_cling.wav","None","738.919619018","414","194030.815593","200897.413837","201664.444707","202414.148673","203180.894321","203947.447094","190147.133584","190913.853515","194780.590864","195547.285371","196313.949193","197080.701855","197830.672339","198597.384088","199364.02307","200130.720792","203185.783412"
"Blocked","Female","ball","2","F_jolt.wav","None","736.603072442","414","194030.815593","200897.413837","201664.444707","202414.148673","203180.894321","203947.447094","204714.131372","190913.853515","194780.590864","195547.285371","196313.949193","197080.701855","197830.672339","198597.384088","199364.02307","200130.720792","203952.786519"
"Blocked","Female","ball","2","F_dime.wav","None","734.917461155","414","194030.815593","200897.413837","201664.444707","202414.148673","203180.894321","203947.447094","204714.131372","205480.85861","194780.590864","195547.285371","196313.949193","197080.701855","197830.672339","198597.384088","199364.02307","200130.720792","204719.206033"
"Blocked","Female","cave","8","F_greet.wav","None","732.874446507","414","208580.972464","200897.413837","201664.444707","202414.148673","203180.894321","203947.447094","204714.131372","205480.85861","194780.590864","195547.285371","196313.949193","197080.701855","197830.672339","198597.384088","199364.02307","200130.720792","205485.770787"
"Blocked","Female","cave","8","F_cave.wav","None","741.102029746","414","208580.972464","200897.413837","201664.444707","202414.148673","203180.894321","203947.447094","204714.131372","205480.85861","209347.610278","195547.285371","196313.949193","197080.701855","197830.672339","198597.384088","199364.02307","200130.720792","208586.089499"
"Blocked","Female","cave","8","F_bluff.wav","space","505.000432508","414","208580.972464","200897.413837","201664.444707","202414.148673","203180.894321","203947.447094","204714.131372","205480.85861","209347.610278","210114.341606","196313.949193","197080.701855","197830.672339","198597.384088","199364.02307","200130.720792","209352.596391"
"Blocked","Female","cave","8","F_depth.wav","None","734.75643969","414","208580.972464","200897.413837","201664.444707","202414.148673","203180.894321","203947.447094","204714.131372","205480.85861","209347.610278","210114.341606","210880.95458","197080.701855","197830.672339","198597.384088","199364.02307","200130.720792","210119.505983"
"Blocked","Female","cave","8","F_cling.wav","None","732.270396831","414","208580.972464","200897.413837","201664.444707","202414.148673","203180.894321","203947.447094","204714.131372","205480.85861","209347.610278","210114.341606","210880.95458","211647.730036","197830.672339","198597.384088","199364.02307","200130.720792","210885.986574"
"Blocked","Female","cave","8","F_knife.wav","None","729.602291589","414","208580.972464","200897.413837","201664.444707","202414.148673","203180.894321","203947.447094","204714.131372","205480.85861","209347.610278","210114.341606","210880.95458","211647.730036","212397.756629","198597.384088","199364.02307","200130.720792","211652.603346"
"Blocked","Female","cave","8","F_romp.wav","None","743.004771613","414","208580.972464","200897.413837","201664.444707","202414.148673","203180.894321","203947.447094","204714.131372","205480.85861","209347.610278","210114.341606","210880.95458","211647.730036","212397.756629","213164.361128","199364.02307","200130.720792","212403.053096"
"Blocked","Female","cave","8","F_cad.wav","None","740.444501072","414","208580.972464","200897.413837","201664.444707","202414.148673","203180.894321","203947.447094","204714.131372","205480.85861","209347.610278","210114.341606","210880.95458","211647.730036","212397.756629","213164.361128","213931.100639","200130.720792","213169.553266"
"Blocked","Female","cave","8","F_cave.wav","None","737.942969761","414","208580.972464","200897.413837","201664.444707","202414.148673","203180.894321","203947.447094","204714.131372","205480.85861","209347.610278","210114.341606","210880.95458","211647.730036","212397.756629","213164.361128","213931.100639","214697.734945","213936.140231"
"Blocked","Female","cave","8","F_cad.wav","space","634.885139969","414","208580.972464","215464.432667","201664.444707","202414.148673","203180.894321","203947.447094","204714.131372","205480.85861","209347.610278","210114.341606","210880.95458","211647.730036","212397.756629","213164.361128","213931.100639","214697.734945","214702.70294"
"Blocked","Female","cave","8","F_knife.wav","None","732.406870562","414","208580.972464","215464.432667","216231.182698","202414.148673","203180.894321","203947.447094","204714.131372","205480.85861","209347.610278","210114.341606","210880.95458","211647.730036","212397.756629","213164.361128","213931.100639","214697.734945","215469.496806"
"Blocked","Female","cave","8","F_cave.wav","None","729.370841496","414","208580.972464","215464.432667","216231.182698","216981.121913","203180.894321","203947.447094","204714.131372","205480.85861","209347.610278","210114.341606","210880.95458","211647.730036","212397.756629","213164.361128","213931.100639","214697.734945","216236.382727"
"Blocked","Female","cave","8","F_greet.wav","space","671.374474561","414","208580.972464","215464.432667","216231.182698","216981.121913","217747.814667","203947.447094","204714.131372","205480.85861","209347.610278","210114.341606","210880.95458","211647.730036","212397.756629","213164.361128","213931.100639","214697.734945","216986.199204"
"Blocked","Female","cave","8","F_cave.wav","None","740.07774619","414","208580.972464","215464.432667","216231.182698","216981.121913","217747.814667","218514.525247","204714.131372","205480.85861","209347.610278","210114.341606","210880.95458","211647.730036","212397.756629","213164.361128","213931.100639","214697.734945","217752.859519"
"Blocked","Female","cave","8","F_lash.wav","space","729.893942085","414","208580.972464","215464.432667","216231.182698","216981.121913","217747.814667","218514.525247","219281.194621","205480.85861","209347.610278","210114.341606","210880.95458","211647.730036","212397.756629","213164.361128","213931.100639","214697.734945","218519.659231"
"Blocked","Female","cave","8","F_romp.wav","None","733.574933722","414","208580.972464","215464.432667","216231.182698","216981.121913","217747.814667","218514.525247","219281.194621","220047.879777","209347.610278","210114.341606","210880.95458","211647.730036","212397.756629","213164.361128","213931.100639","214697.734945","219286.537261"
"Blocked","Female","ball","6","F_cad.wav","None","731.288487346","414","223131.30117","215464.432667","216231.182698","216981.121913","217747.814667","218514.525247","219281.194621","220047.879777","209347.610278","210114.341606","210880.95458","211647.730036","212397.756629","213164.361128","213931.100639","214697.734945","220053.010838"
"Blocked","Female","ball","6","F_ball.wav","None","741.301333994","414","223131.30117","215464.432667","216231.182698","216981.121913","217747.814667","218514.525247","219281.194621","220047.879777","223897.954472","210114.341606","210880.95458","211647.730036","212397.756629","213164.361128","213931.100639","214697.734945","223136.485419"
"Blocked","Female","ball","6","F_dime.wav","space","442.21988694","414","223131.30117","215464.432667","216231.182698","216981.121913","217747.814667","218514.525247","219281.194621","220047.879777","223897.954472","224664.648687","210880.95458","211647.730036","212397.756629","213164.361128","213931.100639","214697.734945","223903.300619"
"Blocked","Female","ball","6","F_knife.wav","None","735.653308802","414","223131.30117","215464.432667","216231.182698","216981.121913","217747.814667","218514.525247","219281.194621","220047.879777","223897.954472","224664.648687","225431.342901","211647.730036","212397.756629","213164.361128","213931.100639","214697.734945","224669.604407"
"Blocked","Female","ball","6","F_ball.wav","None","732.905131179","414","223131.30117","215464.432667","216231.182698","216981.121913","217747.814667","218514.525247","219281.194621","220047.879777","223897.954472","224664.648687","225431.342901","226197.985391","212397.756629","213164.361128","213931.100639","214697.734945","225436.342457"
"Blocked","Female","ball","6","F_greet.wav","space","422.352292759","414","223131.30117","215464.432667","216231.182698","216981.121913","217747.814667","218514.525247","219281.194621","220047.879777","223897.954472","224664.648687","225431.342901","226197.985391","226948.02718","213164.361128","213931.100639","214697.734945","226203.139539"
"Blocked","Female","ball","6","F_knife.wav","None","743.624017507","414","223131.30117","215464.432667","216231.182698","216981.121913","217747.814667","218514.525247","219281.194621","220047.879777","223897.954472","224664.648687","225431.342901","226197.985391","226948.02718","227714.726947","213931.100639","214697.734945","226953.132817"
"Blocked","Female","ball","6","F_cling.wav","None","741.368548037","414","223131.30117","215464.432667","216231.182698","216981.121913","217747.814667","218514.525247","219281.194621","220047.879777","223897.954472","224664.648687","225431.342901","226197.985391","226948.02718","227714.726947","228481.472303","214697.734945","227719.587692"
"Blocked","Female","ball","6","F_ball.wav","None","738.509905595","414","223131.30117","215464.432667","216231.182698","216981.121913","217747.814667","218514.525247","219281.194621","220047.879777","223897.954472","224664.648687","225431.342901","226197.985391","226948.02718","227714.726947","228481.472303","229248.112162","228486.568589"
"Blocked","Female","ball","6","F_bluff.wav","space","532.361515694","414","223131.30117","230014.747638","216231.182698","216981.121913","217747.814667","218514.525247","219281.194621","220047.879777","223897.954472","224664.648687","225431.342901","226197.985391","226948.02718","227714.726947","228481.472303","229248.112162","229253.091554"
"Blocked","Female","ball","6","F_jaw.wav","None","732.745278652","414","223131.30117","230014.747638","230781.509359","216981.121913","217747.814667","218514.525247","219281.194621","220047.879777","223897.954472","224664.648687","225431.342901","226197.985391","226948.02718","227714.726947","228481.472303","229248.112162","230019.755084"
"Blocked","Female","ball","6","F_romp.wav","None","730.12363877","414","223131.30117","230014.747638","230781.509359","231548.444083","217747.814667","218514.525247","219281.194621","220047.879777","223897.954472","224664.648687","225431.342901","226197.985391","226948.02718","227714.726947","228481.472303","229248.112162","230786.558594"
"Blocked","Female","ball","6","F_reek.wav","None","726.998770277","414","223131.30117","230014.747638","230781.509359","231548.444083","232298.172304","218514.525247","219281.194621","220047.879777","223897.954472","224664.648687","225431.342901","226197.985391","226948.02718","227714.726947","228481.472303","229248.112162","231554.035706"
"Blocked","Female","ball","6","F_cad.wav","None","745.464513324","414","223131.30117","230014.747638","230781.509359","231548.444083","232298.172304","233064.861259","219281.194621","220047.879777","223897.954472","224664.648687","225431.342901","226197.985391","226948.02718","227714.726947","228481.472303","229248.112162","232299.793039"
"Blocked","Female","ball","6","F_ball.wav","None","739.836067873","414","223131.30117","230014.747638","230781.509359","231548.444083","232298.172304","233064.861259","233831.641098","220047.879777","223897.954472","224664.648687","225431.342901","226197.985391","226948.02718","227714.726947","228481.472303","229248.112162","233069.599264"
"Blocked","Female","ball","6","F_priest.wav","space","580.408743202","414","223131.30117","230014.747638","230781.509359","231548.444083","232298.172304","233064.861259","233831.641098","234598.26693","223897.954472","224664.648687","225431.342901","226197.985391","226948.02718","227714.726947","228481.472303","229248.112162","233837.022897"
"Blocked","Female","tile","13","F_greet.wav","None","733.07930322","414","237698.365881","230014.747638","230781.509359","231548.444083","232298.172304","233064.861259","233831.641098","234598.26693","223897.954472","224664.648687","225431.342901","226197.985391","226948.02718","227714.726947","228481.472303","229248.112162","234603.46579"
"Blocked","Female","tile","13","F_tile.wav","None","741.11459585","414","237698.365881","230014.747638","230781.509359","231548.444083","232298.172304","233064.861259","233831.641098","234598.26693","238465.014214","224664.648687","225431.342901","226197.985391","226948.02718","227714.726947","228481.472303","229248.112162","237703.481454"
"Blocked","Female","tile","13","F_jaw.wav","space","498.919315096","414","237698.365881","230014.747638","230781.509359","231548.444083","232298.172304","233064.861259","233831.641098","234598.26693","238465.014214","239231.659918","225431.342901","226197.985391","226948.02718","227714.726947","228481.472303","229248.112162","238470.426698"
"Blocked","Female","tile","13","F_reek.wav","None","735.521218596","414","237698.365881","230014.747638","230781.509359","231548.444083","232298.172304","233064.861259","233831.641098","234598.26693","238465.014214","239231.659918","239998.393","226197.985391","226948.02718","227714.726947","228481.472303","229248.112162","239236.577648"
"Blocked","Female","tile","13","F_tile.wav","None","733.050956427","414","237698.365881","230014.747638","230781.509359","231548.444083","232298.172304","233064.861259","233831.641098","234598.26693","238465.014214","239231.659918","239998.393","240765.017955","226948.02718","227714.726947","228481.472303","229248.112162","240003.405706"
"Blocked","Female","tile","13","F_gnash.wav","space","631.223728076","414","237698.365881","230014.747638","230781.509359","231548.444083","232298.172304","233064.861259","233831.641098","234598.26693","238465.014214","239231.659918","239998.393","240765.017955","241531.960569","227714.726947","228481.472303","229248.112162","240770.067483"
"Blocked","Female","tile","13","F_greet.wav","None","726.497295074","414","237698.365881","230014.747638","230781.509359","231548.444083","232298.172304","233064.861259","233831.641098","234598.26693","238465.014214","239231.659918","239998.393","240765.017955","241531.960569","242281.796333","228481.472303","229248.112162","241537.822218"
"Blocked","Female","tile","13","F_gnash.wav","None","741.515249989","414","237698.365881","230014.747638","230781.509359","231548.444083","232298.172304","233064.861259","233831.641098","234598.26693","238465.014214","239231.659918","239998.393","240765.017955","241531.960569","242281.796333","243048.458402","229248.112162","242287.029677"
"Blocked","Female","tile","13","F_tile.wav","None","739.284328258","414","237698.365881","230014.747638","230781.509359","231548.444083","232298.172304","233064.861259","233831.641098","234598.26693","238465.014214","239231.659918","239998.393","240765.017955","241531.960569","242281.796333","243048.458402","243815.153493","243053.454743"
"Blocked","Female","tile","13","F_lash.wav","space","556.965069738","414","237698.365881","244581.818485","230781.509359","231548.444083","232298.172304","233064.861259","233831.641098","234598.26693","238465.014214","239231.659918","239998.393","240765.017955","241531.960569","242281.796333","243048.458402","243815.153493","243820.367258"
"Blocked","Female","tile","13","F_greet.wav","None","733.783005016","414","237698.365881","244581.818485","245348.499841","231548.444083","232298.172304","233064.861259","233831.641098","234598.26693","238465.014214","239231.659918","239998.393","240765.017955","241531.960569","242281.796333","243048.458402","243815.153493","244586.671923"
"Blocked","Female","tile","13","F_jolt.wav","None","731.289948519","414","237698.365881","244581.818485","245348.499841","246115.160741","232298.172304","233064.861259","233831.641098","234598.26693","238465.014214","239231.659918","239998.393","240765.017955","241531.960569","242281.796333","243048.458402","243815.153493","245353.385717"
"Blocked","Female","tile","13","F_gnash.wav","None","728.953237731","414","237698.365881","244581.818485","245348.499841","246115.160741","246865.24695","233064.861259","233831.641098","234598.26693","238465.014214","239231.659918","239998.393","240765.017955","241531.960569","242281.796333","243048.458402","243815.153493","246120.145101"
"Blocked","Female","tile","13","F_reek.wav","None","743.006525023","414","237698.365881","244581.818485","245348.499841","246115.160741","246865.24695","247631.861677","233831.641098","234598.26693","238465.014214","239231.659918","239998.393","240765.017955","241531.960569","242281.796333","243048.458402","243815.153493","246870.352295"
"Blocked","Female","tile","13","F_tile.wav","None","740.592371965","414","237698.365881","244581.818485","245348.499841","246115.160741","246865.24695","247631.861677","248398.600604","234598.26693","238465.014214","239231.659918","239998.393","240765.017955","241531.960569","242281.796333","243048.458402","243815.153493","247637.061706"
"Blocked","Female","tile","13","F_knife.wav","space","525.888218957","414","237698.365881","244581.818485","245348.499841","246115.160741","246865.24695","247631.861677","248398.600604","249165.258873","238465.014214","239231.659918","239998.393","240765.017955","241531.960569","242281.796333","243048.458402","243815.153493","248403.371924"
"Blocked","Female","ball","3","F_park.wav","None","734.786247656","414","252265.308144","244581.818485","245348.499841","246115.160741","246865.24695","247631.861677","248398.600604","249165.258873","238465.014214","239231.659918","239998.393","240765.017955","241531.960569","242281.796333","243048.458402","243815.153493","249170.29642"
"Blocked","Female","ball","3","F_romp.wav","None","741.101153042","414","252265.308144","244581.818485","245348.499841","246115.160741","246865.24695","247631.861677","248398.600604","249165.258873","253031.989793","239231.659918","239998.393","240765.017955","241531.960569","242281.796333","243048.458402","243815.153493","252270.262696"
"Blocked","Female","ball","3","F_ball.wav","None","738.374016337","414","252265.308144","244581.818485","245348.499841","246115.160741","246865.24695","247631.861677","248398.600604","249165.258873","253031.989793","253798.710016","239998.393","240765.017955","241531.960569","242281.796333","243048.458402","243815.153493","253037.173749"
"Blocked","Female","ball","3","F_park.wav","space","469.397154333","414","252265.308144","244581.818485","245348.499841","246115.160741","246865.24695","247631.861677","248398.600604","249165.258873","253031.989793","253798.710016","254565.43287","240765.017955","241531.960569","242281.796333","243048.458402","243815.153493","253803.890173"
"Blocked","Female","ball","3","F_ball.wav","None","732.780346847","414","252265.308144","244581.818485","245348.499841","246115.160741","246865.24695","247631.861677","248398.600604","249165.258873","253031.989793","253798.710016","254565.43287","255332.069515","241531.960569","242281.796333","243048.458402","243815.153493","254570.269067"
"Blocked","Female","ball","3","F_cad.wav","space","531.556408363","414","252265.308144","244581.818485","245348.499841","246115.160741","246865.24695","247631.861677","248398.600604","249165.258873","253031.989793","253798.710016","254565.43287","255332.069515","256082.080035","242281.796333","243048.458402","243815.153493","255333.677976"
"Blocked","Female","ball","3","F_ball.wav","None","743.439032773","414","252265.308144","244581.818485","245348.499841","246115.160741","246865.24695","247631.861677","248398.600604","249165.258873","253031.989793","253798.710016","254565.43287","255332.069515","256082.080035","256848.738305","243048.458402","243815.153493","256087.341726"
"Blocked","Female","ball","3","F_knife.wav","space","547.702682485","414","252265.308144","244581.818485","245348.499841","246115.160741","246865.24695","247631.861677","248398.600604","249165.258873","253031.989793","253798.710016","254565.43287","255332.069515","256082.080035","256848.738305","257615.455022","243815.153493","256853.556967"
"Blocked","Female","ball","3","F_park.wav","None","737.833089415","414","252265.308144","244581.818485","245348.499841","246115.160741","246865.24695","247631.861677","248398.600604","249165.258873","253031.989793","253798.710016","254565.43287","255332.069515","256082.080035","256848.738305","257615.455022","258382.152159","257620.56212"
"Blocked","Female","ball","3","F_jaw.wav","None","735.577035475","414","252265.308144","259148.813351","245348.499841","246115.160741","246865.24695","247631.861677","248398.600604","249165.258873","253031.989793","253798.710016","254565.43287","255332.069515","256082.080035","256848.738305","257615.455022","258382.152159","258387.145285"
"Blocked","Female","ball","3","F_ball.wav","None","732.890811665","414","252265.308144","259148.813351","259915.506396","246115.160741","246865.24695","247631.861677","248398.600604","249165.258873","253031.989793","253798.710016","254565.43287","255332.069515","256082.080035","256848.738305","257615.455022","258382.152159","259154.041434"
"Blocked","Female","ball","3","F_lash.wav","space","488.449997429","414","252265.308144","259148.813351","259915.506396","260665.523054","246865.24695","247631.861677","248398.600604","249165.258873","253031.989793","253798.710016","254565.43287","255332.069515","256082.080035","256848.738305","257615.455022","258382.152159","259920.788836"
"Blocked","Female","ball","3","F_cad.wav","None","744.01970365","414","252265.308144","259148.813351","259915.506396","260665.523054","261432.208794","247631.861677","248398.600604","249165.258873","253031.989793","253798.710016","254565.43287","255332.069515","256082.080035","256848.738305","257615.455022","258382.152159","260670.245571"
"Blocked","Female","ball","3","F_dime.wav","None","741.390173423","414","252265.308144","259148.813351","259915.506396","260665.523054","261432.208794","262198.918205","248398.600604","249165.258873","253031.989793","253798.710016","254565.43287","255332.069515","256082.080035","256848.738305","257615.455022","258382.152159","261437.303034"
"Blocked","Female","ball","3","F_cad.wav","None","738.770286951","414","252265.308144","259148.813351","259915.506396","260665.523054","261432.208794","262198.918205","262965.580566","249165.258873","253031.989793","253798.710016","254565.43287","255332.069515","256082.080035","256848.738305","257615.455022","258382.152159","262204.206781"
"Blocked","Female","ball","3","F_gnash.wav","None","736.644862041","414","252265.308144","259148.813351","259915.506396","260665.523054","261432.208794","262198.918205","262965.580566","263732.345793","253031.989793","253798.710016","254565.43287","255332.069515","256082.080035","256848.738305","257615.455022","258382.152159","262970.611975"
"Blocked","Female","cave","7","F_greet.wav","None","734.049231072","414","266832.319083","259148.813351","259915.506396","260665.523054","261432.208794","262198.918205","262965.580566","263732.345793","253031.989793","253798.710016","254565.43287","255332.069515","256082.080035","256848.738305","257615.455022","258382.152159","263737.583813"
"Blocked","Female","cave","7","F_reek.wav","None","740.982213412","414","266832.319083","259148.813351","259915.506396","260665.523054","261432.208794","262198.918205","262965.580566","263732.345793","267599.067946","253798.710016","254565.43287","255332.069515","256082.080035","256848.738305","257615.455022","258382.152159","266837.431734"
"Blocked","Female","cave","7","F_cave.wav","None","738.403824304","414","266832.319083","259148.813351","259915.506396","260665.523054","261432.208794","262198.918205","262965.580566","263732.345793","267599.067946","268365.670106","254565.43287","255332.069515","256082.080035","256848.738305","257615.455022","258382.152159","267604.167738"
"Blocked","Female","cave","7","F_lash.wav","space","510.205429491","414","266832.319083","259148.813351","259915.506396","260665.523054","261432.208794","262198.918205","262965.580566","263732.345793","267599.067946","268365.670106","269132.389453","255332.069515","256082.080035","256848.738305","257615.455022","258382.152159","268370.92566"
"Blocked","Female","cave","7","F_jolt.wav","None","732.874154271","414","266832.319083","259148.813351","259915.506396","260665.523054","261432.208794","262198.918205","262965.580566","263732.345793","267599.067946","268365.670106","269132.389453","269899.098864","256082.080035","256848.738305","257615.455022","258382.152159","269137.318288"
"Blocked","Female","cave","7","F_jaw.wav","None","730.404184336","414","266832.319083","259148.813351","259915.506396","260665.523054","261432.208794","262198.918205","262965.580566","263732.345793","267599.067946","268365.670106","269132.389453","269899.098864","270665.935105","256848.738305","257615.455022","258382.152159","269904.143132"
"Blocked","Female","cave","7","F_cave.wav","None","726.673804993","414","266832.319083","259148.813351","259915.506396","260665.523054","261432.208794","262198.918205","262965.580566","263732.345793","267599.067946","268365.670106","269132.389453","269899.098864","270665.935105","271415.769992","257615.455022","258382.152159","270672.087236"
"Blocked","Female","cave","7","F_cling.wav","space","548.126423186","414","266832.319083","259148.813351","259915.506396","260665.523054","261432.208794","262198.918205","262965.580566","263732.345793","267599.067946","268365.670106","269132.389453","269899.098864","270665.935105","271415.769992","272182.432938","258382.152159","271421.016779"
"Blocked","Female","cave","7","F_cave.wav","None","738.730835232","414","266832.319083","259148.813351","259915.506396","260665.523054","261432.208794","262198.918205","262965.580566","263732.345793","267599.067946","268365.670106","269132.389453","269899.098864","270665.935105","271415.769992","272182.432938","272949.180632","272187.449443"
"Blocked","Female","cave","7","F_reek.wav","None","736.195696898","414","266832.319083","273715.822828","259915.506396","260665.523054","261432.208794","262198.918205","262965.580566","263732.345793","267599.067946","268365.670106","269132.389453","269899.098864","270665.935105","271415.769992","272182.432938","272949.180632","272954.207365"
"Blocked","Female","cave","7","F_knife.wav","space","8.28632246883","414","266832.319083","273715.822828","274482.513536","260665.523054","261432.208794","262198.918205","262965.580566","263732.345793","267599.067946","268365.670106","269132.389453","269899.098864","270665.935105","271415.769992","272182.432938","272949.180632","273720.795791"
"Blocked","Female","cave","7","F_priest.wav","None","730.204003385","414","266832.319083","273715.822828","274482.513536","275249.698121","261432.208794","262198.918205","262965.580566","263732.345793","267599.067946","268365.670106","269132.389453","269899.098864","270665.935105","271415.769992","272182.432938","272949.180632","274487.889199"
"Blocked","Female","cave","7","F_depth.wav","None","727.291589712","414","266832.319083","273715.822828","274482.513536","275249.698121","275999.213596","262198.918205","262965.580566","263732.345793","267599.067946","268365.670106","269132.389453","269899.098864","270665.935105","271415.769992","272182.432938","272949.180632","275255.075829"
"Blocked","Female","cave","7","F_cave.wav","None","742.554437529","414","266832.319083","273715.822828","274482.513536","275249.698121","275999.213596","276765.896998","262965.580566","263732.345793","267599.067946","268365.670106","269132.389453","269899.098864","270665.935105","271415.769992","272182.432938","272949.180632","276003.974103"
"Blocked","Female","cave","7","F_gnash.wav","space","581.949405943","414","266832.319083","273715.822828","274482.513536","275249.698121","275999.213596","276765.896998","277532.599103","263732.345793","267599.067946","268365.670106","269132.389453","269899.098864","270665.935105","271415.769992","272182.432938","272949.180632","276771.145245"
"Blocked","Female","cave","7","F_priest.wav","None","736.705062445","414","266832.319083","273715.822828","274482.513536","275249.698121","275999.213596","276765.896998","277532.599103","278299.298578","267599.067946","268365.670106","269132.389453","269899.098864","270665.935105","271415.769992","272182.432938","272949.180632","277537.522093"
"Blocked","Female","tile","15","F_gnash.wav","None","734.090436201","414","281399.343173","273715.822828","274482.513536","275249.698121","275999.213596","276765.896998","277532.599103","278299.298578","267599.067946","268365.670106","269132.389453","269899.098864","270665.935105","271415.769992","272182.432938","272949.180632","278304.431685"
"Blocked","Female","tile","15","F_jolt.wav","None","741.872653354","414","281399.343173","273715.822828","274482.513536","275249.698121","275999.213596","276765.896998","277532.599103","278299.298578","282166.049953","268365.670106","269132.389453","269899.098864","270665.935105","271415.769992","272182.432938","272949.180632","281404.361139"
"Blocked","Female","tile","15","F_tile.wav","None","739.30449247","414","281399.343173","273715.822828","274482.513536","275249.698121","275999.213596","276765.896998","277532.599103","278299.298578","282166.049953","282932.750305","269132.389453","269899.098864","270665.935105","271415.769992","272182.432938","272949.180632","282171.290311"
"Blocked","Female","tile","15","F_park.wav","space","415.064829405","414","281399.343173","273715.822828","274482.513536","275249.698121","275999.213596","276765.896998","277532.599103","278299.298578","282166.049953","282932.750305","283699.415296","269899.098864","270665.935105","271415.769992","272182.432938","272949.180632","282937.927832"
"Blocked","Female","tile","15","F_tile.wav","None","734.193302911","414","281399.343173","273715.822828","274482.513536","275249.698121","275999.213596","276765.896998","277532.599103","278299.298578","282166.049953","282932.750305","283699.415296","284466.136397","270665.935105","271415.769992","272182.432938","272949.180632","283704.184863"
"Blocked","Female","tile","15","F_cling.wav","space","473.743857221","414","281399.343173","273715.822828","274482.513536","275249.698121","275999.213596","276765.896998","277532.599103","278299.298578","282166.049953","282932.750305","283699.415296","284466.136397","285233.317475","271415.769992","272182.432938","272949.180632","284471.243495"
"Blocked","Female","tile","15","F_tile.wav","None","727.077673717","414","281399.343173","273715.822828","274482.513536","275249.698121","275999.213596","276765.896998","277532.599103","278299.298578","282166.049953","282932.750305","283699.415296","284466.136397","285233.317475","285982.802557","272182.432938","272949.180632","285238.897994"
"Blocked","Female","tile","15","F_dime.wav","space","684.90553797","414","281399.343173","273715.822828","274482.513536","275249.698121","275999.213596","276765.896998","277532.599103","278299.298578","282166.049953","282932.750305","283699.415296","284466.136397","285233.317475","285982.802557","286749.465794","272949.180632","285988.098147"
"Blocked","Female","tile","15","F_greet.wav","None","739.171817795","414","281399.343173","273715.822828","274482.513536","275249.698121","275999.213596","276765.896998","277532.599103","278299.298578","282166.049953","282932.750305","283699.415296","284466.136397","285233.317475","285982.802557","286749.465794","287516.192739","286754.526427"
"Blocked","Female","tile","15","F_tile.wav","None","737.168254867","414","281399.343173","288282.847502","274482.513536","275249.698121","275999.213596","276765.896998","277532.599103","278299.298578","282166.049953","282932.750305","283699.415296","284466.136397","285233.317475","285982.802557","286749.465794","287516.192739","287521.064004"
"Blocked","Female","tile","15","F_jolt.wav","space","672.766389707","414","281399.343173","288282.847502","289049.525936","275249.698121","275999.213596","276765.896998","277532.599103","278299.298578","282166.049953","282932.750305","283699.415296","284466.136397","285233.317475","285982.802557","286749.465794","287516.192739","288288.172608"
"Blocked","Female","tile","15","F_romp.wav","None","731.632155665","414","281399.343173","288282.847502","289049.525936","289816.227165","275999.213596","276765.896998","277532.599103","278299.298578","282166.049953","282932.750305","283699.415296","284466.136397","285233.317475","285982.802557","286749.465794","287516.192739","289054.561729"
"Blocked","Female","tile","15","F_depth.wav","None","729.507315225","414","281399.343173","288282.847502","289049.525936","289816.227165","290566.251128","276765.896998","277532.599103","278299.298578","282166.049953","282932.750305","283699.415296","284466.136397","285233.317475","285982.802557","286749.465794","287516.192739","289821.194282"
"Blocked","Female","tile","15","F_gnash.wav","None","743.860435594","414","281399.343173","288282.847502","289049.525936","289816.227165","290566.251128","291332.937745","277532.599103","278299.298578","282166.049953","282932.750305","283699.415296","284466.136397","285233.317475","285982.802557","286749.465794","287516.192739","290571.290428"
"Blocked","Female","tile","15","F_bluff.wav","None","742.462383514","414","281399.343173","288282.847502","289049.525936","289816.227165","290566.251128","291332.937745","292099.600398","278299.298578","282166.049953","282932.750305","283699.415296","284466.136397","285233.317475","285982.802557","286749.465794","287516.192739","291338.059747"
"Blocked","Female","tile","15","F_bluff.wav","None","740.024851662","414","281399.343173","288282.847502","289049.525936","289816.227165","290566.251128","291332.937745","292099.600398","292866.262759","282166.049953","282932.750305","283699.415296","284466.136397","285233.317475","285982.802557","286749.465794","287516.192739","292105.028662"
"Blocked","Female","tile","14","F_gnash.wav","None","738.800971623","414","295983.123431","288282.847502","289049.525936","289816.227165","290566.251128","291332.937745","292099.600398","292866.262759","282166.049953","282932.750305","283699.415296","284466.136397","285233.317475","285982.802557","286749.465794","287516.192739","292871.286278"
"Blocked","Female","tile","14","F_knife.wav","None","740.987765876","414","295983.123431","288282.847502","289049.525936","289816.227165","290566.251128","291332.937745","292099.600398","292866.262759","296749.740788","282932.750305","283699.415296","284466.136397","285233.317475","285982.802557","286749.465794","287516.192739","295988.122402"
"Blocked","Female","tile","14","F_reek.wav","None","738.745446979","414","295983.123431","288282.847502","289049.525936","289816.227165","290566.251128","291332.937745","292099.600398","292866.262759","296749.740788","297516.446399","283699.415296","284466.136397","285233.317475","285982.802557","286749.465794","287516.192739","296754.946077"
"Blocked","Female","tile","14","F_dime.wav","None","736.933882423","414","295983.123431","288282.847502","289049.525936","289816.227165","290566.251128","291332.937745","292099.600398","292866.262759","296749.740788","297516.446399","298283.091226","284466.136397","285233.317475","285982.802557","286749.465794","287516.192739","297521.603178"
"Blocked","Female","tile","14","F_knife.wav","None","735.007177291","414","295983.123431","288282.847502","289049.525936","289816.227165","290566.251128","291332.937745","292099.600398","292866.262759","296749.740788","297516.446399","298283.091226","299049.80882","285233.317475","285982.802557","286749.465794","287516.192739","298288.186635"
"Blocked","Female","tile","14","F_tile.wav","None","733.384104289","414","295983.123431","288282.847502","289049.525936","289816.227165","290566.251128","291332.937745","292099.600398","292866.262759","296749.740788","297516.446399","298283.091226","299049.80882","299816.44225","285982.802557","286749.465794","287516.192739","299054.614916"
"Blocked","Female","tile","14","F_priest.wav","space","594.97899415","414","295983.123431","288282.847502","289049.525936","289816.227165","290566.251128","291332.937745","292099.600398","292866.262759","296749.740788","297516.446399","298283.091226","299049.80882","299816.44225","300583.706615","286749.465794","287516.192739","299821.837199"
"Blocked","Female","tile","14","F_priest.wav","None","726.92074354","414","295983.123431","288282.847502","289049.525936","289816.227165","290566.251128","291332.937745","292099.600398","292866.262759","296749.740788","297516.446399","298283.091226","299049.80882","299816.44225","300583.706615","301333.184683","287516.192739","300588.967721"
"Blocked","Female","tile","14","F_tile.wav","None","742.185344767","414","295983.123431","288282.847502","289049.525936","289816.227165","290566.251128","291332.937745","292099.600398","292866.262759","296749.740788","297516.446399","298283.091226","299049.80882","299816.44225","300583.706615","301333.184683","302099.946989","301338.316621"
"Blocked","Female","tile","14","F_knife.wav","space","543.528105989","414","295983.123431","302866.522556","289049.525936","289816.227165","290566.251128","291332.937745","292099.600398","292866.262759","296749.740788","297516.446399","298283.091226","299049.80882","299816.44225","300583.706615","301333.184683","302099.946989","302105.285537"
"Blocked","Female","tile","14","F_romp.wav","None","736.422178998","414","295983.123431","302866.522556","303633.239857","289816.227165","290566.251128","291332.937745","292099.600398","292866.262759","296749.740788","297516.446399","298283.091226","299049.80882","299816.44225","300583.706615","301333.184683","302099.946989","302871.758822"
"Blocked","Female","tile","14","F_gnash.wav","None","734.843817945","414","295983.123431","302866.522556","303633.239857","304399.926181","290566.251128","291332.937745","292099.600398","292866.262759","296749.740788","297516.446399","298283.091226","299049.80882","299816.44225","300583.706615","301333.184683","302099.946989","303638.288508"
"Blocked","Female","tile","14","F_tile.wav","None","732.681863665","414","295983.123431","302866.522556","303633.239857","304399.926181","305166.607538","291332.937745","292099.600398","292866.262759","296749.740788","297516.446399","298283.091226","299049.80882","299816.44225","300583.706615","301333.184683","302099.946989","304404.969572"
"Blocked","Female","tile","14","F_park.wav","space","420.937291052","414","295983.123431","302866.522556","303633.239857","304399.926181","305166.607538","305916.65751","292099.600398","292866.262759","296749.740788","297516.446399","298283.091226","299049.80882","299816.44225","300583.706615","301333.184683","302099.946989","305171.844681"
"Blocked","Female","tile","14","F_tile.wav","None","743.472932028","414","295983.123431","302866.522556","303633.239857","304399.926181","305166.607538","305916.65751","306683.286264","292866.262759","296749.740788","297516.446399","298283.091226","299049.80882","299816.44225","300583.706615","301333.184683","302099.946989","305921.904589"
"Blocked","Female","tile","14","F_cling.wav","space","624.454105082","414","295983.123431","302866.522556","303633.239857","304399.926181","305166.607538","305916.65751","306683.286264","307449.973757","296749.740788","297516.446399","298283.091226","299049.80882","299816.44225","300583.706615","301333.184683","302099.946989","306688.314459"
"Blocked","Female","done","21","F_greet.wav","None","738.431878861","414","310550.099301","302866.522556","303633.239857","304399.926181","305166.607538","305916.65751","306683.286264","307449.973757","296749.740788","297516.446399","298283.091226","299049.80882","299816.44225","300583.706615","301333.184683","302099.946989","307454.890903"
"Blocked","Female","done","21","F_depth.wav","None","740.648188845","414","310550.099301","302866.522556","303633.239857","304399.926181","305166.607538","305916.65751","306683.286264","307449.973757","311316.738868","297516.446399","298283.091226","299049.80882","299816.44225","300583.706615","301333.184683","302099.946989","310555.240591"
"Blocked","Female","done","21","F_done.wav","None","738.512243477","414","310550.099301","302866.522556","303633.239857","304399.926181","305166.607538","305916.65751","306683.286264","307449.973757","311316.738868","312083.421101","298283.091226","299049.80882","299816.44225","300583.706615","301333.184683","302099.946989","311321.865254"
"Blocked","Female","done","21","F_gnash.wav","space","544.184757959","414","310550.099301","302866.522556","303633.239857","304399.926181","305166.607538","305916.65751","306683.286264","307449.973757","311316.738868","312083.421101","312850.085508","299049.80882","299816.44225","300583.706615","301333.184683","302099.946989","312088.497515"
"Blocked","Female","done","21","F_done.wav","None","733.064399235","414","310550.099301","302866.522556","303633.239857","304399.926181","305166.607538","305916.65751","306683.286264","307449.973757","311316.738868","312083.421101","312850.085508","313616.815375","299816.44225","300583.706615","301333.184683","302099.946989","312855.132698"
"Blocked","Female","done","21","F_cad.wav","space","514.918302793","414","310550.099301","302866.522556","303633.239857","304399.926181","305166.607538","305916.65751","306683.286264","307449.973757","311316.738868","312083.421101","312850.085508","313616.815375","314383.858519","300583.706615","301333.184683","302099.946989","313621.759991"
"Blocked","Female","done","21","F_jolt.wav","None","726.216749506","414","310550.099301","302866.522556","303633.239857","304399.926181","305166.607538","305916.65751","306683.286264","307449.973757","311316.738868","312083.421101","312850.085508","313616.815375","314383.858519","315133.491471","301333.184683","302099.946989","314389.789719"
"Blocked","Female","done","21","F_done.wav","None","741.894863211","414","310550.099301","302866.522556","303633.239857","304399.926181","305166.607538","305916.65751","306683.286264","307449.973757","311316.738868","312083.421101","312850.085508","313616.815375","314383.858519","315133.491471","315900.189193","302099.946989","315138.678058"
"Blocked","Female","done","21","F_priest.wav","space","559.709448307","414","310550.099301","302866.522556","303633.239857","304399.926181","305166.607538","305916.65751","306683.286264","307449.973757","311316.738868","312083.421101","312850.085508","313616.815375","314383.858519","315133.491471","315900.189193","316666.912339","315905.01633"
"Blocked","Female","done","21","F_jolt.wav","None","736.127898388","414","310550.099301","317433.546938","303633.239857","304399.926181","305166.607538","305916.65751","306683.286264","307449.973757","311316.738868","312083.421101","312850.085508","313616.815375","314383.858519","315133.491471","315900.189193","316666.912339","316672.178413"
"Blocked","Female","done","21","F_priest.wav","None","734.237138155","414","310550.099301","317433.546938","318200.229171","304399.926181","305166.607538","305916.65751","306683.286264","307449.973757","311316.738868","312083.421101","312850.085508","313616.815375","314383.858519","315133.491471","315900.189193","316666.912339","317438.60494"
"Blocked","Female","done","21","F_depth.wav","None","731.871203867","414","310550.099301","317433.546938","318200.229171","318966.942965","305166.607538","305916.65751","306683.286264","307449.973757","311316.738868","312083.421101","312850.085508","313616.815375","314383.858519","315133.491471","315900.189193","316666.912339","318205.509564"
"Blocked","Female","done","21","F_done.wav","None","730.150524385","414","310550.099301","317433.546938","318200.229171","318966.942965","319733.941104","305916.65751","306683.286264","307449.973757","311316.738868","312083.421101","312850.085508","313616.815375","314383.858519","315133.491471","315900.189193","316666.912339","318971.947489"
"Blocked","Female","done","21","F_park.wav","space","533.355991285","414","310550.099301","317433.546938","318200.229171","318966.942965","319733.941104","320483.643901","306683.286264","307449.973757","311316.738868","312083.421101","312850.085508","313616.815375","314383.858519","315133.491471","315900.189193","316666.912339","319739.373752"
"Blocked","Female","done","21","F_cling.wav","None","741.364164511","414","310550.099301","317433.546938","318200.229171","318966.942965","319733.941104","320483.643901","321250.323212","307449.973757","311316.738868","312083.421101","312850.085508","313616.815375","314383.858519","315133.491471","315900.189193","316666.912339","320488.696644"
"Blocked","Female","done","21","F_knife.wav","None","739.581531217","414","310550.099301","317433.546938","318200.229171","318966.942965","319733.941104","320483.643901","321250.323212","322017.001938","311316.738868","312083.421101","312850.085508","313616.815375","314383.858519","315133.491471","315900.189193","316666.912339","321255.261106"
"Blocked","Female","tile","17","F_gnash.wav","None","737.501402727","414","325133.799487","317433.546938","318200.229171","318966.942965","319733.941104","320483.643901","321250.323212","322017.001938","311316.738868","312083.421101","312850.085508","313616.815375","314383.858519","315133.491471","315900.189193","316666.912339","322022.039192"
"Blocked","Female","tile","17","F_lash.wav","None","741.320621502","414","325133.799487","317433.546938","318200.229171","318966.942965","319733.941104","320483.643901","321250.323212","322017.001938","325900.445483","312083.421101","312850.085508","313616.815375","314383.858519","315133.491471","315900.189193","316666.912339","325138.694715"
"Blocked","Female","tile","17","F_tile.wav","None","739.055216043","414","325133.799487","317433.546938","318200.229171","318966.942965","319733.941104","320483.643901","321250.323212","322017.001938","325900.445483","326667.077744","312850.085508","313616.815375","314383.858519","315133.491471","315900.189193","316666.912339","325905.651649"
"Blocked","Female","tile","17","F_lash.wav","space","528.326627515","414","325133.799487","317433.546938","318200.229171","318966.942965","319733.941104","320483.643901","321250.323212","322017.001938","325900.445483","326667.077744","327433.819301","313616.815375","314383.858519","315133.491471","315900.189193","316666.912339","326672.270467"
"Blocked","Female","tile","17","F_romp.wav","None","733.917725338","414","325133.799487","317433.546938","318200.229171","318966.942965","319733.941104","320483.643901","321250.323212","322017.001938","325900.445483","326667.077744","327433.819301","328200.444256","314383.858519","315133.491471","315900.189193","316666.912339","327438.738492"
"Blocked","Female","tile","17","F_depth.wav","None","731.81421805","414","325133.799487","317433.546938","318200.229171","318966.942965","319733.941104","320483.643901","321250.323212","322017.001938","325900.445483","326667.077744","327433.819301","328200.444256","328967.193118","315133.491471","315900.189193","316666.912339","328205.568011"
"Blocked","Female","tile","17","F_tile.wav","None","730.017557476","414","325133.799487","317433.546938","318200.229171","318966.942965","319733.941104","320483.643901","321250.323212","322017.001938","325900.445483","326667.077744","327433.819301","328200.444256","328967.193118","329734.089852","315900.189193","316666.912339","328972.078995"
"Blocked","Female","tile","17","F_cling.wav","space","581.110399356","414","325133.799487","317433.546938","318200.229171","318966.942965","319733.941104","320483.643901","321250.323212","322017.001938","325900.445483","326667.077744","327433.819301","328200.444256","328967.193118","329734.089852","330483.861324","316666.912339","329739.507596"
"Blocked","Female","tile","17","F_tile.wav","None","741.323251616","414","325133.799487","317433.546938","318200.229171","318966.942965","319733.941104","320483.643901","321250.323212","322017.001938","325900.445483","326667.077744","327433.819301","328200.444256","328967.193118","329734.089852","330483.861324","331250.554954","330488.85825"
"Blocked","Female","tile","17","F_bluff.wav","space","624.959671575","414","325133.799487","332017.234557","318200.229171","318966.942965","319733.941104","320483.643901","321250.323212","322017.001938","325900.445483","326667.077744","327433.819301","328200.444256","328967.193118","329734.089852","330483.861324","331250.554954","331255.649194"
"Blocked","Female","tile","17","F_priest.wav","None","735.857581041","414","325133.799487","332017.234557","332783.932571","318966.942965","319733.941104","320483.643901","321250.323212","322017.001938","325900.445483","326667.077744","327433.819301","328200.444256","328967.193118","329734.089852","330483.861324","331250.554954","332022.288469"
"Blocked","Female","tile","17","F_tile.wav","None","733.683645129","414","325133.799487","332017.234557","332783.932571","333550.578567","319733.941104","320483.643901","321250.323212","322017.001938","325900.445483","326667.077744","327433.819301","328200.444256","328967.193118","329734.089852","330483.861324","331250.554954","332789.207412"
"Blocked","Female","tile","17","F_reek.wav","space","540.97601803","414","325133.799487","332017.234557","332783.932571","333550.578567","334317.574368","320483.643901","321250.323212","322017.001938","325900.445483","326667.077744","327433.819301","328200.444256","328967.193118","329734.089852","330483.861324","331250.554954","333555.604424"
"Blocked","Female","tile","17","F_bluff.wav","None","731.906272063","414","325133.799487","332017.234557","332783.932571","333550.578567","334317.574368","335084.156657","321250.323212","322017.001938","325900.445483","326667.077744","327433.819301","328200.444256","328967.193118","329734.089852","330483.861324","331250.554954","334319.07704"
"Blocked","Female","tile","17","F_jolt.wav","None","726.418391632","414","325133.799487","332017.234557","332783.932571","333550.578567","334317.574368","335084.156657","335833.998558","322017.001938","325900.445483","326667.077744","327433.819301","328200.444256","328967.193118","329734.089852","330483.861324","331250.554954","335089.791824"
"Blocked","Female","tile","17","F_park.wav","None","741.626299276","414","325133.799487","332017.234557","332783.932571","333550.578567","334317.574368","335084.156657","335833.998558","336600.754726","325900.445483","326667.077744","327433.819301","328200.444256","328967.193118","329734.089852","330483.861324","331250.554954","335839.392631"
"Blocked","Female","cave","11","F_romp.wav","None","740.284064077","414","339717.466358","332017.234557","332783.932571","333550.578567","334317.574368","335084.156657","335833.998558","336600.754726","325900.445483","326667.077744","327433.819301","328200.444256","328967.193118","329734.089852","330483.861324","331250.554954","336605.666904"
"Blocked","Female","cave","11","F_gnash.wav","None","740.922013008","414","339717.466358","332017.234557","332783.932571","333550.578567","334317.574368","335084.156657","335833.998558","336600.754726","340484.126381","326667.077744","327433.819301","328200.444256","328967.193118","329734.089852","330483.861324","331250.554954","339722.614369"
"Blocked","Female","cave","11","F_depth.wav","None","738.6177403","414","339717.466358","332017.234557","332783.932571","333550.578567","334317.574368","335084.156657","335833.998558","336600.754726","340484.126381","341250.800432","327433.819301","328200.444256","328967.193118","329734.089852","330483.861324","331250.554954","340489.512856"
"Blocked","Female","cave","11","F_jaw.wav","None","736.903197752","414","339717.466358","332017.234557","332783.932571","333550.578567","334317.574368","335084.156657","335833.998558","336600.754726","340484.126381","341250.800432","342017.500491","328200.444256","328967.193118","329734.089852","330483.861324","331250.554954","341255.941429"
"Blocked","Female","cave","11","F_knife.wav","None","734.801736109","414","339717.466358","332017.234557","332783.932571","333550.578567","334317.574368","335084.156657","335833.998558","336600.754726","340484.126381","341250.800432","342017.500491","342784.185062","328967.193118","329734.089852","330483.861324","331250.554954","342022.632429"
"Blocked","Female","cave","11","F_knife.wav","None","732.835579258","414","339717.466358","332017.234557","332783.932571","333550.578567","334317.574368","335084.156657","335833.998558","336600.754726","340484.126381","341250.800432","342017.500491","342784.185062","343550.855898","329734.089852","330483.861324","331250.554954","342789.238973"
"Blocked","Female","cave","11","F_cad.wav","None","731.043886679","414","339717.466358","332017.234557","332783.932571","333550.578567","334317.574368","335084.156657","335833.998558","336600.754726","340484.126381","341250.800432","342017.500491","342784.185062","343550.855898","344317.814293","330483.861324","331250.554954","343555.663163"
"Blocked","Female","cave","11","F_cave.wav","None","727.923109473","414","339717.466358","332017.234557","332783.932571","333550.578567","334317.574368","335084.156657","335833.998558","336600.754726","340484.126381","341250.800432","342017.500491","342784.185062","343550.855898","344317.814293","345067.651518","331250.554954","344323.520765"
"Blocked","Female","cave","11","F_priest.wav","space","639.761957085","414","339717.466358","332017.234557","332783.932571","333550.578567","334317.574368","335084.156657","335833.998558","336600.754726","340484.126381","341250.800432","342017.500491","342784.185062","343550.855898","344317.814293","345067.651518","345834.22504","345072.722379"
"Blocked","Female","cave","11","F_cave.wav","None","739.72414188","414","339717.466358","346600.929483","332783.932571","333550.578567","334317.574368","335084.156657","335833.998558","336600.754726","340484.126381","341250.800432","342017.500491","342784.185062","343550.855898","344317.814293","345067.651518","345834.22504","345839.542547"
"Blocked","Female","cave","11","F_lash.wav","space","690.421765192","414","339717.466358","346600.929483","347367.635679","333550.578567","334317.574368","335084.156657","335833.998558","336600.754726","340484.126381","341250.800432","342017.500491","342784.185062","343550.855898","344317.814293","345067.651518","345834.22504","346606.025476"
"Blocked","Female","cave","11","F_cave.wav","None","735.435009281","414","339717.466358","346600.929483","347367.635679","348134.263556","334317.574368","335084.156657","335833.998558","336600.754726","340484.126381","341250.800432","342017.500491","342784.185062","343550.855898","344317.814293","345067.651518","345834.22504","347372.565975"
"Blocked","Female","cave","11","F_knife.wav","space","629.090997292","414","339717.466358","346600.929483","347367.635679","348134.263556","348900.986994","335084.156657","335833.998558","336600.754726","340484.126381","341250.800432","342017.500491","342784.185062","343550.855898","344317.814293","345067.651518","345834.22504","348139.383513"
"Blocked","Female","cave","11","F_priest.wav","None","729.786691854","414","339717.466358","346600.929483","347367.635679","348134.263556","348900.986994","349667.891326","335833.998558","336600.754726","340484.126381","341250.800432","342017.500491","342784.185062","343550.855898","344317.814293","345067.651518","345834.22504","348906.135298"
"Blocked","Female","cave","11","F_cave.wav","None","727.075043602","414","339717.466358","346600.929483","347367.635679","348134.263556","348900.986994","349667.891326","350417.693775","336600.754726","340484.126381","341250.800432","342017.500491","342784.185062","343550.855898","344317.814293","345067.651518","345834.22504","349673.616793"
"Blocked","Female","cave","11","F_romp.wav","space","577.445480645","414","339717.466358","346600.929483","347367.635679","348134.263556","348900.986994","349667.891326","350417.693775","351184.396465","340484.126381","341250.800432","342017.500491","342784.185062","343550.855898","344317.814293","345067.651518","345834.22504","350423.006899"
"Blocked","Female","done","24","F_cad.wav","None","739.147562294","414","354284.437553","346600.929483","347367.635679","348134.263556","348900.986994","349667.891326","350417.693775","351184.396465","340484.126381","341250.800432","342017.500491","342784.185062","343550.855898","344317.814293","345067.651518","345834.22504","351189.461189"
"Blocked","Female","done","24","F_greet.wav","None","741.011144672","414","354284.437553","346600.929483","347367.635679","348134.263556","348900.986994","349667.891326","350417.693775","351184.396465","355051.120955","341250.800432","342017.500491","342784.185062","343550.855898","344317.814293","345067.651518","345834.22504","354289.545528"
"Blocked","Female","done","24","F_dime.wav","None","739.071288966","414","354284.437553","346600.929483","347367.635679","348134.263556","348900.986994","349667.891326","350417.693775","351184.396465","355051.120955","355817.83095","342017.500491","342784.185062","343550.855898","344317.814293","345067.651518","345834.22504","355056.311925"
"Blocked","Female","done","24","F_gnash.wav","None","737.249496187","414","354284.437553","346600.929483","347367.635679","348134.263556","348900.986994","349667.891326","350417.693775","351184.396465","355051.120955","355817.83095","356584.629785","342784.185062","343550.855898","344317.814293","345067.651518","345834.22504","355822.956167"
"Blocked","Female","done","24","F_park.wav","None","735.423027647","414","354284.437553","346600.929483","347367.635679","348134.263556","348900.986994","349667.891326","350417.693775","351184.396465","355051.120955","355817.83095","356584.629785","357351.203891","343550.855898","344317.814293","345067.651518","345834.22504","356589.666455"
"Blocked","Female","done","24","F_done.wav","None","733.662311977","414","354284.437553","346600.929483","347367.635679","348134.263556","348900.986994","349667.891326","350417.693775","351184.396465","355051.120955","355817.83095","356584.629785","357351.203891","358117.877357","344317.814293","345067.651518","345834.22504","357356.327062"
"Blocked","Female","done","24","F_jolt.wav","space","557.191844073","414","354284.437553","346600.929483","347367.635679","348134.263556","348900.986994","349667.891326","350417.693775","351184.396465","355051.120955","355817.83095","356584.629785","357351.203891","358117.877357","358884.831953","345067.651518","345834.22504","358123.168563"
"Blocked","Female","done","24","F_greet.wav","None","727.573596454","414","354284.437553","346600.929483","347367.635679","348134.263556","348900.986994","349667.891326","350417.693775","351184.396465","355051.120955","355817.83095","356584.629785","357351.203891","358117.877357","358884.831953","359634.563682","345834.22504","358890.434974"
"Blocked","Female","done","24","F_done.wav","None","743.370357555","414","354284.437553","346600.929483","347367.635679","348134.263556","348900.986994","349667.891326","350417.693775","351184.396465","355051.120955","355817.83095","356584.629785","357351.203891","358117.877357","358884.831953","359634.563682","360401.29238","359639.586908"
"Blocked","Female","done","24","F_gnash.wav","None","741.401570589","414","354284.437553","361167.926979","347367.635679","348134.263556","348900.986994","349667.891326","350417.693775","351184.396465","355051.120955","355817.83095","356584.629785","357351.203891","358117.877357","358884.831953","359634.563682","360401.29238","360406.395095"
"Blocked","Female","done","24","F_lash.wav","space","3.1169781505","414","354284.437553","361167.926979","361934.654508","348134.263556","348900.986994","349667.891326","350417.693775","351184.396465","355051.120955","355817.83095","356584.629785","357351.203891","358117.877357","358884.831953","359634.563682","360401.29238","361173.205911"
"Blocked","Female","done","24","F_done.wav","None","735.827480839","414","354284.437553","361167.926979","361934.654508","362701.324467","348900.986994","349667.891326","350417.693775","351184.396465","355051.120955","355817.83095","356584.629785","357351.203891","358117.877357","358884.831953","359634.563682","360401.29238","361939.916199"
"Blocked","Female","done","24","F_lash.wav","space","525.925917267","414","354284.437553","361167.926979","361934.654508","362701.324467","363468.006408","349667.891326","350417.693775","351184.396465","355051.120955","355817.83095","356584.629785","357351.203891","358117.877357","358884.831953","359634.563682","360401.29238","362706.414616"
"Blocked","Female","done","24","F_done.wav","None","730.784089794","414","354284.437553","361167.926979","361934.654508","362701.324467","363468.006408","364235.077021","350417.693775","351184.396465","355051.120955","355817.83095","356584.629785","357351.203891","358117.877357","358884.831953","359634.563682","360401.29238","363472.960083"
"Blocked","Female","done","24","F_greet.wav","space","543.519631175","414","354284.437553","361167.926979","361934.654508","362701.324467","363468.006408","364235.077021","364984.69244","351184.396465","355051.120955","355817.83095","356584.629785","357351.203891","358117.877357","358884.831953","359634.563682","360401.29238","364240.825868"
"Blocked","Female","done","24","F_dime.wav","None","741.949218915","414","354284.437553","361167.926979","361934.654508","362701.324467","363468.006408","364235.077021","364984.69244","365751.453869","355051.120955","355817.83095","356584.629785","357351.203891","358117.877357","358884.831953","359634.563682","360401.29238","364989.819703"
"Blocked","Female","done","23","F_dime.wav","None","740.004979683","414","368851.484729","361167.926979","361934.654508","362701.324467","363468.006408","364235.077021","364984.69244","365751.453869","355051.120955","355817.83095","356584.629785","357351.203891","358117.877357","358884.831953","359634.563682","360401.29238","365756.541387"
"Blocked","Female","done","23","F_reek.wav","None","740.961172494","414","368851.484729","361167.926979","361934.654508","362701.324467","363468.006408","364235.077021","364984.69244","365751.453869","369618.164624","355817.83095","356584.629785","357351.203891","358117.877357","358884.831953","359634.563682","360401.29238","368856.581015"
"Blocked","Female","done","23","F_done.wav","None","739.25802711","414","368851.484729","361167.926979","361934.654508","362701.324467","363468.006408","364235.077021","364984.69244","365751.453869","369618.164624","370384.84978","356584.629785","357351.203891","358117.877357","358884.831953","359634.563682","360401.29238","369623.239577"
"Blocked","Female","done","23","F_lash.wav","space","546.072888077","414","368851.484729","361167.926979","361934.654508","362701.324467","363468.006408","364235.077021","364984.69244","365751.453869","369618.164624","370384.84978","371151.529967","357351.203891","358117.877357","358884.831953","359634.563682","360401.29238","370390.195634"
"Blocked","Female","done","23","F_romp.wav","None","734.166417293","414","368851.484729","361167.926979","361934.654508","362701.324467","363468.006408","364235.077021","364984.69244","365751.453869","369618.164624","370384.84978","371151.529967","371918.229734","358117.877357","358884.831953","359634.563682","360401.29238","371156.686161"
