"Condition","Talker","Target","Trial","current_stimulus","response_response","response_time_response","subject_nr","time_Audio1","time_Audio10","time_Audio11","time_Audio12","time_Audio13","time_Audio14","time_Audio15","time_Audio16","time_Audio2","time_Audio3","time_Audio4","time_Audio5","time_Audio6","time_Audio7","time_Audio8","time_Audio9","time_response","title"
"Blocked","Female","tile","14","F_knife.wav","NA","NA","426","65567.9326058","NA","NA","NA","NA","NA","NA","NA","NA","NA","NA","NA","NA","NA","NA","NA","NA","Mapping"
"Blocked","Female","tile","14","F_jolt.wav","None","720.332668093","426","65567.9326058","NA","NA","NA","NA","NA","NA","NA","66335.1728092","NA","NA","NA","NA","NA","NA","NA","65578.9448223","Mapping"
"Blocked","Female","tile","14","F_bluff.wav","None","724.776615762","426","65567.9326058","NA","NA","NA","NA","NA","NA","NA","66335.1728092","67085.1173725","NA","NA","NA","NA","NA","NA","66339.2351602","Mapping"
"Blocked","Female","tile","14","F_bluff.wav","None","740.511615861","426","65567.9326058","NA","NA","NA","NA","NA","NA","NA","66335.1728092","67085.1173725","67852.3999421","NA","NA","NA","NA","NA","67088.2723049","Mapping"
"Blocked","Female","tile","14","F_bluff.wav","None","738.028533809","426","65567.9326058","NA","NA","NA","NA","NA","NA","NA","66335.1728092","67085.1173725","67852.3999421","68619.1795253","NA","NA","NA","NA","67855.5080012","Mapping"
"Blocked","Female","tile","14","F_priest.wav","None","736.46188451","426","65567.9326058","NA","NA","NA","NA","NA","NA","NA","66335.1728092","67085.1173725","67852.3999421","68619.1795253","69386.435353","NA","NA","NA","68622.122927","Mapping"
"Blocked","Female","tile","14","F_cling.wav","None","734.629019008","426","65567.9326058","NA","NA","NA","NA","NA","NA","NA","66335.1728092","67085.1173725","67852.3999421","68619.1795253","69386.435353","70153.6388991","NA","NA","69389.3484073","Mapping"
"Blocked","Female","tile","14","F_lash.wav","None","732.189505072","426","65567.9326058","NA","NA","NA","NA","NA","NA","NA","66335.1728092","67085.1173725","67852.3999421","68619.1795253","69386.435353","70153.6388991","70921.6513097","NA","70156.9891368","Mapping"
"Blocked","Female","tile","14","F_tile.wav","None","728.342891276","426","65567.9326058","NA","NA","NA","NA","NA","NA","NA","66335.1728092","67085.1173725","67852.3999421","68619.1795253","69386.435353","70153.6388991","70921.6513097","71688.8404331","70925.5294728","Mapping"
"Blocked","Female","tile","14","F_gnash.wav","space","492.844312798","426","65567.9326058","72455.5785515","NA","NA","NA","NA","NA","NA","66335.1728092","67085.1173725","67852.3999421","68619.1795253","69386.435353","70153.6388991","70921.6513097","71688.8404331","71692.5731689","Mapping"
"Blocked","Female","tile","14","F_tile.wav","None","725.230926029","426","65567.9326058","72455.5785515","73205.8446175","NA","NA","NA","NA","NA","66335.1728092","67085.1173725","67852.3999421","68619.1795253","69386.435353","70153.6388991","70921.6513097","71688.8404331","72459.0691086","Mapping"
"Blocked","Female","tile","14","F_greet.wav","space","476.432955282","426","65567.9326058","72455.5785515","73205.8446175","73972.9712432","NA","NA","NA","NA","66335.1728092","67085.1173725","67852.3999421","68619.1795253","69386.435353","70153.6388991","70921.6513097","71688.8404331","73208.9860288","Mapping"
"Blocked","Female","tile","14","F_tile.wav","None","738.114768629","426","65567.9326058","72455.5785515","73205.8446175","73972.9712432","74740.1537564","NA","NA","NA","66335.1728092","67085.1173725","67852.3999421","68619.1795253","69386.435353","70153.6388991","70921.6513097","71688.8404331","73975.8945135","Mapping"
"Blocked","Female","tile","14","F_dime.wav","space","380.559967453","426","65567.9326058","72455.5785515","73205.8446175","73972.9712432","74740.1537564","75507.5465984","NA","NA","66335.1728092","67085.1173725","67852.3999421","68619.1795253","69386.435353","70153.6388991","70921.6513097","71688.8404331","74742.8934396","Mapping"
"Blocked","Female","tile","14","F_tile.wav","None","734.13684955","426","65567.9326058","72455.5785515","73205.8446175","73972.9712432","74740.1537564","75507.5465984","76274.7471397","NA","66335.1728092","67085.1173725","67852.3999421","68619.1795253","69386.435353","70153.6388991","70921.6513097","71688.8404331","75510.3725164","Mapping"
"Blocked","Female","tile","14","F_jaw.wav","space","289.233988417","426","65567.9326058","72455.5785515","73205.8446175","73972.9712432","74740.1537564","75507.5465984","76274.7471397","77042.2144981","66335.1728092","67085.1173725","67852.3999421","68619.1795253","69386.435353","70153.6388991","70921.6513097","71688.8404331","76278.1845137","Mapping"
"Blocked","Female","cave","11","F_romp.wav","None","729.646028602","426","80195.1572088","72455.5785515","73205.8446175","73972.9712432","74740.1537564","75507.5465984","76274.7471397","77042.2144981","66335.1728092","67085.1173725","67852.3999421","68619.1795253","69386.435353","70153.6388991","70921.6513097","71688.8404331","77044.8556273","Mapping"
"Blocked","Female","cave","11","F_park.wav","None","726.536166643","426","80195.1572088","72455.5785515","73205.8446175","73972.9712432","74740.1537564","75507.5465984","76274.7471397","77042.2144981","80944.809415","67085.1173725","67852.3999421","68619.1795253","69386.435353","70153.6388991","70921.6513097","71688.8404331","80198.7012495","Mapping"
"Blocked","Female","cave","11","F_romp.wav","None","741.9685937","426","80195.1572088","72455.5785515","73205.8446175","73972.9712432","74740.1537564","75507.5465984","76274.7471397","77042.2144981","80944.809415","81711.9381441","67852.3999421","68619.1795253","69386.435353","70153.6388991","70921.6513097","71688.8404331","80948.0995589","Mapping"
"Blocked","Female","cave","11","F_depth.wav","None","739.986394729","426","80195.1572088","72455.5785515","73205.8446175","73972.9712432","74740.1537564","75507.5465984","76274.7471397","77042.2144981","80944.809415","81711.9381441","82479.1783474","68619.1795253","69386.435353","70153.6388991","70921.6513097","71688.8404331","81715.207856","Mapping"
"Blocked","Female","cave","11","F_depth.wav","None","737.728364526","426","80195.1572088","72455.5785515","73205.8446175","73972.9712432","74740.1537564","75507.5465984","76274.7471397","77042.2144981","80944.809415","81711.9381441","82479.1783474","83246.8461192","69386.435353","70153.6388991","70921.6513097","71688.8404331","82482.0956083","Mapping"
"Blocked","Female","cave","11","F_cave.wav","None","734.29669946","426","80195.1572088","72455.5785515","73205.8446175","73972.9712432","74740.1537564","75507.5465984","76274.7471397","77042.2144981","80944.809415","81711.9381441","82479.1783474","83246.8461192","84014.1196747","70153.6388991","70921.6513097","71688.8404331","83250.564132","Mapping"
"Blocked","Female","cave","11","F_jolt.wav","space","433.936616506","426","80195.1572088","72455.5785515","73205.8446175","73972.9712432","74740.1537564","75507.5465984","76274.7471397","77042.2144981","80944.809415","81711.9381441","82479.1783474","83246.8461192","84014.1196747","84781.2583193","70921.6513097","71688.8404331","84017.4849359","Mapping"
"Blocked","Female","cave","11","F_depth.wav","None","730.402911912","426","80195.1572088","72455.5785515","73205.8446175","73972.9712432","74740.1537564","75507.5465984","76274.7471397","77042.2144981","80944.809415","81711.9381441","82479.1783474","83246.8461192","84014.1196747","84781.2583193","85548.4167948","71688.8404331","84784.0304532","Mapping"
"Blocked","Female","cave","11","F_depth.wav","None","728.748525445","426","80195.1572088","72455.5785515","73205.8446175","73972.9712432","74740.1537564","75507.5465984","76274.7471397","77042.2144981","80944.809415","81711.9381441","82479.1783474","83246.8461192","84014.1196747","84781.2583193","85548.4167948","86315.6419747","85551.3460745","Mapping"
"Blocked","Female","cave","11","F_cave.wav","None","726.859472099","426","80195.1572088","87065.9407918","73205.8446175","73972.9712432","74740.1537564","75507.5465984","76274.7471397","77042.2144981","80944.809415","81711.9381441","82479.1783474","83246.8461192","84014.1196747","84781.2583193","85548.4167948","86315.6419747","86318.3615264","Mapping"
"Blocked","Female","cave","11","F_cling.wav","space","363.633905248","426","80195.1572088","87065.9407918","87833.5139157","73972.9712432","74740.1537564","75507.5465984","76274.7471397","77042.2144981","80944.809415","81711.9381441","82479.1783474","83246.8461192","84014.1196747","84781.2583193","85548.4167948","86315.6419747","87068.8060714","Mapping"
"Blocked","Female","cave","11","F_depth.wav","None","738.393905031","426","80195.1572088","87065.9407918","87833.5139157","88600.7721472","74740.1537564","75507.5465984","76274.7471397","77042.2144981","80944.809415","81711.9381441","82479.1783474","83246.8461192","84014.1196747","84781.2583193","85548.4167948","86315.6419747","87836.6234771","Mapping"
"Blocked","Female","cave","11","F_cave.wav","None","737.360289077","426","80195.1572088","87065.9407918","87833.5139157","88600.7721472","89367.5637492","75507.5465984","76274.7471397","77042.2144981","80944.809415","81711.9381441","82479.1783474","83246.8461192","84014.1196747","84781.2583193","85548.4167948","86315.6419747","88603.7026287","Mapping"
"Blocked","Female","cave","11","F_priest.wav","space","447.795783929","426","80195.1572088","87065.9407918","87833.5139157","88600.7721472","89367.5637492","90134.7597834","76274.7471397","77042.2144981","80944.809415","81711.9381441","82479.1783474","83246.8461192","84014.1196747","84781.2583193","85548.4167948","86315.6419747","89370.6261369","Mapping"
"Blocked","Female","cave","11","F_cave.wav","None","733.664511096","426","80195.1572088","87065.9407918","87833.5139157","88600.7721472","89367.5637492","90134.7597834","90901.9927755","77042.2144981","80944.809415","81711.9381441","82479.1783474","83246.8461192","84014.1196747","84781.2583193","85548.4167948","86315.6419747","90137.6262649","Mapping"
"Blocked","Female","cave","11","F_gnash.wav","space","577.548238916","426","80195.1572088","87065.9407918","87833.5139157","88600.7721472","89367.5637492","90134.7597834","90901.9927755","91669.424979","80944.809415","81711.9381441","82479.1783474","83246.8461192","84014.1196747","84781.2583193","85548.4167948","86315.6419747","90904.9220551","Mapping"
"Blocked","Female","done","21","F_knife.wav","None","729.221765308","426","94789.0636221","87065.9407918","87833.5139157","88600.7721472","89367.5637492","90134.7597834","90901.9927755","91669.424979","80944.809415","81711.9381441","82479.1783474","83246.8461192","84014.1196747","84781.2583193","85548.4167948","86315.6419747","91672.3545591","Mapping"
"Blocked","Female","done","21","F_jolt.wav","None","726.978458121","426","94789.0636221","87065.9407918","87833.5139157","88600.7721472","89367.5637492","90134.7597834","90901.9927755","91669.424979","95538.6307954","81711.9381441","82479.1783474","83246.8461192","84014.1196747","84781.2583193","85548.4167948","86315.6419747","94792.6866864","Mapping"
"Blocked","Female","done","21","F_done.wav","None","743.107073599","426","94789.0636221","87065.9407918","87833.5139157","88600.7721472","89367.5637492","90134.7597834","90901.9927755","91669.424979","95538.6307954","96305.9019471","82479.1783474","83246.8461192","84014.1196747","84781.2583193","85548.4167948","86315.6419747","95541.2992673","Mapping"
"Blocked","Female","done","21","F_knife.wav","space","491.786659263","426","94789.0636221","87065.9407918","87833.5139157","88600.7721472","89367.5637492","90134.7597834","90901.9927755","91669.424979","95538.6307954","96305.9019471","97073.1691927","83246.8461192","84014.1196747","84781.2583193","85548.4167948","86315.6419747","96308.6915083","Mapping"
"Blocked","Female","done","21","F_greet.wav","None","738.401116305","426","94789.0636221","87065.9407918","87833.5139157","88600.7721472","89367.5637492","90134.7597834","90901.9927755","91669.424979","95538.6307954","96305.9019471","97073.1691927","97840.2958185","84014.1196747","84781.2583193","85548.4167948","86315.6419747","97076.0963691","Mapping"
"Blocked","Female","done","21","F_dime.wav","None","736.470898602","426","94789.0636221","87065.9407918","87833.5139157","88600.7721472","89367.5637492","90134.7597834","90901.9927755","91669.424979","95538.6307954","96305.9019471","97073.1691927","97840.2958185","98607.5414303","84781.2583193","85548.4167948","86315.6419747","97843.1241403","Mapping"
"Blocked","Female","done","21","F_done.wav","space","353.502365598","426","94789.0636221","87065.9407918","87833.5139157","88600.7721472","89367.5637492","90134.7597834","90901.9927755","91669.424979","95538.6307954","96305.9019471","97073.1691927","97840.2958185","98607.5414303","99374.9886573","85548.4167948","86315.6419747","98610.9508606","Mapping"
"Blocked","Female","done","21","F_gnash.wav","space","546.29668023","426","94789.0636221","87065.9407918","87833.5139157","88600.7721472","89367.5637492","90134.7597834","90901.9927755","91669.424979","95538.6307954","96305.9019471","97073.1691927","97840.2958185","98607.5414303","99374.9886573","100143.042533","86315.6419747","99378.1577118","Mapping"
"Blocked","Female","done","21","F_bluff.wav","None","728.248844243","426","94789.0636221","87065.9407918","87833.5139157","88600.7721472","89367.5637492","90134.7597834","90901.9927755","91669.424979","95538.6307954","96305.9019471","97073.1691927","97840.2958185","98607.5414303","99374.9886573","100143.042533","100909.615393","100146.531587","Mapping"
"Blocked","Female","done","21","F_cling.wav","None","727.269312843","426","94789.0636221","101676.731803","87833.5139157","88600.7721472","89367.5637492","90134.7597834","90901.9927755","91669.424979","95538.6307954","96305.9019471","97073.1691927","97840.2958185","98607.5414303","99374.9886573","100143.042533","100909.615393","100912.699715","Mapping"
"Blocked","Female","done","21","F_gnash.wav","None","726.350776804","426","94789.0636221","101676.731803","102427.049549","88600.7721472","89367.5637492","90134.7597834","90901.9927755","91669.424979","95538.6307954","96305.9019471","97073.1691927","97840.2958185","98607.5414303","99374.9886573","100143.042533","100909.615393","101679.548406","Mapping"
"Blocked","Female","done","21","F_done.wav","None","741.004686727","426","94789.0636221","101676.731803","102427.049549","103194.214635","89367.5637492","90134.7597834","90901.9927755","91669.424979","95538.6307954","96305.9019471","97073.1691927","97840.2958185","98607.5414303","99374.9886573","100143.042533","100909.615393","102430.096313","Mapping"
"Blocked","Female","done","21","F_greet.wav","space","557.935977106","426","94789.0636221","101676.731803","102427.049549","103194.214635","103961.4299","90134.7597834","90901.9927755","91669.424979","95538.6307954","96305.9019471","97073.1691927","97840.2958185","98607.5414303","99374.9886573","100143.042533","100909.615393","103197.602131","Mapping"
"Blocked","Female","done","21","F_cad.wav","None","736.585678049","426","94789.0636221","101676.731803","102427.049549","103194.214635","103961.4299","104728.683023","90901.9927755","91669.424979","95538.6307954","96305.9019471","97073.1691927","97840.2958185","98607.5414303","99374.9886573","100143.042533","100909.615393","103964.71764","Mapping"
"Blocked","Female","done","21","F_done.wav","None","734.396455418","426","94789.0636221","101676.731803","102427.049549","103194.214635","103961.4299","104728.683023","105495.816259","91669.424979","95538.6307954","96305.9019471","97073.1691927","97840.2958185","98607.5414303","99374.9886573","100143.042533","100909.615393","104731.837355","Mapping"
"Blocked","Female","done","21","F_cad.wav","space","372.461105692","426","94789.0636221","101676.731803","102427.049549","103194.214635","103961.4299","104728.683023","105495.816259","106263.912801","95538.6307954","96305.9019471","97073.1691927","97840.2958185","98607.5414303","99374.9886573","100143.042533","100909.615393","105498.975098","Mapping"
"Blocked","Female","ball","5","F_cling.wav","None","728.297820813","426","109382.679782","101676.731803","102427.049549","103194.214635","103961.4299","104728.683023","105495.816259","106263.912801","95538.6307954","96305.9019471","97073.1691927","97840.2958185","98607.5414303","99374.9886573","100143.042533","100909.615393","106268.121782","Mapping"
"Blocked","Female","ball","5","F_park.wav","None","727.167453597","426","109382.679782","101676.731803","102427.049549","103194.214635","103961.4299","104728.683023","105495.816259","106263.912801","110149.576248","96305.9019471","97073.1691927","97840.2958185","98607.5414303","99374.9886573","100143.042533","100909.615393","109386.565456","Mapping"
"Blocked","Female","ball","5","F_ball.wav","None","726.912354776","426","109382.679782","101676.731803","102427.049549","103194.214635","103961.4299","104728.683023","105495.816259","106263.912801","110149.576248","110899.800849","97073.1691927","97840.2958185","98607.5414303","99374.9886573","100143.042533","100909.615393","110152.367011","Mapping"
"Blocked","Female","ball","5","F_jolt.wav","None","741.286827827","426","109382.679782","101676.731803","102427.049549","103194.214635","103961.4299","104728.683023","105495.816259","106263.912801","110149.576248","110899.800849","111667.055775","97840.2958185","98607.5414303","99374.9886573","100143.042533","100909.615393","110902.761978","Mapping"
"Blocked","Female","ball","5","F_greet.wav","space","22.6379922369","426","109382.679782","101676.731803","102427.049549","103194.214635","103961.4299","104728.683023","105495.816259","106263.912801","110149.576248","110899.800849","111667.055775","112434.269237","98607.5414303","99374.9886573","100143.042533","100909.615393","111669.843533","Mapping"
"Blocked","Female","ball","5","F_greet.wav","None","737.06222308","426","109382.679782","101676.731803","102427.049549","103194.214635","103961.4299","104728.683023","105495.816259","106263.912801","110149.576248","110899.800849","111667.055775","112434.269237","113201.430717","99374.9886573","100143.042533","100909.615393","112437.132413","Mapping"
"Blocked","Female","ball","5","F_cling.wav","None","735.007009959","426","109382.679782","101676.731803","102427.049549","103194.214635","103961.4299","104728.683023","105495.816259","106263.912801","110149.576248","110899.800849","111667.055775","112434.269237","113201.430717","113968.592798","100143.042533","100909.615393","113204.341968","Mapping"
"Blocked","Female","ball","5","F_cling.wav","None","732.904022148","426","109382.679782","101676.731803","102427.049549","103194.214635","103961.4299","104728.683023","105495.816259","106263.912801","110149.576248","110899.800849","111667.055775","112434.269237","113201.430717","113968.592798","114736.135574","100909.615393","113971.658491","Mapping"
"Blocked","Female","ball","5","F_dime.wav","None","730.395700639","426","109382.679782","101676.731803","102427.049549","103194.214635","103961.4299","104728.683023","105495.816259","106263.912801","110149.576248","110899.800849","111667.055775","112434.269237","113201.430717","113968.592798","114736.135574","115503.532923","114739.300422","Mapping"
"Blocked","Female","ball","5","F_jaw.wav","None","729.03517359","426","109382.679782","116270.521033","102427.049549","103194.214635","103961.4299","104728.683023","105495.816259","106263.912801","110149.576248","110899.800849","111667.055775","112434.269237","113201.430717","113968.592798","114736.135574","115503.532923","115506.378672","Mapping"
"Blocked","Female","ball","5","F_ball.wav","None","727.499773146","426","109382.679782","116270.521033","117020.815042","103194.214635","103961.4299","104728.683023","105495.816259","106263.912801","110149.576248","110899.800849","111667.055775","112434.269237","113201.430717","113968.592798","114736.135574","115503.532923","116273.453317","Mapping"
"Blocked","Female","ball","5","F_romp.wav","space","488.782863128","426","109382.679782","116270.521033","117020.815042","117788.088598","103961.4299","104728.683023","105495.816259","106263.912801","110149.576248","110899.800849","111667.055775","112434.269237","113201.430717","113968.592798","114736.135574","115503.532923","117023.690237","Mapping"
"Blocked","Female","ball","5","F_ball.wav","None","740.650733356","426","109382.679782","116270.521033","117020.815042","117788.088598","118555.294547","104728.683023","105495.816259","106263.912801","110149.576248","110899.800849","111667.055775","112434.269237","113201.430717","113968.592798","114736.135574","115503.532923","117791.059042","Mapping"
"Blocked","Female","ball","5","F_dime.wav","space","606.292077034","426","109382.679782","116270.521033","117020.815042","117788.088598","118555.294547","119322.893812","105495.816259","106263.912801","110149.576248","110899.800849","111667.055775","112434.269237","113201.430717","113968.592798","114736.135574","115503.532923","118558.157724","Mapping"
"Blocked","Female","ball","5","F_ball.wav","None","735.918635194","426","109382.679782","116270.521033","117020.815042","117788.088598","118555.294547","119322.893812","120090.081433","106263.912801","110149.576248","110899.800849","111667.055775","112434.269237","113201.430717","113968.592798","114736.135574","115503.532923","119326.359731","Mapping"
"Blocked","Female","ball","5","F_jaw.wav","space","383.308063827","426","109382.679782","116270.521033","117020.815042","117788.088598","118555.294547","119322.893812","120090.081433","120857.001035","110149.576248","110899.800849","111667.055775","112434.269237","113201.430717","113968.592798","114736.135574","115503.532923","120093.162751","Mapping"
"Blocked","Female","tile","18","F_jolt.wav","None","733.240548273","426","123993.586173","116270.521033","117020.815042","117788.088598","118555.294547","119322.893812","120090.081433","120857.001035","110149.576248","110899.800849","111667.055775","112434.269237","113201.430717","113968.592798","114736.135574","115503.532923","120859.742822","Mapping"
"Blocked","Female","tile","18","F_cling.wav","None","727.131397226","426","123993.586173","116270.521033","117020.815042","117788.088598","118555.294547","119322.893812","120090.081433","120857.001035","124760.072798","110899.800849","111667.055775","112434.269237","113201.430717","113968.592798","114736.135574","115503.532923","123997.359472","Mapping"
"Blocked","Female","tile","18","F_tile.wav","None","727.195397284","426","123993.586173","116270.521033","117020.815042","117788.088598","118555.294547","119322.893812","120090.081433","120857.001035","124760.072798","125510.353887","111667.055775","112434.269237","113201.430717","113968.592798","114736.135574","115503.532923","124762.998472","Mapping"
"Blocked","Female","tile","18","F_lash.wav","space","394.248768525","426","123993.586173","116270.521033","117020.815042","117788.088598","118555.294547","119322.893812","120090.081433","120857.001035","124760.072798","125510.353887","126277.60641","112434.269237","113201.430717","113968.592798","114736.135574","115503.532923","125513.220369","Mapping"
"Blocked","Female","tile","18","F_lash.wav","None","739.523070368","426","123993.586173","116270.521033","117020.815042","117788.088598","118555.294547","119322.893812","120090.081433","120857.001035","124760.072798","125510.353887","126277.60641","127044.76789","113201.430717","113968.592798","114736.135574","115503.532923","126280.684422","Mapping"
"Blocked","Female","tile","18","F_depth.wav","None","737.560101463","426","123993.586173","116270.521033","117020.815042","117788.088598","118555.294547","119322.893812","120090.081433","120857.001035","124760.072798","125510.353887","126277.60641","127044.76789","127812.055868","113968.592798","114736.135574","115503.532923","127047.956776","Mapping"
"Blocked","Female","tile","18","F_tile.wav","None","736.317959499","426","123993.586173","116270.521033","117020.815042","117788.088598","118555.294547","119322.893812","120090.081433","120857.001035","124760.072798","125510.353887","126277.60641","127044.76789","127812.055868","128579.247996","114736.135574","115503.532923","127814.681072","Mapping"
"Blocked","Female","tile","18","F_cad.wav","space","501.488527164","426","123993.586173","116270.521033","117020.815042","117788.088598","118555.294547","119322.893812","120090.081433","120857.001035","124760.072798","125510.353887","126277.60641","127044.76789","127812.055868","128579.247996","129346.675693","115503.532923","128581.97506","Mapping"
"Blocked","Female","tile","18","F_tile.wav","None","730.951569684","426","123993.586173","116270.521033","117020.815042","117788.088598","118555.294547","119322.893812","120090.081433","120857.001035","124760.072798","125510.353887","126277.60641","127044.76789","127812.055868","128579.247996","129346.675693","130114.602169","129350.690269","Mapping"
"Blocked","Female","tile","18","F_lash.wav","space","373.315341204","426","123993.586173","130881.795199","117020.815042","117788.088598","118555.294547","119322.893812","120090.081433","120857.001035","124760.072798","125510.353887","126277.60641","127044.76789","127812.055868","128579.247996","129346.675693","130114.602169","130119.117028","Mapping"
"Blocked","Female","tile","18","F_cad.wav","None","726.951115374","426","123993.586173","130881.795199","131648.526406","117788.088598","118555.294547","119322.893812","120090.081433","120857.001035","124760.072798","125510.353887","126277.60641","127044.76789","127812.055868","128579.247996","129346.675693","130114.602169","130885.237981","Mapping"
"Blocked","Female","tile","18","F_greet.wav","None","725.914494721","426","123993.586173","130881.795199","131648.526406","132399.133205","118555.294547","119322.893812","120090.081433","120857.001035","124760.072798","125510.353887","126277.60641","127044.76789","127812.055868","128579.247996","129346.675693","130114.602169","131651.977602","Mapping"
"Blocked","Female","tile","18","F_romp.wav","None","741.949964575","426","123993.586173","130881.795199","131648.526406","132399.133205","133166.113201","119322.893812","120090.081433","120857.001035","124760.072798","125510.353887","126277.60641","127044.76789","127812.055868","128579.247996","129346.675693","130114.602169","132402.071499","Mapping"
"Blocked","Female","tile","18","F_tile.wav","None","740.248704825","426","123993.586173","130881.795199","131648.526406","132399.133205","133166.113201","133933.493123","120090.081433","120857.001035","124760.072798","125510.353887","126277.60641","127044.76789","127812.055868","128579.247996","129346.675693","130114.602169","133169.180697","Mapping"
"Blocked","Female","tile","18","F_greet.wav","space","369.104858536","426","123993.586173","130881.795199","131648.526406","132399.133205","133166.113201","133933.493123","134700.318678","120857.001035","124760.072798","125510.353887","126277.60641","127044.76789","127812.055868","128579.247996","129346.675693","130114.602169","133936.339774","Mapping"
"Blocked","Female","tile","18","F_gnash.wav","None","736.614523145","426","123993.586173","130881.795199","131648.526406","132399.133205","133166.113201","133933.493123","134700.318678","135467.616572","124760.072798","125510.353887","126277.60641","127044.76789","127812.055868","128579.247996","129346.675693","130114.602169","134703.187263","Mapping"
"Blocked","Female","cave","12","F_priest.wav","None","734.862784478","426","138604.216131","130881.795199","131648.526406","132399.133205","133166.113201","133933.493123","134700.318678","135467.616572","124760.072798","125510.353887","126277.60641","127044.76789","127812.055868","128579.247996","129346.675693","130114.602169","135470.594828","Mapping"
"Blocked","Female","cave","12","F_cave.wav","None","727.461313017","426","138604.216131","130881.795199","131648.526406","132399.133205","133166.113201","133933.493123","134700.318678","135467.616572","139370.701254","125510.353887","126277.60641","127044.76789","127812.055868","128579.247996","129346.675693","130114.602169","138607.823872","Mapping"
"Blocked","Female","cave","12","F_lash.wav","None","727.330308204","426","138604.216131","130881.795199","131648.526406","132399.133205","133166.113201","133933.493123","134700.318678","135467.616572","139370.701254","140137.945664","126277.60641","127044.76789","127812.055868","128579.247996","129346.675693","130114.602169","139373.669295","Mapping"
"Blocked","Female","cave","12","F_cave.wav","space","0.0312488546188","426","138604.216131","130881.795199","131648.526406","132399.133205","133166.113201","133933.493123","134700.318678","135467.616572","139370.701254","140137.945664","140888.178078","127044.76789","127812.055868","128579.247996","129346.675693","130114.602169","140140.941648","Mapping"
"Blocked","Female","cave","12","F_cling.wav","None","740.306995957","426","138604.216131","130881.795199","131648.526406","132399.133205","133166.113201","133933.493123","134700.318678","135467.616572","139370.701254","140137.945664","140888.178078","141655.343764","127812.055868","128579.247996","129346.675693","130114.602169","140891.369968","Mapping"
"Blocked","Female","cave","12","F_lash.wav","None","738.752966387","426","138604.216131","130881.795199","131648.526406","132399.133205","133166.113201","133933.493123","134700.318678","135467.616572","139370.701254","140137.945664","140888.178078","141655.343764","142422.625433","128579.247996","129346.675693","130114.602169","141658.432594","Mapping"
"Blocked","Female","cave","12","F_depth.wav","None","737.213058896","426","138604.216131","130881.795199","131648.526406","132399.133205","133166.113201","133933.493123","134700.318678","135467.616572","139370.701254","140137.945664","140888.178078","141655.343764","142422.625433","143189.804941","129346.675693","130114.602169","142425.423707","Mapping"
"Blocked","Female","cave","12","F_jolt.wav","None","735.625977653","426","138604.216131","130881.795199","131648.526406","132399.133205","133166.113201","133933.493123","134700.318678","135467.616572","139370.701254","140137.945664","140888.178078","141655.343764","142422.625433","143189.804941","143957.430647","130114.602169","143192.491441","Mapping"
"Blocked","Female","cave","12","F_reek.wav","None","732.933768654","426","138604.216131","130881.795199","131648.526406","132399.133205","133166.113201","133933.493123","134700.318678","135467.616572","139370.701254","140137.945664","140888.178078","141655.343764","142422.625433","143189.804941","143957.430647","144724.736353","143960.55403","Mapping"
"Blocked","Female","cave","12","F_cave.wav","None","730.611437922","426","138604.216131","145492.583505","131648.526406","132399.133205","133166.113201","133933.493123","134700.318678","135467.616572","139370.701254","140137.945664","140888.178078","141655.343764","142422.625433","143189.804941","143957.430647","144724.736353","144728.390065","Mapping"
"Blocked","Female","cave","12","F_cling.wav","None","728.310741013","426","138604.216131","145492.583505","146259.618488","132399.133205","133166.113201","133933.493123","134700.318678","135467.616572","139370.701254","140137.945664","140888.178078","141655.343764","142422.625433","143189.804941","143957.430647","144724.736353","145496.068053","Mapping"
"Blocked","Female","cave","12","F_park.wav","space","408.424631069","426","138604.216131","145492.583505","146259.618488","147026.622822","133166.113201","133933.493123","134700.318678","135467.616572","139370.701254","140137.945664","140888.178078","141655.343764","142422.625433","143189.804941","143957.430647","144724.736353","146263.055862","Mapping"
"Blocked","Female","cave","12","F_bluff.wav","None","724.932559564","426","138604.216131","145492.583505","146259.618488","147026.622822","147776.425564","133933.493123","134700.318678","135467.616572","139370.701254","140137.945664","140888.178078","141655.343764","142422.625433","143189.804941","143957.430647","144724.736353","147030.16506","Mapping"
"Blocked","Female","cave","12","F_cave.wav","None","741.232442801","426","138604.216131","145492.583505","146259.618488","147026.622822","147776.425564","148543.717448","134700.318678","135467.616572","139370.701254","140137.945664","140888.178078","141655.343764","142422.625433","143189.804941","143957.430647","144724.736353","147779.16104","Mapping"
"Blocked","Female","cave","12","F_depth.wav","space","349.902437471","426","138604.216131","145492.583505","146259.618488","147026.622822","147776.425564","148543.717448","149310.991304","135467.616572","139370.701254","140137.945664","140888.178078","141655.343764","142422.625433","143189.804941","143957.430647","144724.736353","148546.622389","Mapping"
"Blocked","Female","cave","12","F_knife.wav","None","737.209753729","426","138604.216131","145492.583505","146259.618488","147026.622822","147776.425564","148543.717448","149310.991304","150078.174418","139370.701254","140137.945664","140888.178078","141655.343764","142422.625433","143189.804941","143957.430647","144724.736353","149313.766442","Mapping"
"Blocked","Female","ball","6","F_dime.wav","None","735.710710124","426","153214.868626","145492.583505","146259.618488","147026.622822","147776.425564","148543.717448","149310.991304","150078.174418","139370.701254","140137.945664","140888.178078","141655.343764","142422.625433","143189.804941","143957.430647","144724.736353","150081.06674","Mapping"
"Blocked","Female","ball","6","F_ball.wav","None","726.930082491","426","153214.868626","145492.583505","146259.618488","147026.622822","147776.425564","148543.717448","149310.991304","150078.174418","153981.862444","140137.945664","140888.178078","141655.343764","142422.625433","143189.804941","143957.430647","144724.736353","153218.412967","Mapping"
"Blocked","Female","ball","6","F_lash.wav","None","725.535602361","426","153214.868626","145492.583505","146259.618488","147026.622822","147776.425564","148543.717448","149310.991304","150078.174418","153981.862444","154731.979777","140888.178078","141655.343764","142422.625433","143189.804941","143957.430647","144724.736353","153985.401076","Mapping"
"Blocked","Female","ball","6","F_ball.wav","space","148.522800547","426","153214.868626","145492.583505","146259.618488","147026.622822","147776.425564","148543.717448","149310.991304","150078.174418","153981.862444","154731.979777","155499.057126","141655.343764","142422.625433","143189.804941","143957.430647","144724.736353","154734.982672","Mapping"
"Blocked","Female","ball","6","F_romp.wav","space","571.937567192","426","153214.868626","145492.583505","146259.618488","147026.622822","147776.425564","148543.717448","149310.991304","150078.174418","153981.862444","154731.979777","155499.057126","156265.980634","142422.625433","143189.804941","143957.430647","144724.736353","155502.553392","Mapping"
"Blocked","Female","ball","6","F_jolt.wav","None","736.667706292","426","153214.868626","145492.583505","146259.618488","147026.622822","147776.425564","148543.717448","149310.991304","150078.174418","153981.862444","154731.979777","155499.057126","156265.980634","157033.268312","143189.804941","143957.430647","144724.736353","156268.825181","Mapping"
"Blocked","Female","ball","6","F_gnash.wav","None","734.937901916","426","153214.868626","145492.583505","146259.618488","147026.622822","147776.425564","148543.717448","149310.991304","150078.174418","153981.862444","154731.979777","155499.057126","156265.980634","157033.268312","157800.495895","143957.430647","144724.736353","157036.059075","Mapping"
"Blocked","Female","ball","6","F_greet.wav","None","732.97553395","426","153214.868626","145492.583505","146259.618488","147026.622822","147776.425564","148543.717448","149310.991304","150078.174418","153981.862444","154731.979777","155499.057126","156265.980634","157033.268312","157800.495895","158567.616812","144724.736353","157803.23648","Mapping"
"Blocked","Female","ball","6","F_cling.wav","None","731.219288235","426","153214.868626","145492.583505","146259.618488","147026.622822","147776.425564","148543.717448","149310.991304","150078.174418","153981.862444","154731.979777","155499.057126","156265.980634","157033.268312","157800.495895","158567.616812","159335.56372","158570.716158","Mapping"
"Blocked","Female","ball","6","F_priest.wav","None","729.02375574","426","153214.868626","160102.485426","146259.618488","147026.622822","147776.425564","148543.717448","149310.991304","150078.174418","153981.862444","154731.979777","155499.057126","156265.980634","157033.268312","157800.495895","158567.616812","159335.56372","159339.261602","Mapping"
"Blocked","Female","ball","6","F_greet.wav","None","728.284299674","426","153214.868626","160102.485426","160870.171226","147026.622822","147776.425564","148543.717448","149310.991304","150078.174418","153981.862444","154731.979777","155499.057126","156265.980634","157033.268312","157800.495895","158567.616812","159335.56372","160105.252151","Mapping"
"Blocked","Female","ball","6","F_ball.wav","None","725.607414632","426","153214.868626","160102.485426","160870.171226","161619.837554","147776.425564","148543.717448","149310.991304","150078.174418","153981.862444","154731.979777","155499.057126","156265.980634","157033.268312","157800.495895","158567.616812","159335.56372","160873.759736","Mapping"
"Blocked","Female","ball","6","F_jolt.wav","space","332.7981967","426","153214.868626","160102.485426","160870.171226","161619.837554","162387.120725","148543.717448","149310.991304","150078.174418","153981.862444","154731.979777","155499.057126","156265.980634","157033.268312","157800.495895","158567.616812","159335.56372","161622.772543","Mapping"
"Blocked","Female","ball","6","F_ball.wav","None","739.752328791","426","153214.868626","160102.485426","160870.171226","161619.837554","162387.120725","163154.29813","149310.991304","150078.174418","153981.862444","154731.979777","155499.057126","156265.980634","157033.268312","157800.495895","158567.616812","159335.56372","162389.931319","Mapping"
"Blocked","Female","ball","6","F_dime.wav","space","401.180906229","426","153214.868626","160102.485426","160870.171226","161619.837554","162387.120725","163154.29813","163921.480943","150078.174418","153981.862444","154731.979777","155499.057126","156265.980634","157033.268312","157800.495895","158567.616812","159335.56372","163157.294414","Mapping"
"Blocked","Female","ball","6","F_jolt.wav","None","736.565546576","426","153214.868626","160102.485426","160870.171226","161619.837554","162387.120725","163154.29813","163921.480943","164689.194687","153981.862444","154731.979777","155499.057126","156265.980634","157033.268312","157800.495895","158567.616812","159335.56372","163924.289434","Mapping"
"Blocked","Female","tile","13","F_jaw.wav","None","734.022971514","426","167825.290058","160102.485426","160870.171226","161619.837554","162387.120725","163154.29813","163921.480943","164689.194687","153981.862444","154731.979777","155499.057126","156265.980634","157033.268312","157800.495895","158567.616812","159335.56372","164692.514577","Mapping"
"Blocked","Female","tile","13","F_priest.wav","None","726.629612736","426","167825.290058","160102.485426","160870.171226","161619.837554","162387.120725","163154.29813","163921.480943","164689.194687","168591.865322","154731.979777","155499.057126","156265.980634","157033.268312","157800.495895","158567.616812","159335.56372","167828.865048","Mapping"
"Blocked","Female","tile","13","F_reek.wav","None","726.216466824","426","167825.290058","160102.485426","160870.171226","161619.837554","162387.120725","163154.29813","163921.480943","164689.194687","168591.865322","169342.101341","155499.057126","156265.980634","157033.268312","157800.495895","158567.616812","159335.56372","168594.922602","Mapping"
"Blocked","Female","tile","13","F_lash.wav","None","741.937044375","426","167825.290058","160102.485426","160870.171226","161619.837554","162387.120725","163154.29813","163921.480943","164689.194687","168591.865322","169342.101341","170109.267028","156265.980634","157033.268312","157800.495895","158567.616812","159335.56372","169344.720536","Mapping"
"Blocked","Female","tile","13","F_tile.wav","None","739.570845059","426","167825.290058","160102.485426","160870.171226","161619.837554","162387.120725","163154.29813","163921.480943","164689.194687","168591.865322","169342.101341","170109.267028","170876.944715","157033.268312","157800.495895","158567.616812","159335.56372","170112.729942","Mapping"
"Blocked","Female","tile","13","F_park.wav","space","377.083532395","426","167825.290058","160102.485426","160870.171226","161619.837554","162387.120725","163154.29813","163921.480943","164689.194687","168591.865322","169342.101341","170109.267028","170876.944715","171643.970383","157800.495895","158567.616812","159335.56372","170880.413939","Mapping"
"Blocked","Female","tile","13","F_dime.wav","None","735.023235326","426","167825.290058","160102.485426","160870.171226","161619.837554","162387.120725","163154.29813","163921.480943","164689.194687","168591.865322","169342.101341","170109.267028","170876.944715","171643.970383","172411.44315","158567.616812","159335.56372","171647.122912","Mapping"
"Blocked","Female","tile","13","F_tile.wav","None","733.568360775","426","167825.290058","160102.485426","160870.171226","161619.837554","162387.120725","163154.29813","163921.480943","164689.194687","168591.865322","169342.101341","170109.267028","170876.944715","171643.970383","172411.44315","173178.317381","159335.56372","172414.526571","Mapping"
"Blocked","Female","tile","13","F_cad.wav","space","377.318499742","426","167825.290058","160102.485426","160870.171226","161619.837554","162387.120725","163154.29813","163921.480943","164689.194687","168591.865322","169342.101341","170109.267028","170876.944715","171643.970383","172411.44315","173178.317381","173946.303651","173181.18206","Mapping"
"Blocked","Female","tile","13","F_tile.wav","None","728.821840064","426","167825.290058","174713.56008","160870.171226","161619.837554","162387.120725","163154.29813","163921.480943","164689.194687","168591.865322","169342.101341","170109.267028","170876.944715","171643.970383","172411.44315","173178.317381","173946.303651","173949.779786","Mapping"
"Blocked","Female","tile","13","F_romp.wav","space","442.762014133","426","167825.290058","174713.56008","175463.19546","161619.837554","162387.120725","163154.29813","163921.480943","164689.194687","168591.865322","169342.101341","170109.267028","170876.944715","171643.970383","172411.44315","173178.317381","173946.303651","174716.80966","Mapping"
"Blocked","Female","tile","13","F_tile.wav","None","742.745908954","426","167825.290058","174713.56008","175463.19546","176230.306762","162387.120725","163154.29813","163921.480943","164689.194687","168591.865322","169342.101341","170109.267028","170876.944715","171643.970383","172411.44315","173178.317381","173946.303651","175466.087782","Mapping"
"Blocked","Female","tile","13","F_jaw.wav","space","537.330963228","426","167825.290058","174713.56008","175463.19546","176230.306762","176997.643716","163154.29813","163921.480943","164689.194687","168591.865322","169342.101341","170109.267028","170876.944715","171643.970383","172411.44315","173178.317381","173946.303651","176233.172943","Mapping"
"Blocked","Female","tile","13","F_gnash.wav","None","739.148685055","426","167825.290058","174713.56008","175463.19546","176230.306762","176997.643716","177764.842455","163921.480943","164689.194687","168591.865322","169342.101341","170109.267028","170876.944715","171643.970383","172411.44315","173178.317381","173946.303651","177000.536038","Mapping"
"Blocked","Female","tile","13","F_depth.wav","None","737.774937337","426","167825.290058","174713.56008","175463.19546","176230.306762","176997.643716","177764.842455","178532.058921","164689.194687","168591.865322","169342.101341","170109.267028","170876.944715","171643.970383","172411.44315","173178.317381","173946.303651","177767.524448","Mapping"
"Blocked","Female","tile","13","F_lash.wav","None","736.293320978","426","167825.290058","174713.56008","175463.19546","176230.306762","176997.643716","177764.842455","178532.058921","179299.679519","168591.865322","169342.101341","170109.267028","170876.944715","171643.970383","172411.44315","173178.317381","173946.303651","178534.721984","Mapping"
"Blocked","Female","ball","4","F_cad.wav","None","733.674426599","426","182435.899585","174713.56008","175463.19546","176230.306762","176997.643716","177764.842455","178532.058921","179299.679519","168591.865322","169342.101341","170109.267028","170876.944715","171643.970383","172411.44315","173178.317381","173946.303651","179302.656273","Mapping"
"Blocked","Female","ball","4","F_greet.wav","None","727.717012777","426","182435.899585","174713.56008","175463.19546","176230.306762","176997.643716","177764.842455","178532.058921","179299.679519","183202.305985","169342.101341","170109.267028","170876.944715","171643.970383","172411.44315","173178.317381","173946.303651","182439.422593","Mapping"
"Blocked","Female","ball","4","F_jolt.wav","None","726.923171687","426","182435.899585","174713.56008","175463.19546","176230.306762","176997.643716","177764.842455","178532.058921","179299.679519","183202.305985","183969.688912","170109.267028","170876.944715","171643.970383","172411.44315","173178.317381","173946.303651","183205.863848","Mapping"
"Blocked","Female","ball","4","F_ball.wav","None","726.277161714","426","182435.899585","174713.56008","175463.19546","176230.306762","176997.643716","177764.842455","178532.058921","179299.679519","183202.305985","183969.688912","184719.97601","170876.944715","171643.970383","172411.44315","173178.317381","173946.303651","183972.423787","Mapping"
"Blocked","Female","ball","4","F_gnash.wav","space","271.84400091","426","182435.899585","174713.56008","175463.19546","176230.306762","176997.643716","177764.842455","178532.058921","179299.679519","183202.305985","183969.688912","184719.97601","185487.189772","171643.970383","172411.44315","173178.317381","173946.303651","184722.744539","Mapping"
"Blocked","Female","ball","4","F_gnash.wav","None","738.807952353","426","182435.899585","174713.56008","175463.19546","176230.306762","176997.643716","177764.842455","178532.058921","179299.679519","183202.305985","183969.688912","184719.97601","185487.189772","186254.320304","172411.44315","173178.317381","173946.303651","185490.06647","Mapping"
"Blocked","Female","ball","4","F_ball.wav","None","737.820909209","426","182435.899585","174713.56008","175463.19546","176230.306762","176997.643716","177764.842455","178532.058921","179299.679519","183202.305985","183969.688912","184719.97601","185487.189772","186254.320304","187021.522048","173178.317381","173946.303651","186256.852663","Mapping"
"Blocked","Female","ball","4","F_knife.wav","space","451.176669605","426","182435.899585","174713.56008","175463.19546","176230.306762","176997.643716","177764.842455","178532.058921","179299.679519","183202.305985","183969.688912","184719.97601","185487.189772","186254.320304","187021.522048","187788.853594","173946.303651","187024.34436","Mapping"
"Blocked","Female","ball","4","F_cad.wav","None","733.563853729","426","182435.899585","174713.56008","175463.19546","176230.306762","176997.643716","177764.842455","178532.058921","179299.679519","183202.305985","183969.688912","184719.97601","185487.189772","186254.320304","187021.522048","187788.853594","188555.918022","187791.758535","Mapping"
"Blocked","Female","ball","4","F_greet.wav","None","732.236979293","426","182435.899585","189323.59601","175463.19546","176230.306762","176997.643716","177764.842455","178532.058921","179299.679519","183202.305985","183969.688912","184719.97601","185487.189772","186254.320304","187021.522048","187788.853594","188555.918022","188558.734025","Mapping"
"Blocked","Female","ball","4","F_cad.wav","None","729.744282211","426","182435.899585","189323.59601","190090.650223","176230.306762","176997.643716","177764.842455","178532.058921","179299.679519","183202.305985","183969.688912","184719.97601","185487.189772","186254.320304","187021.522048","187788.853594","188555.918022","189326.72991","Mapping"
"Blocked","Female","ball","4","F_priest.wav","None","728.074271316","426","182435.899585","189323.59601","190090.650223","190858.876568","176997.643716","177764.842455","178532.058921","179299.679519","183202.305985","183969.688912","184719.97601","185487.189772","186254.320304","187021.522048","187788.853594","188555.918022","190093.710507","Mapping"
"Blocked","Female","ball","4","F_ball.wav","None","725.21800583","426","182435.899585","189323.59601","190090.650223","190858.876568","191608.55161","177764.842455","178532.058921","179299.679519","183202.305985","183969.688912","184719.97601","185487.189772","186254.320304","187021.522048","187788.853594","188555.918022","190862.05734","Mapping"
"Blocked","Female","ball","4","F_jaw.wav","space","343.992197401","426","182435.899585","189323.59601","190090.650223","190858.876568","191608.55161","192375.815851","178532.058921","179299.679519","183202.305985","183969.688912","184719.97601","185487.189772","186254.320304","187021.522048","187788.853594","188555.918022","191611.531969","Mapping"
"Blocked","Female","ball","4","F_ball.wav","None","738.076909441","426","182435.899585","189323.59601","190090.650223","190858.876568","191608.55161","192375.815851","193143.042232","179299.679519","183202.305985","183969.688912","184719.97601","185487.189772","186254.320304","187021.522048","187788.853594","188555.918022","192379.377018","Mapping"
"Blocked","Female","ball","4","F_knife.wav","space","457.67913556","426","182435.899585","189323.59601","190090.650223","190858.876568","191608.55161","192375.815851","193143.042232","193909.896933","183202.305985","183969.688912","184719.97601","185487.189772","186254.320304","187021.522048","187788.853594","188555.918022","193146.789991","Mapping"
"Blocked","Female","ball","3","F_priest.wav","None","735.128099271","426","197046.004323","189323.59601","190090.650223","190858.876568","191608.55161","192375.815851","193143.042232","193909.896933","183202.305985","183969.688912","184719.97601","185487.189772","186254.320304","187021.522048","187788.853594","188555.918022","193912.994175","Mapping"
"Blocked","Female","ball","3","F_jolt.wav","space","56.0826796609","426","197046.004323","189323.59601","190090.650223","190858.876568","191608.55161","192375.815851","193143.042232","193909.896933","197796.114746","183969.688912","184719.97601","185487.189772","186254.320304","187021.522048","187788.853594","188555.918022","197049.496984","Mapping"
"Blocked","Female","ball","3","F_cad.wav","None","742.626321992","426","197046.004323","189323.59601","190090.650223","190858.876568","191608.55161","192375.815851","193143.042232","193909.896933","197796.114746","198563.225747","184719.97601","185487.189772","186254.320304","187021.522048","187788.853594","188555.918022","197798.766091","Mapping"
"Blocked","Female","ball","3","F_priest.wav","None","741.155222074","426","197046.004323","189323.59601","190090.650223","190858.876568","191608.55161","192375.815851","193143.042232","193909.896933","197796.114746","198563.225747","199330.928674","185487.189772","186254.320304","187021.522048","187788.853594","188555.918022","198565.908341","Mapping"
"Blocked","Female","ball","3","F_ball.wav","None","738.5660742","426","197046.004323","189323.59601","190090.650223","190858.876568","191608.55161","192375.815851","193143.042232","193909.896933","197796.114746","198563.225747","199330.928674","200098.246999","186254.320304","187021.522048","187788.853594","188555.918022","199334.148508","Mapping"
"Blocked","Female","ball","3","F_dime.wav","space","398.060227359","426","197046.004323","189323.59601","190090.650223","190858.876568","191608.55161","192375.815851","193143.042232","193909.896933","197796.114746","198563.225747","199330.928674","200098.246999","200865.258545","187021.522048","187788.853594","188555.918022","200101.480655","Mapping"
"Blocked","Female","ball","3","F_ball.wav","None","734.959235268","426","197046.004323","189323.59601","190090.650223","190858.876568","191608.55161","192375.815851","193143.042232","193909.896933","197796.114746","198563.225747","199330.928674","200098.246999","200865.258545","201632.607519","187788.853594","188555.918022","200868.358792","Mapping"
"Blocked","Female","ball","3","F_park.wav","space","438.647982255","426","197046.004323","189323.59601","190090.650223","190858.876568","191608.55161","192375.815851","193143.042232","193909.896933","197796.114746","198563.225747","199330.928674","200098.246999","200865.258545","201632.607519","202399.842614","188555.918022","201635.894958","Mapping"
"Blocked","Female","ball","3","F_jaw.wav","None","731.084677785","426","197046.004323","189323.59601","190090.650223","190858.876568","191608.55161","192375.815851","193143.042232","193909.896933","197796.114746","198563.225747","199330.928674","200098.246999","200865.258545","201632.607519","202399.842614","203167.492658","202402.86534","Mapping"
"Blocked","Female","ball","3","F_ball.wav","None","728.908074884","426","197046.004323","203934.204636","190090.650223","190858.876568","191608.55161","192375.815851","193143.042232","193909.896933","197796.114746","198563.225747","199330.928674","200098.246999","200865.258545","201632.607519","202399.842614","203167.492658","203171.278577","Mapping"
"Blocked","Female","ball","3","F_knife.wav","space","369.300764815","426","197046.004323","203934.204636","204701.267562","190858.876568","191608.55161","192375.815851","193143.042232","193909.896933","197796.114746","198563.225747","199330.928674","200098.246999","200865.258545","201632.607519","202399.842614","203167.492658","203937.227361","Mapping"
"Blocked","Female","ball","3","F_bluff.wav","None","726.134438582","426","197046.004323","203934.204636","204701.267562","205451.651712","191608.55161","192375.815851","193143.042232","193909.896933","197796.114746","198563.225747","199330.928674","200098.246999","200865.258545","201632.607519","202399.842614","203167.492658","204704.507527","Mapping"
"Blocked","Female","ball","3","F_ball.wav","None","741.930434041","426","197046.004323","203934.204636","204701.267562","205451.651712","206218.854357","192375.815851","193143.042232","193909.896933","197796.114746","198563.225747","199330.928674","200098.246999","200865.258545","201632.607519","202399.842614","203167.492658","205454.661518","Mapping"
"Blocked","Female","ball","3","F_dime.wav","space","445.073527953","426","197046.004323","203934.204636","204701.267562","205451.651712","206218.854357","206986.063311","193143.042232","193909.896933","197796.114746","198563.225747","199330.928674","200098.246999","200865.258545","201632.607519","202399.842614","203167.492658","206221.503899","Mapping"
"Blocked","Female","ball","3","F_park.wav","None","738.621961575","426","197046.004323","203934.204636","204701.267562","205451.651712","206218.854357","206986.063311","207753.225693","193909.896933","197796.114746","198563.225747","199330.928674","200098.246999","200865.258545","201632.607519","202399.842614","203167.492658","206988.784666","Mapping"
"Blocked","Female","ball","3","F_cling.wav","None","737.281566","426","197046.004323","203934.204636","204701.267562","205451.651712","206218.854357","206986.063311","207753.225693","208520.489633","197796.114746","198563.225747","199330.928674","200098.246999","200865.258545","201632.607519","202399.842614","203167.492658","207756.074747","Mapping"
"Blocked","Female","ball","2","F_greet.wav","None","735.329113536","426","211657.094301","203934.204636","204701.267562","205451.651712","206218.854357","206986.063311","207753.225693","208520.489633","197796.114746","198563.225747","199330.928674","200098.246999","200865.258545","201632.607519","202399.842614","203167.492658","208523.686331","Mapping"
"Blocked","Female","ball","2","F_ball.wav","None","727.232956004","426","211657.094301","203934.204636","204701.267562","205451.651712","206218.854357","206986.063311","207753.225693","208520.489633","212424.144007","198563.225747","199330.928674","200098.246999","200865.258545","201632.607519","202399.842614","203167.492658","211660.817722","Mapping"
"Blocked","Female","ball","2","F_jaw.wav","space","394.550740628","426","211657.094301","203934.204636","204701.267562","205451.651712","206218.854357","206986.063311","207753.225693","208520.489633","212424.144007","213174.201547","199330.928674","200098.246999","200865.258545","201632.607519","202399.842614","203167.492658","212428.004142","Mapping"
"Blocked","Female","ball","2","F_greet.wav","None","741.214715085","426","211657.094301","203934.204636","204701.267562","205451.651712","206218.854357","206986.063311","207753.225693","208520.489633","212424.144007","213174.201547","213941.514464","200098.246999","200865.258545","201632.607519","202399.842614","203167.492658","213177.160573","Mapping"
"Blocked","Female","ball","2","F_ball.wav","None","739.596084519","426","211657.094301","203934.204636","204701.267562","205451.651712","206218.854357","206986.063311","207753.225693","208520.489633","212424.144007","213174.201547","213941.514464","214708.305765","200865.258545","201632.607519","202399.842614","203167.492658","213944.681715","Mapping"
"Blocked","Female","ball","2","F_dime.wav","space","256.928982772","426","211657.094301","203934.204636","204701.267562","205451.651712","206218.854357","206986.063311","207753.225693","208520.489633","212424.144007","213174.201547","213941.514464","214708.305765","215475.805875","201632.607519","202399.842614","203167.492658","214711.659609","Mapping"
"Blocked","Female","ball","2","F_depth.wav","None","735.105564038","426","211657.094301","203934.204636","204701.267562","205451.651712","206218.854357","206986.063311","207753.225693","208520.489633","212424.144007","213174.201547","213941.514464","214708.305765","215475.805875","216243.289158","202399.842614","203167.492658","215479.297934","Mapping"
"Blocked","Female","ball","2","F_cad.wav","None","733.690351495","426","211657.094301","203934.204636","204701.267562","205451.651712","206218.854357","206986.063311","207753.225693","208520.489633","212424.144007","213174.201547","213941.514464","214708.305765","215475.805875","216243.289158","217010.005943","203167.492658","216246.394213","Mapping"
"Blocked","Female","ball","2","F_knife.wav","None","733.065674876","426","211657.094301","203934.204636","204701.267562","205451.651712","206218.854357","206986.063311","207753.225693","208520.489633","212424.144007","213174.201547","213941.514464","214708.305765","215475.805875","216243.289158","217010.005943","217777.20348","217012.764857","Mapping"
"Blocked","Female","ball","2","F_priest.wav","None","731.229504207","426","211657.094301","218544.646801","204701.267562","205451.651712","206218.854357","206986.063311","207753.225693","208520.489633","212424.144007","213174.201547","213941.514464","214708.305765","215475.805875","216243.289158","217010.005943","217777.20348","217780.236422","Mapping"
"Blocked","Female","ball","2","F_ball.wav","None","729.241596312","426","211657.094301","218544.646801","219311.783042","205451.651712","206218.854357","206986.063311","207753.225693","208520.489633","212424.144007","213174.201547","213941.514464","214708.305765","215475.805875","216243.289158","217010.005943","217777.20348","218547.674935","Mapping"
"Blocked","Female","ball","2","F_jaw.wav","space","385.679070659","426","211657.094301","218544.646801","219311.783042","220062.098685","206218.854357","206986.063311","207753.225693","208520.489633","212424.144007","213174.201547","213941.514464","214708.305765","215475.805875","216243.289158","217010.005943","217777.20348","219314.866462","Mapping"
"Blocked","Female","ball","2","F_ball.wav","None","742.40758001","426","211657.094301","218544.646801","219311.783042","220062.098685","220829.39748","206986.063311","207753.225693","208520.489633","212424.144007","213174.201547","213941.514464","214708.305765","215475.805875","216243.289158","217010.005943","217777.20348","220064.914988","Mapping"
"Blocked","Female","ball","2","F_priest.wav","space","558.023413805","426","211657.094301","218544.646801","219311.783042","220062.098685","220829.39748","221596.600125","207753.225693","208520.489633","212424.144007","213174.201547","213941.514464","214708.305765","215475.805875","216243.289158","217010.005943","217777.20348","220832.526873","Mapping"
"Blocked","Female","ball","2","F_cling.wav","None","738.429961401","426","211657.094301","218544.646801","219311.783042","220062.098685","220829.39748","221596.600125","222363.846638","208520.489633","212424.144007","213174.201547","213941.514464","214708.305765","215475.805875","216243.289158","217010.005943","217777.20348","221599.730419","Mapping"
"Blocked","Female","ball","2","F_depth.wav","None","737.375312564","426","211657.094301","218544.646801","219311.783042","220062.098685","220829.39748","221596.600125","222363.846638","223131.103667","212424.144007","213174.201547","213941.514464","214708.305765","215475.805875","216243.289158","217010.005943","217777.20348","222366.692387","Mapping"
"Blocked","Female","tile","15","F_bluff.wav","None","736.198973475","426","226267.539471","218544.646801","219311.783042","220062.098685","220829.39748","221596.600125","222363.846638","223131.103667","212424.144007","213174.201547","213941.514464","214708.305765","215475.805875","216243.289158","217010.005943","217777.20348","223133.713247","Mapping"
"Blocked","Female","tile","15","F_romp.wav","None","727.23746305","426","226267.539471","218544.646801","219311.783042","220062.098685","220829.39748","221596.600125","222363.846638","223131.103667","227034.641158","213174.201547","213941.514464","214708.305765","215475.805875","216243.289158","217010.005943","217777.20348","226271.470217","Mapping"
"Blocked","Female","tile","15","F_reek.wav","None","726.290682854","426","226267.539471","218544.646801","219311.783042","220062.098685","220829.39748","221596.600125","222363.846638","223131.103667","227034.641158","227801.963089","213941.514464","214708.305765","215475.805875","216243.289158","217010.005943","217777.20348","227038.426776","Mapping"
"Blocked","Female","tile","15","F_tile.wav","None","725.126062085","426","226267.539471","218544.646801","219311.783042","220062.098685","220829.39748","221596.600125","222363.846638","223131.103667","227034.641158","227801.963089","228551.625211","214708.305765","215475.805875","216243.289158","217010.005943","217777.20348","227805.734585","Mapping"
"Blocked","Female","tile","15","F_greet.wav","space","281.320216025","426","226267.539471","218544.646801","219311.783042","220062.098685","220829.39748","221596.600125","222363.846638","223131.103667","227034.641158","227801.963089","228551.625211","229318.83687","215475.805875","216243.289158","217010.005943","217777.20348","228554.292781","Mapping"
"Blocked","Female","tile","15","F_tile.wav","None","740.775428305","426","226267.539471","218544.646801","219311.783042","220062.098685","220829.39748","221596.600125","222363.846638","223131.103667","227034.641158","227801.963089","228551.625211","229318.83687","230086.410895","216243.289158","217010.005943","217777.20348","229321.679313","Mapping"
"Blocked","Female","tile","15","F_reek.wav","space","483.856361035","426","226267.539471","218544.646801","219311.783042","220062.098685","220829.39748","221596.600125","222363.846638","223131.103667","227034.641158","227801.963089","228551.625211","229318.83687","230086.410895","230853.70338","217010.005943","217777.20348","230089.721471","Mapping"
"Blocked","Female","tile","15","F_tile.wav","None","736.283405477","426","226267.539471","218544.646801","219311.783042","220062.098685","220829.39748","221596.600125","222363.846638","223131.103667","227034.641158","227801.963089","228551.625211","229318.83687","230086.410895","230853.70338","231621.057762","217777.20348","230856.865824","Mapping"
"Blocked","Female","tile","15","F_gnash.wav","space","328.327507224","426","226267.539471","218544.646801","219311.783042","220062.098685","220829.39748","221596.600125","222363.846638","223131.103667","227034.641158","227801.963089","228551.625211","229318.83687","230086.410895","230853.70338","231621.057762","232387.83434","231624.225614","Mapping"
"Blocked","Female","tile","15","F_jolt.wav","None","733.298839406","426","226267.539471","233155.053511","219311.783042","220062.098685","220829.39748","221596.600125","222363.846638","223131.103667","227034.641158","227801.963089","228551.625211","229318.83687","230086.410895","230853.70338","231621.057762","232387.83434","232390.548483","Mapping"
"Blocked","Female","tile","15","F_romp.wav","None","732.059401668","426","226267.539471","233155.053511","233922.53409","220062.098685","220829.39748","221596.600125","222363.846638","223131.103667","227034.641158","227801.963089","228551.625211","229318.83687","230086.410895","230853.70338","231621.057762","232387.83434","233157.971372","Mapping"
"Blocked","Female","tile","15","F_jaw.wav","None","730.207005632","426","226267.539471","233155.053511","233922.53409","234689.694368","220829.39748","221596.600125","222363.846638","223131.103667","227034.641158","227801.963089","228551.625211","229318.83687","230086.410895","230853.70338","231621.057762","232387.83434","233925.800196","Mapping"
"Blocked","Female","tile","15","F_bluff.wav","None","728.477501726","426","226267.539471","233155.053511","233922.53409","234689.694368","235457.172544","221596.600125","222363.846638","223131.103667","227034.641158","227801.963089","228551.625211","229318.83687","230086.410895","230853.70338","231621.057762","232387.83434","234693.698128","Mapping"
"Blocked","Female","tile","15","F_tile.wav","None","727.971811129","426","226267.539471","233155.053511","233922.53409","234689.694368","235457.172544","236224.465029","222363.846638","223131.103667","227034.641158","227801.963089","228551.625211","229318.83687","230086.410895","230853.70338","231621.057762","232387.83434","235460.501748","Mapping"
"Blocked","Female","tile","15","F_cad.wav","space","335.065841937","426","226267.539471","233155.053511","233922.53409","234689.694368","235457.172544","236224.465029","236974.506343","223131.103667","227034.641158","227801.963089","228551.625211","229318.83687","230086.410895","230853.70338","231621.057762","232387.83434","236227.504881","Mapping"
"Blocked","Female","tile","15","F_dime.wav","None","742.283486002","426","226267.539471","233155.053511","233922.53409","234689.694368","235457.172544","236224.465029","236974.506343","237741.687054","227034.641158","227801.963089","228551.625211","229318.83687","230086.410895","230853.70338","231621.057762","232387.83434","236977.447942","Mapping"
"Blocked","Female","done","20","F_cad.wav","None","741.067484905","426","240878.126162","233155.053511","233922.53409","234689.694368","235457.172544","236224.465029","236974.506343","237741.687054","227034.641158","227801.963089","228551.625211","229318.83687","230086.410895","230853.70338","231621.057762","232387.83434","237744.581479","Mapping"
"Blocked","Female","done","20","F_romp.wav","None","725.694250391","426","240878.126162","233155.053511","233922.53409","234689.694368","235457.172544","236224.465029","236974.506343","237741.687054","241628.178594","227801.963089","228551.625211","229318.83687","230086.410895","230853.70338","231621.057762","232387.83434","240882.151255","Mapping"
"Blocked","Female","done","20","F_romp.wav","None","742.070152477","426","240878.126162","233155.053511","233922.53409","234689.694368","235457.172544","236224.465029","236974.506343","237741.687054","241628.178594","242395.363511","228551.625211","229318.83687","230086.410895","230853.70338","231621.057762","232387.83434","241631.462428","Mapping"
"Blocked","Female","done","20","F_jaw.wav","None","741.217719783","426","240878.126162","233155.053511","233922.53409","234689.694368","235457.172544","236224.465029","236974.506343","237741.687054","241628.178594","242395.363511","243162.286419","229318.83687","230086.410895","230853.70338","231621.057762","232387.83434","242398.552397","Mapping"
"Blocked","Female","done","20","F_lash.wav","None","740.569005583","426","240878.126162","233155.053511","233922.53409","234689.694368","235457.172544","236224.465029","236974.506343","237741.687054","241628.178594","242395.363511","243162.286419","243929.528725","230086.410895","230853.70338","231621.057762","232387.83434","243165.112337","Mapping"
"Blocked","Female","done","20","F_done.wav","None","738.83499463","426","240878.126162","233155.053511","233922.53409","234689.694368","235457.172544","236224.465029","236974.506343","237741.687054","241628.178594","242395.363511","243162.286419","243929.528725","244696.76322","230853.70338","231621.057762","232387.83434","243932.529817","Mapping"
"Blocked","Female","done","20","F_knife.wav","space","326.885252403","426","240878.126162","233155.053511","233922.53409","234689.694368","235457.172544","236224.465029","236974.506343","237741.687054","241628.178594","242395.363511","243162.286419","243929.528725","244696.76322","245463.847179","231621.057762","232387.83434","244699.689795","Mapping"
"Blocked","Female","done","20","F_done.wav","None","735.941170426","426","240878.126162","233155.053511","233922.53409","234689.694368","235457.172544","236224.465029","236974.506343","237741.687054","241628.178594","242395.363511","243162.286419","243929.528725","244696.76322","245463.847179","246231.063645","232387.83434","245466.986787","Mapping"
"Blocked","Female","done","20","F_priest.wav","space","282.569869734","426","240878.126162","233155.053511","233922.53409","234689.694368","235457.172544","236224.465029","236974.506343","237741.687054","241628.178594","242395.363511","243162.286419","243929.528725","244696.76322","245463.847179","246231.063645","246998.430646","246234.025075","Mapping"
"Blocked","Female","done","20","F_done.wav","None","731.977974366","426","240878.126162","247765.965911","233922.53409","234689.694368","235457.172544","236224.465029","236974.506343","237741.687054","241628.178594","242395.363511","243162.286419","243929.528725","244696.76322","245463.847179","246231.063645","246998.430646","247001.044433","Mapping"
"Blocked","Female","done","20","F_romp.wav","space","318.939630218","426","240878.126162","247765.965911","248533.121081","234689.694368","235457.172544","236224.465029","236974.506343","237741.687054","241628.178594","242395.363511","243162.286419","243929.528725","244696.76322","245463.847179","246231.063645","246998.430646","247768.669538","Mapping"
"Blocked","Female","done","20","F_dime.wav","None","728.394572074","426","240878.126162","247765.965911","248533.121081","249300.324027","235457.172544","236224.465029","236974.506343","237741.687054","241628.178594","242395.363511","243162.286419","243929.528725","244696.76322","245463.847179","246231.063645","246998.430646","248535.950305","Mapping"
"Blocked","Female","done","20","F_depth.wav","space","400.969075052","426","240878.126162","247765.965911","248533.121081","249300.324027","250050.56906","236224.465029","236974.506343","237741.687054","241628.178594","242395.363511","243162.286419","243929.528725","244696.76322","245463.847179","246231.063645","246998.430646","249303.607861","Mapping"
"Blocked","Female","done","20","F_depth.wav","None","741.815354125","426","240878.126162","247765.965911","248533.121081","249300.324027","250050.56906","250818.111836","236974.506343","237741.687054","241628.178594","242395.363511","243162.286419","243929.528725","244696.76322","245463.847179","246231.063645","246998.430646","250053.345701","Mapping"
"Blocked","Female","done","20","F_done.wav","None","739.270675775","426","240878.126162","247765.965911","248533.121081","249300.324027","250050.56906","250818.111836","251585.157035","237741.687054","241628.178594","242395.363511","243162.286419","243929.528725","244696.76322","245463.847179","246231.063645","246998.430646","250821.452759","Mapping"
"Blocked","Female","done","20","F_park.wav","space","548.934504203","426","240878.126162","247765.965911","248533.121081","249300.324027","250050.56906","250818.111836","251585.157035","252352.4372","241628.178594","242395.363511","243162.286419","243929.528725","244696.76322","245463.847179","246231.063645","246998.430646","251588.655704","Mapping"
"Blocked","Female","tile","16","F_greet.wav","None","735.395517352","426","255488.826431","247765.965911","248533.121081","249300.324027","250050.56906","250818.111836","251585.157035","252352.4372","241628.178594","242395.363511","243162.286419","243929.528725","244696.76322","245463.847179","246231.063645","246998.430646","252355.883588","Mapping"
"Blocked","Female","tile","16","F_knife.wav","None","726.828223244","426","255488.826431","247765.965911","248533.121081","249300.324027","250050.56906","250818.111836","251585.157035","252352.4372","256256.046203","242395.363511","243162.286419","243929.528725","244696.76322","245463.847179","246231.063645","246998.430646","255492.424557","Mapping"
"Blocked","Female","tile","16","F_reek.wav","None","725.236034015","426","255488.826431","247765.965911","248533.121081","249300.324027","250050.56906","250818.111836","251585.157035","252352.4372","256256.046203","257006.119367","243162.286419","243929.528725","244696.76322","245463.847179","246231.063645","246998.430646","256259.595351","Mapping"
"Blocked","Female","tile","16","F_tile.wav","None","741.522696584","426","255488.826431","247765.965911","248533.121081","249300.324027","250050.56906","250818.111836","251585.157035","252352.4372","256256.046203","257006.119367","257773.144134","243929.528725","244696.76322","245463.847179","246231.063645","246998.430646","257009.476516","Mapping"
"Blocked","Female","tile","16","F_bluff.wav","space","301.15993344","426","255488.826431","247765.965911","248533.121081","249300.324027","250050.56906","250818.111836","251585.157035","252352.4372","256256.046203","257006.119367","257773.144134","258540.490703","244696.76322","245463.847179","246231.063645","246998.430646","257776.434878","Mapping"
"Blocked","Female","tile","16","F_bluff.wav","None","738.353341614","426","255488.826431","247765.965911","248533.121081","249300.324027","250050.56906","250818.111836","251585.157035","252352.4372","256256.046203","257006.119367","257773.144134","258540.490703","259307.213498","245463.847179","246231.063645","246998.430646","258543.688002","Mapping"
"Blocked","Female","tile","16","F_tile.wav","space","195.651781996","426","255488.826431","247765.965911","248533.121081","249300.324027","250050.56906","250818.111836","251585.157035","252352.4372","256256.046203","257006.119367","257773.144134","258540.490703","259307.213498","260075.038716","246231.063645","246998.430646","259309.948674","Mapping"
"Blocked","Female","tile","16","F_knife.wav","space","560.913632373","426","255488.826431","247765.965911","248533.121081","249300.324027","250050.56906","250818.111836","251585.157035","252352.4372","256256.046203","257006.119367","257773.144134","258540.490703","259307.213498","260075.038716","260841.780139","246998.430646","260078.64886","Mapping"
"Blocked","Female","tile","16","F_greet.wav","None","732.875177052","426","255488.826431","247765.965911","248533.121081","249300.324027","250050.56906","250818.111836","251585.157035","252352.4372","256256.046203","257006.119367","257773.144134","258540.490703","259307.213498","260075.038716","260841.780139","261608.965056","260844.642714","Mapping"
"Blocked","Female","tile","16","F_park.wav","None","731.537185236","426","255488.826431","262376.49972","248533.121081","249300.324027","250050.56906","250818.111836","251585.157035","252352.4372","256256.046203","257006.119367","257773.144134","258540.490703","259307.213498","260075.038716","260841.780139","261608.965056","261611.951725","Mapping"
"Blocked","Female","tile","16","F_tile.wav","None","730.221428181","426","255488.826431","262376.49972","263143.905482","249300.324027","250050.56906","250818.111836","251585.157035","252352.4372","256256.046203","257006.119367","257773.144134","258540.490703","259307.213498","260075.038716","260841.780139","261608.965056","262379.264642","Mapping"
"Blocked","Female","tile","16","F_knife.wav","space","354.611399462","426","255488.826431","262376.49972","263143.905482","263911.674211","250050.56906","250818.111836","251585.157035","252352.4372","256256.046203","257006.119367","257773.144134","258540.490703","259307.213498","260075.038716","260841.780139","261608.965056","263147.069428","Mapping"
"Blocked","Female","tile","16","F_dime.wav","None","725.947846864","426","255488.826431","262376.49972","263143.905482","263911.674211","264678.817664","250818.111836","251585.157035","252352.4372","256256.046203","257006.119367","257773.144134","258540.490703","259307.213498","260075.038716","260841.780139","261608.965056","263915.162665","Mapping"
"Blocked","Female","tile","16","F_greet.wav","None","724.929254397","426","255488.826431","262376.49972","263143.905482","263911.674211","264678.817664","265428.325344","251585.157035","252352.4372","256256.046203","257006.119367","257773.144134","258540.490703","259307.213498","260075.038716","260841.780139","261608.965056","264682.768841","Mapping"
"Blocked","Female","tile","16","F_tile.wav","None","742.78677284","426","255488.826431","262376.49972","263143.905482","263911.674211","264678.817664","265428.325344","266195.649378","252352.4372","256256.046203","257006.119367","257773.144134","258540.490703","259307.213498","260075.038716","260841.780139","261608.965056","265431.095975","Mapping"
"Blocked","Female","tile","16","F_knife.wav","space","509.21330408","426","255488.826431","262376.49972","263143.905482","263911.674211","264678.817664","265428.325344","266195.649378","266962.760079","256256.046203","257006.119367","257773.144134","258540.490703","259307.213498","260075.038716","260841.780139","261608.965056","266198.365925","Mapping"
"Blocked","Female","cave","8","F_priest.wav","None","739.413398908","426","270099.389686","262376.49972","263143.905482","263911.674211","264678.817664","265428.325344","266195.649378","266962.760079","256256.046203","257006.119367","257773.144134","258540.490703","259307.213498","260075.038716","260841.780139","261608.965056","266965.847105","Mapping"
"Blocked","Female","cave","8","F_romp.wav","None","726.903941622","426","270099.389686","262376.49972","263143.905482","263911.674211","264678.817664","265428.325344","266195.649378","266962.760079","270866.064105","257006.119367","257773.144134","258540.490703","259307.213498","260075.038716","260841.780139","261608.965056","270103.072844","Mapping"
"Blocked","Female","cave","8","F_cave.wav","None","727.23626117","426","270099.389686","262376.49972","263143.905482","263911.674211","264678.817664","265428.325344","266195.649378","266962.760079","270866.064105","271633.130937","257773.144134","258540.490703","259307.213498","260075.038716","260841.780139","261608.965056","270868.929985","Mapping"
"Blocked","Female","cave","8","F_bluff.wav","space","366.45741953","426","270099.389686","262376.49972","263143.905482","263911.674211","264678.817664","265428.325344","266195.649378","266962.760079","270866.064105","271633.130937","272383.834787","258540.490703","259307.213498","260075.038716","260841.780139","261608.965056","271636.153062","Mapping"
"Blocked","Female","cave","8","F_lash.wav","None","740.677174696","426","270099.389686","262376.49972","263143.905482","263911.674211","264678.817664","265428.325344","266195.649378","266962.760079","270866.064105","271633.130937","272383.834787","273151.029019","259307.213498","260075.038716","260841.780139","261608.965056","272386.922114","Mapping"
"Blocked","Female","cave","8","F_greet.wav","None","739.822338243","426","270099.389686","262376.49972","263143.905482","263911.674211","264678.817664","265428.325344","266195.649378","266962.760079","270866.064105","271633.130937","272383.834787","273151.029019","273917.898142","260075.038716","260841.780139","261608.965056","273153.974223","Mapping"
"Blocked","Female","cave","8","F_cave.wav","None","738.968102732","426","270099.389686","262376.49972","263143.905482","263911.674211","264678.817664","265428.325344","266195.649378","266962.760079","270866.064105","271633.130937","272383.834787","273151.029019","273917.898142","274685.05181","260841.780139","261608.965056","273920.677187","Mapping"
"Blocked","Female","cave","8","F_depth.wav","space","424.638880426","426","270099.389686","262376.49972","263143.905482","263911.674211","264678.817664","265428.325344","266195.649378","266962.760079","270866.064105","271633.130937","272383.834787","273151.029019","273917.898142","274685.05181","275452.271882","261608.965056","274687.991907","Mapping"
"Blocked","Female","cave","8","F_cave.wav","None","735.558972899","426","270099.389686","262376.49972","263143.905482","263911.674211","264678.817664","265428.325344","266195.649378","266962.760079","270866.064105","271633.130937","272383.834787","273151.029019","273917.898142","274685.05181","275452.271882","276219.620254","275455.115528","Mapping"
"Blocked","Female","cave","8","F_cad.wav","space","490.009681135","426","270099.389686","276987.086711","263143.905482","263911.674211","264678.817664","265428.325344","266195.649378","266962.760079","270866.064105","271633.130937","272383.834787","273151.029019","273917.898142","274685.05181","275452.271882","276219.620254","276222.622548","Mapping"
"Blocked","Female","cave","8","F_cling.wav","None","730.768583604","426","270099.389686","276987.086711","277754.865657","263911.674211","264678.817664","265428.325344","266195.649378","266962.760079","270866.064105","271633.130937","272383.834787","273151.029019","273917.898142","274685.05181","275452.271882","276219.620254","276990.260273","Mapping"
"Blocked","Female","cave","8","F_priest.wav","None","729.039380167","426","270099.389686","276987.086711","277754.865657","278521.639231","264678.817664","265428.325344","266195.649378","266962.760079","270866.064105","271633.130937","272383.834787","273151.029019","273917.898142","274685.05181","275452.271882","276219.620254","277758.659989","Mapping"
"Blocked","Female","cave","8","F_cave.wav","None","729.353972","426","270099.389686","276987.086711","277754.865657","278521.639231","279288.660692","265428.325344","266195.649378","266962.760079","270866.064105","271633.130937","272383.834787","273151.029019","273917.898142","274685.05181","275452.271882","276219.620254","278524.519233","Mapping"
"Blocked","Female","cave","8","F_dime.wav","space","401.759911446","426","270099.389686","276987.086711","277754.865657","278521.639231","279288.660692","280056.030698","266195.649378","266962.760079","270866.064105","271633.130937","272383.834787","273151.029019","273917.898142","274685.05181","275452.271882","276219.620254","279291.833352","Mapping"
"Blocked","Female","cave","8","F_knife.wav","None","725.971583975","426","270099.389686","276987.086711","277754.865657","278521.639231","279288.660692","280056.030698","280806.177177","266962.760079","270866.064105","271633.130937","272383.834787","273151.029019","273917.898142","274685.05181","275452.271882","276219.620254","280058.994532","Mapping"
"Blocked","Female","cave","8","F_dime.wav","None","742.819223574","426","270099.389686","276987.086711","277754.865657","278521.639231","279288.660692","280056.030698","280806.177177","281573.399353","270866.064105","271633.130937","272383.834787","273151.029019","273917.898142","274685.05181","275452.271882","276219.620254","280808.754907","Mapping"
"Blocked","Female","cave","7","F_gnash.wav","None","741.772386949","426","284710.25311","276987.086711","277754.865657","278521.639231","279288.660692","280056.030698","280806.177177","281573.399353","270866.064105","271633.130937","272383.834787","273151.029019","273917.898142","274685.05181","275452.271882","276219.620254","281576.187411","Mapping"
"Blocked","Female","cave","7","F_gnash.wav","None","726.829124654","426","284710.25311","276987.086711","277754.865657","278521.639231","279288.660692","280056.030698","280806.177177","281573.399353","285476.595209","271633.130937","272383.834787","273151.029019","273917.898142","274685.05181","275452.271882","276219.620254","284713.558577","Mapping"
"Blocked","Female","cave","7","F_cave.wav","None","726.934289068","426","284710.25311","276987.086711","277754.865657","278521.639231","279288.660692","280056.030698","280806.177177","281573.399353","285476.595209","286243.701102","272383.834787","273151.029019","273917.898142","274685.05181","275452.271882","276219.620254","285479.821954","Mapping"
"Blocked","Female","cave","7","F_knife.wav","space","500.944977378","426","284710.25311","276987.086711","277754.865657","278521.639231","279288.660692","280056.030698","280806.177177","281573.399353","285476.595209","286243.701102","286994.394737","273151.029019","273917.898142","274685.05181","275452.271882","276219.620254","286246.676955","Mapping"
"Blocked","Female","cave","7","F_cave.wav","None","740.326826962","426","284710.25311","276987.086711","277754.865657","278521.639231","279288.660692","280056.030698","280806.177177","281573.399353","285476.595209","286243.701102","286994.394737","287761.197456","273917.898142","274685.05181","275452.271882","276219.620254","286997.74858","Mapping"
"Blocked","Female","cave","7","F_greet.wav","space","520.017295039","426","284710.25311","276987.086711","277754.865657","278521.639231","279288.660692","280056.030698","280806.177177","281573.399353","285476.595209","286243.701102","286994.394737","287761.197456","288528.39349","274685.05181","275452.271882","276219.620254","287763.59851","Mapping"
"Blocked","Female","cave","7","F_cad.wav","None","738.395707849","426","284710.25311","276987.086711","277754.865657","278521.639231","279288.660692","280056.030698","280806.177177","281573.399353","285476.595209","286243.701102","286994.394737","287761.197456","288528.39349","289295.658633","275452.271882","276219.620254","288531.301737","Mapping"
"Blocked","Female","cave","7","F_cling.wav","None","737.255425131","426","284710.25311","276987.086711","277754.865657","278521.639231","279288.660692","280056.030698","280806.177177","281573.399353","285476.595209","286243.701102","286994.394737","287761.197456","288528.39349","289295.658633","290062.784658","276219.620254","289298.610448","Mapping"
"Blocked","Female","cave","7","F_priest.wav","None","737.0123451","426","284710.25311","276987.086711","277754.865657","278521.639231","279288.660692","280056.030698","280806.177177","281573.399353","285476.595209","286243.701102","286994.394737","287761.197456","288528.39349","289295.658633","290062.784658","290830.146251","290065.599759","Mapping"
"Blocked","Female","cave","7","F_cave.wav","None","736.132569659","426","284710.25311","291597.303524","277754.865657","278521.639231","279288.660692","280056.030698","280806.177177","281573.399353","285476.595209","286243.701102","286994.394737","287761.197456","288528.39349","289295.658633","290062.784658","290830.146251","290832.9923","Mapping"
"Blocked","Female","cave","7","F_cad.wav","space","691.161561986","426","284710.25311","291597.303524","292364.788611","278521.639231","279288.660692","280056.030698","280806.177177","281573.399353","285476.595209","286243.701102","286994.394737","287761.197456","288528.39349","289295.658633","290062.784658","290830.146251","291600.47949","Mapping"
"Blocked","Female","cave","7","F_dime.wav","None","732.599345818","426","284710.25311","291597.303524","292364.788611","293131.86025","279288.660692","280056.030698","280806.177177","281573.399353","285476.595209","286243.701102","286994.394737","287761.197456","288528.39349","289295.658633","290062.784658","290830.146251","292367.837477","Mapping"
"Blocked","Female","cave","7","F_cave.wav","None","732.305185928","426","284710.25311","291597.303524","292364.788611","293131.86025","293898.997092","280056.030698","280806.177177","281573.399353","285476.595209","286243.701102","286994.394737","287761.197456","288528.39349","289295.658633","290062.784658","290830.146251","293134.697586","Mapping"
"Blocked","Female","cave","7","F_lash.wav","space","539.997932768","426","284710.25311","291597.303524","292364.788611","293131.86025","293898.997092","294666.539267","280806.177177","281573.399353","285476.595209","286243.701102","286994.394737","287761.197456","288528.39349","289295.658633","290062.784658","290830.146251","293901.609677","Mapping"
"Blocked","Female","cave","7","F_depth.wav","None","728.728994911","426","284710.25311","291597.303524","292364.788611","293131.86025","293898.997092","294666.539267","295433.884936","281573.399353","285476.595209","286243.701102","286994.394737","287761.197456","288528.39349","289295.658633","290062.784658","290830.146251","294669.542763","Mapping"
"Blocked","Female","cave","7","F_jolt.wav","None","728.003961393","426","284710.25311","291597.303524","292364.788611","293131.86025","293898.997092","294666.539267","295433.884936","296201.082773","285476.595209","286243.701102","286994.394737","287761.197456","288528.39349","289295.658633","290062.784658","290830.146251","295436.897145","Mapping"
"Blocked","Female","done","23","F_jolt.wav","None","726.938495644","426","299320.541434","291597.303524","292364.788611","293131.86025","293898.997092","294666.539267","295433.884936","296201.082773","285476.595209","286243.701102","286994.394737","287761.197456","288528.39349","289295.658633","290062.784658","290830.146251","296204.290588","Mapping"
"Blocked","Female","done","23","F_lash.wav","None","726.497105575","426","299320.541434","291597.303524","292364.788611","293131.86025","293898.997092","294666.539267","295433.884936","296201.082773","300087.199628","286243.701102","286994.394737","287761.197456","288528.39349","289295.658633","290062.784658","290830.146251","299324.003747","Mapping"
"Blocked","Female","done","23","F_cling.wav","None","726.180109984","426","299320.541434","291597.303524","292364.788611","293131.86025","293898.997092","294666.539267","295433.884936","296201.082773","300087.199628","300837.320267","286994.394737","287761.197456","288528.39349","289295.658633","290062.784658","290830.146251","300090.336232","Mapping"
"Blocked","Female","done","23","F_priest.wav","None","742.401570616","426","299320.541434","291597.303524","292364.788611","293131.86025","293898.997092","294666.539267","295433.884936","296201.082773","300087.199628","300837.320267","301604.56047","287761.197456","288528.39349","289295.658633","290062.784658","290830.146251","300840.249546","Mapping"
"Blocked","Female","done","23","F_done.wav","None","741.558452484","426","299320.541434","291597.303524","292364.788611","293131.86025","293898.997092","294666.539267","295433.884936","296201.082773","300087.199628","300837.320267","301604.56047","302371.83673","288528.39349","289295.658633","290062.784658","290830.146251","301607.547139","Mapping"
"Blocked","Female","done","23","F_reek.wav","space","464.074033344","426","299320.541434","291597.303524","292364.788611","293131.86025","293898.997092","294666.539267","295433.884936","296201.082773","300087.199628","300837.320267","301604.56047","302371.83673","303139.075431","289295.658633","290062.784658","290830.146251","302374.583925","Mapping"
"Blocked","Female","done","23","F_jolt.wav","None","738.760478132","426","299320.541434","291597.303524","292364.788611","293131.86025","293898.997092","294666.539267","295433.884936","296201.082773","300087.199628","300837.320267","301604.56047","302371.83673","303139.075431","303906.225192","290062.784658","290830.146251","303141.708147","Mapping"
"Blocked","Female","done","23","F_done.wav","None","737.91916282","426","299320.541434","291597.303524","292364.788611","293131.86025","293898.997092","294666.539267","295433.884936","296201.082773","300087.199628","300837.320267","301604.56047","302371.83673","303139.075431","303906.225192","304673.504156","290830.146251","303909.080256","Mapping"
"Blocked","Female","done","23","F_bluff.wav","space","370.350606137","426","299320.541434","291597.303524","292364.788611","293131.86025","293898.997092","294666.539267","295433.884936","296201.082773","300087.199628","300837.320267","301604.56047","302371.83673","303139.075431","303906.225192","304673.504156","305440.75758","304676.274187","Mapping"
"Blocked","Female","done","23","F_greet.wav","None","734.82252153","426","299320.541434","306207.908845","292364.788611","293131.86025","293898.997092","294666.539267","295433.884936","296201.082773","300087.199628","300837.320267","301604.56047","302371.83673","303139.075431","303906.225192","304673.504156","305440.75758","305443.61024","Mapping"
"Blocked","Female","done","23","F_done.wav","None","734.017262588","426","299320.541434","306207.908845","306975.102175","293131.86025","293898.997092","294666.539267","295433.884936","296201.082773","300087.199628","300837.320267","301604.56047","302371.83673","303139.075431","303906.225192","304673.504156","305440.75758","306211.006988","Mapping"
"Blocked","Female","done","23","F_jaw.wav","space","460.724997461","426","299320.541434","306207.908845","306975.102175","307742.338772","293898.997092","294666.539267","295433.884936","296201.082773","300087.199628","300837.320267","301604.56047","302371.83673","303139.075431","303906.225192","304673.504156","305440.75758","306977.90045","Mapping"
"Blocked","Female","done","23","F_depth.wav","None","731.278180308","426","299320.541434","306207.908845","306975.102175","307742.338772","308509.814244","294666.539267","295433.884936","296201.082773","300087.199628","300837.320267","301604.56047","302371.83673","303139.075431","303906.225192","304673.504156","305440.75758","307745.098888","Mapping"
"Blocked","Female","done","23","F_lash.wav","None","729.813390254","426","299320.541434","306207.908845","306975.102175","307742.338772","308509.814244","309277.148494","295433.884936","296201.082773","300087.199628","300837.320267","301604.56047","302371.83673","303139.075431","303906.225192","304673.504156","305440.75758","308512.768162","Mapping"
"Blocked","Female","done","23","F_done.wav","None","728.630440832","426","299320.541434","306207.908845","306975.102175","307742.338772","308509.814244","309277.148494","310044.348434","296201.082773","300087.199628","300837.320267","301604.56047","302371.83673","303139.075431","303906.225192","304673.504156","305440.75758","309279.999651","Mapping"
"Blocked","Female","done","23","F_knife.wav","space","412.588240455","426","299320.541434","306207.908845","306975.102175","307742.338772","308509.814244","309277.148494","310044.348434","310812.275211","300087.199628","300837.320267","301604.56047","302371.83673","303139.075431","303906.225192","304673.504156","305440.75758","310047.018709","Mapping"
"Blocked","Female","ball","1","F_cling.wav","None","724.406737493","426","313931.245309","306207.908845","306975.102175","307742.338772","308509.814244","309277.148494","310044.348434","310812.275211","300087.199628","300837.320267","301604.56047","302371.83673","303139.075431","303906.225192","304673.504156","305440.75758","310815.717393","Mapping"
"Blocked","Female","ball","1","F_ball.wav","None","727.23806399","426","313931.245309","306207.908845","306975.102175","307742.338772","308509.814244","309277.148494","310044.348434","310812.275211","314697.774601","300837.320267","301604.56047","302371.83673","303139.075431","303906.225192","304673.504156","305440.75758","313934.854251","Mapping"
"Blocked","Female","ball","1","F_priest.wav","space","354.934103978","426","313931.245309","306207.908845","306975.102175","307742.338772","308509.814244","309277.148494","310044.348434","310812.275211","314697.774601","315447.926188","301604.56047","302371.83673","303139.075431","303906.225192","304673.504156","305440.75758","314700.768181","Mapping"
"Blocked","Female","ball","1","F_gnash.wav","None","742.771749353","426","313931.245309","306207.908845","306975.102175","307742.338772","308509.814244","309277.148494","310044.348434","310812.275211","314697.774601","315447.926188","316215.106297","302371.83673","303139.075431","303906.225192","304673.504156","305440.75758","315450.698923","Mapping"
"Blocked","Female","ball","1","F_ball.wav","None","741.843898752","426","313931.245309","306207.908845","306975.102175","307742.338772","308509.814244","309277.148494","310044.348434","310812.275211","314697.774601","315447.926188","316215.106297","316982.439346","303139.075431","303906.225192","304673.504156","305440.75758","316218.020854","Mapping"
"Blocked","Female","ball","1","F_cad.wav","space","306.132106935","426","313931.245309","306207.908845","306975.102175","307742.338772","308509.814244","309277.148494","310044.348434","310812.275211","314697.774601","315447.926188","316215.106297","316982.439346","317750.147681","303906.225192","304673.504156","305440.75758","316985.479799","Mapping"
"Blocked","Female","ball","1","F_knife.wav","None","738.176064459","426","313931.245309","306207.908845","306975.102175","307742.338772","308509.814244","309277.148494","310044.348434","310812.275211","314697.774601","315447.926188","316215.106297","316982.439346","317750.147681","318517.327189","304673.504156","305440.75758","317753.289693","Mapping"
"Blocked","Female","ball","1","F_jaw.wav","None","737.629509976","426","313931.245309","306207.908845","306975.102175","307742.338772","308509.814244","309277.148494","310044.348434","310812.275211","314697.774601","315447.926188","316215.106297","316982.439346","317750.147681","318517.327189","319284.469139","305440.75758","318520.454779","Mapping"
"Blocked","Female","ball","1","F_ball.wav","None","737.047199592","426","313931.245309","306207.908845","306975.102175","307742.338772","308509.814244","309277.148494","310044.348434","310812.275211","314697.774601","315447.926188","316215.106297","316982.439346","317750.147681","318517.327189","319284.469139","320051.639032","319287.602137","Mapping"
"Blocked","Female","ball","1","F_greet.wav","space","414.585763382","426","313931.245309","320818.540606","306975.102175","307742.338772","308509.814244","309277.148494","310044.348434","310812.275211","314697.774601","315447.926188","316215.106297","316982.439346","317750.147681","318517.327189","319284.469139","320051.639032","320055.061984","Mapping"
"Blocked","Female","ball","1","F_greet.wav","None","733.705374983","426","313931.245309","320818.540606","321585.785918","307742.338772","308509.814244","309277.148494","310044.348434","310812.275211","314697.774601","315447.926188","316215.106297","316982.439346","317750.147681","318517.327189","319284.469139","320051.639032","320821.809116","Mapping"
"Blocked","Female","ball","1","F_ball.wav","None","733.251064715","426","313931.245309","320818.540606","321585.785918","322352.957614","308509.814244","309277.148494","310044.348434","310812.275211","314697.774601","315447.926188","316215.106297","316982.439346","317750.147681","318517.327189","319284.469139","320051.639032","321588.464606","Mapping"
"Blocked","Female","ball","1","F_depth.wav","space","315.994125215","426","313931.245309","320818.540606","321585.785918","322352.957614","323120.634099","309277.148494","310044.348434","310812.275211","314697.774601","315447.926188","316215.106297","316982.439346","317750.147681","318517.327189","319284.469139","320051.639032","322355.678968","Mapping"
