"Condition","Talker","Target","Trial","current_stimulus","response_response","response_time_response","subject_nr","time_Audio1","time_Audio10","time_Audio11","time_Audio12","time_Audio13","time_Audio14","time_Audio15","time_Audio16","time_Audio2","time_Audio3","time_Audio4","time_Audio5","time_Audio6","time_Audio7","time_Audio8","time_Audio9","time_response","title"
"Mixed","Both","ball","5","M_jaw.wav","NA","NA","119","201933.552805","NA","NA","NA","NA","NA","NA","NA","NA","NA","NA","NA","NA","NA","NA","NA","NA","Mapping"
"Mixed","Both","ball","5","F_ball.wav","None","715.125340357","119","201933.552805","NA","NA","NA","NA","NA","NA","NA","202683.505888","NA","NA","NA","NA","NA","NA","NA","201948.550488","Mapping"
"Mixed","Both","ball","5","F_done.wav","space","705.527985876","119","201933.552805","NA","NA","NA","NA","NA","NA","NA","202683.505888","203449.992008","NA","NA","NA","NA","NA","NA","202693.525573","Mapping"
"Mixed","Both","ball","5","M_knife.wav","None","731.298808794","119","201933.552805","NA","NA","NA","NA","NA","NA","NA","202683.505888","203449.992008","204216.11083","NA","NA","NA","NA","NA","203459.482698","Mapping"
"Mixed","Both","ball","5","M_cave.wav","None","729.031641706","119","201933.552805","NA","NA","NA","NA","NA","NA","NA","202683.505888","203449.992008","204216.11083","204983.158408","NA","NA","NA","NA","204225.450952","Mapping"
"Mixed","Both","ball","5","F_lash.wav","None","725.418025366","119","201933.552805","NA","NA","NA","NA","NA","NA","NA","202683.505888","203449.992008","204216.11083","204983.158408","205750.113544","NA","NA","NA","204992.724845","Mapping"
"Mixed","Both","ball","5","F_ball.wav","None","721.368165599","119","201933.552805","NA","NA","NA","NA","NA","NA","NA","202683.505888","203449.992008","204216.11083","204983.158408","205750.113544","206516.132194","NA","NA","205760.377167","Mapping"
"Mixed","Both","ball","5","F_bluff.wav","space","433.590987959","119","201933.552805","NA","NA","NA","NA","NA","NA","NA","202683.505888","203449.992008","204216.11083","204983.158408","205750.113544","206516.132194","207266.493385","NA","206525.400279","Mapping"
"Mixed","Both","ball","5","M_ball.wav","None","733.087994071","119","201933.552805","NA","NA","NA","NA","NA","NA","NA","202683.505888","203449.992008","204216.11083","204983.158408","205750.113544","206516.132194","207266.493385","208032.650236","207275.992423","Mapping"
"Mixed","Both","ball","5","M_dime.wav","space","461.276829679","119","201933.552805","208799.788093","NA","NA","NA","NA","NA","NA","202683.505888","203449.992008","204216.11083","204983.158408","205750.113544","206516.132194","207266.493385","208032.650236","208041.720759","Mapping"
"Mixed","Both","ball","5","F_romp.wav","None","728.546858125","119","201933.552805","208799.788093","209566.423543","NA","NA","NA","NA","NA","202683.505888","203449.992008","204216.11083","204983.158408","205750.113544","206516.132194","207266.493385","208032.650236","208808.971155","Mapping"
"Mixed","Both","ball","5","F_done.wav","None","725.288172602","119","201933.552805","208799.788093","209566.423543","210333.555835","NA","NA","NA","NA","202683.505888","203449.992008","204216.11083","204983.158408","205750.113544","206516.132194","207266.493385","208032.650236","209575.884243","Mapping"
"Mixed","Both","ball","5","F_gnash.wav","None","721.401247167","119","201933.552805","208799.788093","209566.423543","210333.555835","211099.749786","NA","NA","NA","202683.505888","203449.992008","204216.11083","204983.158408","205750.113544","206516.132194","207266.493385","208032.650236","210343.479986","Mapping"
"Mixed","Both","ball","5","M_reek.wav","None","720.319450134","119","201933.552805","208799.788093","209566.423543","210333.555835","211099.749786","211849.603006","NA","NA","202683.505888","203449.992008","204216.11083","204983.158408","205750.113544","206516.132194","207266.493385","208032.650236","211108.77146","Mapping"
"Mixed","Both","ball","5","M_ball.wav","None","734.003455931","119","201933.552805","208799.788093","209566.423543","210333.555835","211099.749786","211849.603006","212616.415304","NA","202683.505888","203449.992008","204216.11083","204983.158408","205750.113544","206516.132194","207266.493385","208032.650236","211858.993833","Mapping"
"Mixed","Both","ball","5","M_done.wav","space","372.951611615","119","201933.552805","208799.788093","209566.423543","210333.555835","211099.749786","211849.603006","212616.415304","213383.221418","202683.505888","203449.992008","204216.11083","204983.158408","205750.113544","206516.132194","207266.493385","208032.650236","212625.922689","Mapping"
"Mixed","Both","tile","27","F_dime.wav","None","726.962963818","119","216533.295326","208799.788093","209566.423543","210333.555835","211099.749786","211849.603006","212616.415304","213383.221418","202683.505888","203449.992008","204216.11083","204983.158408","205750.113544","206516.132194","207266.493385","208032.650236","213393.361371","Mapping"
"Mixed","Both","tile","27","M_tile.wav","None","720.147240645","119","216533.295326","208799.788093","209566.423543","210333.555835","211099.749786","211849.603006","212616.415304","213383.221418","217282.262764","203449.992008","204216.11083","204983.158408","205750.113544","206516.132194","207266.493385","208032.650236","216543.254413","Mapping"
"Mixed","Both","tile","27","F_dime.wav","space","491.719568789","119","216533.295326","208799.788093","209566.423543","210333.555835","211099.749786","211849.603006","212616.415304","213383.221418","217282.262764","218049.649506","204216.11083","204983.158408","205750.113544","206516.132194","207266.493385","208032.650236","217291.080075","Mapping"
"Mixed","Both","tile","27","M_tile.wav","None","732.65824336","119","216533.295326","208799.788093","209566.423543","210333.555835","211099.749786","211849.603006","212616.415304","213383.221418","217282.262764","218049.649506","218816.676988","204983.158408","205750.113544","206516.132194","207266.493385","208032.650236","218058.803506","Mapping"
"Mixed","Both","tile","27","M_priest.wav","space","381.132643641","119","216533.295326","208799.788093","209566.423543","210333.555835","211099.749786","211849.603006","212616.415304","213383.221418","217282.262764","218049.649506","218816.676988","219582.906185","205750.113544","206516.132194","207266.493385","208032.650236","218825.678875","Mapping"
"Mixed","Both","tile","27","M_cling.wav","None","726.5826808","119","216533.295326","208799.788093","209566.423543","210333.555835","211099.749786","211849.603006","212616.415304","213383.221418","217282.262764","218049.649506","218816.676988","219582.906185","220350.007868","206516.132194","207266.493385","208032.650236","219592.38358","Mapping"
"Mixed","Both","tile","27","F_depth.wav","None","723.362641933","119","216533.295326","208799.788093","209566.423543","210333.555835","211099.749786","211849.603006","212616.415304","213383.221418","217282.262764","218049.649506","218816.676988","219582.906185","220350.007868","221116.526451","207266.493385","208032.650236","220359.671695","Mapping"
"Mixed","Both","tile","27","F_tile.wav","None","721.741337649","119","216533.295326","208799.788093","209566.423543","210333.555835","211099.749786","211849.603006","212616.415304","213383.221418","217282.262764","218049.649506","218816.676988","219582.906185","220350.007868","221116.526451","221866.548789","208032.650236","221125.685398","Mapping"
"Mixed","Both","tile","27","M_knife.wav","space","458.957412338","119","216533.295326","208799.788093","209566.423543","210333.555835","211099.749786","211849.603006","212616.415304","213383.221418","217282.262764","218049.649506","218816.676988","219582.906185","220350.007868","221116.526451","221866.548789","222632.798701","221875.749474","Mapping"
"Mixed","Both","tile","27","F_lash.wav","None","732.642475516","119","216533.295326","223399.53185","209566.423543","210333.555835","211099.749786","211849.603006","212616.415304","213383.221418","217282.262764","218049.649506","218816.676988","219582.906185","220350.007868","221116.526451","221866.548789","222632.798701","222642.344423","Mapping"
"Mixed","Both","tile","27","M_ball.wav","None","730.145283596","119","216533.295326","223399.53185","224166.074239","210333.555835","211099.749786","211849.603006","212616.415304","213383.221418","217282.262764","218049.649506","218816.676988","219582.906185","220350.007868","221116.526451","221866.548789","222632.798701","223408.735936","Mapping"
"Mixed","Both","tile","27","F_cling.wav","None","727.042112179","119","216533.295326","223399.53185","224166.074239","224932.498524","211099.749786","211849.603006","212616.415304","213383.221418","217282.262764","218049.649506","218816.676988","219582.906185","220350.007868","221116.526451","221866.548789","222632.798701","224175.736211","Mapping"
"Mixed","Both","tile","27","F_tile.wav","None","725.021974504","119","216533.295326","223399.53185","224166.074239","224932.498524","225699.756341","211849.603006","212616.415304","213383.221418","217282.262764","218049.649506","218816.676988","219582.906185","220350.007868","221116.526451","221866.548789","222632.798701","224941.813295","Mapping"
"Mixed","Both","tile","27","F_jaw.wav","space","481.199950649","119","216533.295326","223399.53185","224166.074239","224932.498524","225699.756341","226448.869709","212616.415304","213383.221418","217282.262764","218049.649506","218816.676988","219582.906185","220350.007868","221116.526451","221866.548789","222632.798701","225709.409655","Mapping"
"Mixed","Both","tile","27","M_depth.wav","None","736.135514308","119","216533.295326","223399.53185","224166.074239","224932.498524","225699.756341","226448.869709","227216.129999","213383.221418","217282.262764","218049.649506","218816.676988","219582.906185","220350.007868","221116.526451","221866.548789","222632.798701","226458.066375","Mapping"
"Mixed","Both","tile","27","M_bluff.wav","None","732.780985098","119","216533.295326","223399.53185","224166.074239","224932.498524","225699.756341","226448.869709","227216.129999","227982.662494","217282.262764","218049.649506","218816.676988","219582.906185","220350.007868","221116.526451","221866.548789","222632.798701","227225.416016","Mapping"
"Mixed","Both","ball","1","F_jolt.wav","None","730.004918936","119","231116.581793","223399.53185","224166.074239","224932.498524","225699.756341","226448.869709","227216.129999","227982.662494","217282.262764","218049.649506","218816.676988","219582.906185","220350.007868","221116.526451","221866.548789","222632.798701","227992.140817","Mapping"
"Mixed","Both","ball","1","M_ball.wav","None","720.409110334","119","231116.581793","223399.53185","224166.074239","224932.498524","225699.756341","226448.869709","227216.129999","227982.662494","231865.895815","218049.649506","218816.676988","219582.906185","220350.007868","221116.526451","221866.548789","222632.798701","231125.663447","Mapping"
"Mixed","Both","ball","1","M_reek.wav","space","354.976900126","119","231116.581793","223399.53185","224166.074239","224932.498524","225699.756341","226448.869709","227216.129999","227982.662494","231865.895815","232632.773349","218816.676988","219582.906185","220350.007868","221116.526451","221866.548789","222632.798701","231875.549439","Mapping"
"Mixed","Both","ball","1","M_ball.wav","None","737.291203724","119","231116.581793","223399.53185","224166.074239","224932.498524","225699.756341","226448.869709","227216.129999","227982.662494","231865.895815","232632.773349","233399.325631","219582.906185","220350.007868","221116.526451","221866.548789","222632.798701","232636.67295","Mapping"
"Mixed","Both","ball","1","F_jaw.wav","space","405.883194966","119","231116.581793","223399.53185","224166.074239","224932.498524","225699.756341","226448.869709","227216.129999","227982.662494","231865.895815","232632.773349","233399.325631","234165.919653","220350.007868","221116.526451","221866.548789","222632.798701","233408.589079","Mapping"
"Mixed","Both","ball","1","F_bluff.wav","None","726.142418163","119","231116.581793","223399.53185","224166.074239","224932.498524","225699.756341","226448.869709","227216.129999","227982.662494","231865.895815","232632.773349","233399.325631","234165.919653","234932.824702","221116.526451","221866.548789","222632.798701","234175.306769","Mapping"
"Mixed","Both","ball","1","F_bluff.wav","None","722.491082677","119","231116.581793","223399.53185","224166.074239","224932.498524","225699.756341","226448.869709","227216.129999","227982.662494","231865.895815","232632.773349","233399.325631","234165.919653","234932.824702","235699.79406","221866.548789","222632.798701","234942.612507","Mapping"
"Mixed","Both","ball","1","M_priest.wav","None","719.666785473","119","231116.581793","223399.53185","224166.074239","224932.498524","225699.756341","226448.869709","227216.129999","227982.662494","231865.895815","232632.773349","233399.325631","234165.919653","234932.824702","235699.79406","236448.767991","222632.798701","235709.439336","Mapping"
"Mixed","Both","ball","1","M_greet.wav","None","735.576838342","119","231116.581793","223399.53185","224166.074239","224932.498524","225699.756341","226448.869709","227216.129999","227982.662494","231865.895815","232632.773349","233399.325631","234165.919653","234932.824702","235699.79406","236448.767991","237215.847724","236457.505226","Mapping"
"Mixed","Both","ball","1","M_lash.wav","None","731.543364789","119","231116.581793","237982.133499","224166.074239","224932.498524","225699.756341","226448.869709","227216.129999","227982.662494","231865.895815","232632.773349","233399.325631","234165.919653","234932.824702","235699.79406","236448.767991","237215.847724","237225.473831","Mapping"
"Mixed","Both","ball","1","M_dime.wav","None","729.514570237","119","231116.581793","237982.133499","238749.23982","224932.498524","225699.756341","226448.869709","227216.129999","227982.662494","231865.895815","232632.773349","233399.325631","234165.919653","234932.824702","235699.79406","236448.767991","237215.847724","237991.429101","Mapping"
"Mixed","Both","ball","1","F_park.wav","None","726.053685474","119","231116.581793","237982.133499","238749.23982","239516.311514","225699.756341","226448.869709","227216.129999","227982.662494","231865.895815","232632.773349","233399.325631","234165.919653","234932.824702","235699.79406","236448.767991","237215.847724","238758.777814","Mapping"
"Mixed","Both","ball","1","F_ball.wav","None","722.97030114","119","231116.581793","237982.133499","238749.23982","239516.311514","240282.812784","226448.869709","227216.129999","227982.662494","231865.895815","232632.773349","233399.325631","234165.919653","234932.824702","235699.79406","236448.767991","237215.847724","239525.894028","Mapping"
"Mixed","Both","ball","1","F_dime.wav","space","425.807552674","119","231116.581793","237982.133499","238749.23982","239516.311514","240282.812784","241032.365178","227216.129999","227982.662494","231865.895815","232632.773349","233399.325631","234165.919653","234932.824702","235699.79406","236448.767991","237215.847724","240292.55143","Mapping"
"Mixed","Both","ball","1","F_ball.wav","None","734.395796724","119","231116.581793","237982.133499","238749.23982","239516.311514","240282.812784","241032.365178","241799.055352","227982.662494","231865.895815","232632.773349","233399.325631","234165.919653","234932.824702","235699.79406","236448.767991","237215.847724","241042.03086","Mapping"
"Mixed","Both","ball","1","M_cling.wav","space","446.013876295","119","231116.581793","237982.133499","238749.23982","239516.311514","240282.812784","241032.365178","241799.055352","242565.821892","231865.895815","232632.773349","233399.325631","234165.919653","234932.824702","235699.79406","236448.767991","237215.847724","241808.350954","Mapping"
"Mixed","Both","ball","2","M_bluff.wav","None","728.861287294","119","245699.511475","237982.133499","238749.23982","239516.311514","240282.812784","241032.365178","241799.055352","242565.821892","231865.895815","232632.773349","233399.325631","234165.919653","234932.824702","235699.79406","236448.767991","237215.847724","242575.018558","Mapping"
"Mixed","Both","ball","2","F_ball.wav","None","720.556895132","119","245699.511475","237982.133499","238749.23982","239516.311514","240282.812784","241032.365178","241799.055352","242565.821892","246448.915158","232632.773349","233399.325631","234165.919653","234932.824702","235699.79406","236448.767991","237215.847724","245709.055343","Mapping"
"Mixed","Both","ball","2","F_tile.wav","space","331.618246535","119","245699.511475","237982.133499","238749.23982","239516.311514","240282.812784","241032.365178","241799.055352","242565.821892","246448.915158","247215.757136","233399.325631","234165.919653","234932.824702","235699.79406","236448.767991","237215.847724","246458.619486","Mapping"
"Mixed","Both","ball","2","M_ball.wav","None","731.709390791","119","245699.511475","237982.133499","238749.23982","239516.311514","240282.812784","241032.365178","241799.055352","242565.821892","246448.915158","247215.757136","247982.335698","234165.919653","234932.824702","235699.79406","236448.767991","237215.847724","247225.293892","Mapping"
"Mixed","Both","ball","2","M_depth.wav","space","430.449479114","119","245699.511475","237982.133499","238749.23982","239516.311514","240282.812784","241032.365178","241799.055352","242565.821892","246448.915158","247215.757136","247982.335698","248748.548818","234932.824702","235699.79406","236448.767991","237215.847724","247991.792688","Mapping"
"Mixed","Both","ball","2","F_jaw.wav","None","727.042421349","119","245699.511475","237982.133499","238749.23982","239516.311514","240282.812784","241032.365178","241799.055352","242565.821892","246448.915158","247215.757136","247982.335698","248748.548818","249515.413057","235699.79406","236448.767991","237215.847724","248757.571729","Mapping"
"Mixed","Both","ball","2","M_lash.wav","None","724.294489948","119","245699.511475","237982.133499","238749.23982","239516.311514","240282.812784","241032.365178","241799.055352","242565.821892","246448.915158","247215.757136","247982.335698","248748.548818","249515.413057","250282.697771","236448.767991","237215.847724","249524.304569","Mapping"
"Mixed","Both","ball","2","F_cling.wav","None","720.041812601","119","245699.511475","237982.133499","238749.23982","239516.311514","240282.812784","241032.365178","241799.055352","242565.821892","246448.915158","247215.757136","247982.335698","248748.548818","249515.413057","250282.697771","251031.820724","237215.847724","250292.586058","Mapping"
"Mixed","Both","ball","2","F_greet.wav","None","735.265810101","119","245699.511475","237982.133499","238749.23982","239516.311514","240282.812784","241032.365178","241799.055352","242565.821892","246448.915158","247215.757136","247982.335698","248748.548818","249515.413057","250282.697771","251031.820724","251799.009595","251041.377886","Mapping"
"Mixed","Both","ball","2","F_ball.wav","None","732.461300009","119","245699.511475","252565.652465","238749.23982","239516.311514","240282.812784","241032.365178","241799.055352","242565.821892","246448.915158","247215.757136","247982.335698","248748.548818","249515.413057","250282.697771","251031.820724","251799.009595","251808.206879","Mapping"
"Mixed","Both","ball","2","M_tile.wav","space","398.6176248","119","245699.511475","252565.652465","253331.84889","239516.311514","240282.812784","241032.365178","241799.055352","242565.821892","246448.915158","247215.757136","247982.335698","248748.548818","249515.413057","250282.697771","251031.820724","251799.009595","252575.535187","Mapping"
"Mixed","Both","ball","2","M_bluff.wav","None","727.476500499","119","245699.511475","252565.652465","253331.84889","254099.469984","240282.812784","241032.365178","241799.055352","242565.821892","246448.915158","247215.757136","247982.335698","248748.548818","249515.413057","250282.697771","251031.820724","251799.009595","253340.822642","Mapping"
"Mixed","Both","ball","2","M_gnash.wav","None","722.889297758","119","245699.511475","252565.652465","253331.84889","254099.469984","254866.068025","241032.365178","241799.055352","242565.821892","246448.915158","247215.757136","247982.335698","248748.548818","249515.413057","250282.697771","251031.820724","251799.009595","254109.35487","Mapping"
"Mixed","Both","ball","2","M_ball.wav","None","720.691385475","119","245699.511475","252565.652465","253331.84889","254099.469984","254866.068025","255615.363187","241799.055352","242565.821892","246448.915158","247215.757136","247982.335698","248748.548818","249515.413057","250282.697771","251031.820724","251799.009595","254875.705572","Mapping"
"Mixed","Both","ball","2","F_cave.wav","space","461.96381253","119","245699.511475","252565.652465","253331.84889","254099.469984","254866.068025","255615.363187","256382.200219","242565.821892","246448.915158","247215.757136","247982.335698","248748.548818","249515.413057","250282.697771","251031.820724","251799.009595","255624.179261","Mapping"
"Mixed","Both","ball","2","F_romp.wav","None","732.196338591","119","245699.511475","252565.652465","253331.84889","254099.469984","254866.068025","255615.363187","256382.200219","257148.43529","246448.915158","247215.757136","247982.335698","248748.548818","249515.413057","250282.697771","251031.820724","251799.009595","256391.98957","Mapping"
"Mixed","Both","tile","30","F_jaw.wav","None","731.304373912","119","260282.369738","252565.652465","253331.84889","254099.469984","254866.068025","255615.363187","256382.200219","257148.43529","246448.915158","247215.757136","247982.335698","248748.548818","249515.413057","250282.697771","251031.820724","251799.009595","257157.070807","Mapping"
"Mixed","Both","tile","30","M_knife.wav","None","720.173829526","119","260282.369738","252565.652465","253331.84889","254099.469984","254866.068025","255615.363187","256382.200219","257148.43529","261031.487126","247215.757136","247982.335698","248748.548818","249515.413057","250282.697771","251031.820724","251799.009595","260292.560087","Mapping"
"Mixed","Both","tile","30","F_reek.wav","None","736.493846052","119","260282.369738","252565.652465","253331.84889","254099.469984","254866.068025","255615.363187","256382.200219","257148.43529","261031.487126","261798.950852","247982.335698","248748.548818","249515.413057","250282.697771","251031.820724","251799.009595","261040.532607","Mapping"
"Mixed","Both","tile","30","M_dime.wav","None","733.126949926","119","260282.369738","252565.652465","253331.84889","254099.469984","254866.068025","255615.363187","256382.200219","257148.43529","261031.487126","261798.950852","262565.517666","248748.548818","249515.413057","250282.697771","251031.820724","251799.009595","261807.937898","Mapping"
"Mixed","Both","tile","30","F_reek.wav","None","730.016049201","119","260282.369738","252565.652465","253331.84889","254099.469984","254866.068025","255615.363187","256382.200219","257148.43529","261031.487126","261798.950852","262565.517666","263332.085407","249515.413057","250282.697771","251031.820724","251799.009595","262575.016703","Mapping"
"Mixed","Both","tile","30","M_lash.wav","None","727.765577467","119","260282.369738","252565.652465","253331.84889","254099.469984","254866.068025","255615.363187","256382.200219","257148.43529","261031.487126","261798.950852","262565.517666","263332.085407","264098.69396","250282.697771","251031.820724","251799.009595","263341.46665","Mapping"
"Mixed","Both","tile","30","M_priest.wav","None","724.738153483","119","260282.369738","252565.652465","253331.84889","254099.469984","254866.068025","255615.363187","256382.200219","257148.43529","261031.487126","261798.950852","262565.517666","263332.085407","264098.69396","264865.804609","251031.820724","251799.009595","264108.574826","Mapping"
"Mixed","Both","tile","30","M_tile.wav","None","721.699599264","119","260282.369738","252565.652465","253331.84889","254099.469984","254866.068025","255615.363187","256382.200219","257148.43529","261031.487126","261798.950852","262565.517666","263332.085407","264098.69396","264865.804609","265631.898388","251799.009595","264875.862323","Mapping"
"Mixed","Both","tile","30","F_depth.wav","space","389.009140083","119","260282.369738","252565.652465","253331.84889","254099.469984","254866.068025","255615.363187","256382.200219","257148.43529","261031.487126","261798.950852","262565.517666","263332.085407","264098.69396","264865.804609","265631.898388","266381.575689","265640.929647","Mapping"
"Mixed","Both","tile","30","M_tile.wav","None","734.933139756","119","260282.369738","267148.272356","253331.84889","254099.469984","254866.068025","255615.363187","256382.200219","257148.43529","261031.487126","261798.950852","262565.517666","263332.085407","264098.69396","264865.804609","265631.898388","266381.575689","266390.534291","Mapping"
"Mixed","Both","tile","30","F_bluff.wav","space","488.579296594","119","260282.369738","267148.272356","267915.338794","254099.469984","254866.068025","255615.363187","256382.200219","257148.43529","261031.487126","261798.950852","262565.517666","263332.085407","264098.69396","264865.804609","265631.898388","266381.575689","267157.325565","Mapping"
"Mixed","Both","tile","30","F_tile.wav","None","728.121744993","119","260282.369738","267148.272356","267915.338794","268681.90839","254866.068025","255615.363187","256382.200219","257148.43529","261031.487126","261798.950852","262565.517666","263332.085407","264098.69396","264865.804609","265631.898388","266381.575689","267925.104647","Mapping"
"Mixed","Both","tile","30","M_cad.wav","space","570.964988321","119","260282.369738","267148.272356","267915.338794","268681.90839","269448.340405","255615.363187","256382.200219","257148.43529","261031.487126","261798.950852","262565.517666","263332.085407","264098.69396","264865.804609","265631.898388","266381.575689","268690.885852","Mapping"
"Mixed","Both","tile","30","F_tile.wav","None","723.607507098","119","260282.369738","267148.272356","267915.338794","268681.90839","269448.340405","270215.147137","256382.200219","257148.43529","261031.487126","261798.950852","262565.517666","263332.085407","264098.69396","264865.804609","265631.898388","266381.575689","269457.503989","Mapping"
"Mixed","Both","tile","30","M_priest.wav","space","573.532053386","119","260282.369738","267148.272356","267915.338794","268681.90839","269448.340405","270215.147137","270965.201629","257148.43529","261031.487126","261798.950852","262565.517666","263332.085407","264098.69396","264865.804609","265631.898388","266381.575689","270224.276712","Mapping"
"Mixed","Both","tile","30","F_jolt.wav","None","734.052923654","119","260282.369738","267148.272356","267915.338794","268681.90839","269448.340405","270215.147137","270965.201629","271731.755458","261031.487126","261798.950852","262565.517666","263332.085407","264098.69396","264865.804609","265631.898388","266381.575689","270974.809804","Mapping"
"Mixed","Both","done","42","F_jolt.wav","None","732.40008374","119","274865.64353","267148.272356","267915.338794","268681.90839","269448.340405","270215.147137","270965.201629","271731.755458","261031.487126","261798.950852","262565.517666","263332.085407","264098.69396","264865.804609","265631.898388","266381.575689","271740.763837","Mapping"
"Mixed","Both","done","42","F_bluff.wav","None","720.351604134","119","274865.64353","267148.272356","267915.338794","268681.90839","269448.340405","270215.147137","270965.201629","271731.755458","275614.956315","261798.950852","262565.517666","263332.085407","264098.69396","264865.804609","265631.898388","266381.575689","274875.387742","Mapping"
"Mixed","Both","done","42","F_park.wav","None","735.506037687","119","274865.64353","267148.272356","267915.338794","268681.90839","269448.340405","270215.147137","270965.201629","271731.755458","275614.956315","276381.839414","262565.517666","263332.085407","264098.69396","264865.804609","265631.898388","266381.575689","275624.348379","Mapping"
"Mixed","Both","done","42","M_done.wav","None","732.163566223","119","274865.64353","267148.272356","267915.338794","268681.90839","269448.340405","270215.147137","270965.201629","271731.755458","275614.956315","276381.839414","277148.448584","263332.085407","264098.69396","264865.804609","265631.898388","266381.575689","276391.607122","Mapping"
"Mixed","Both","done","42","M_jolt.wav","space","480.254189839","119","274865.64353","267148.272356","267915.338794","268681.90839","269448.340405","270215.147137","270965.201629","271731.755458","275614.956315","276381.839414","277148.448584","277914.735597","264098.69396","264865.804609","265631.898388","266381.575689","277157.47706","Mapping"
"Mixed","Both","done","42","M_bluff.wav","None","727.736824338","119","274865.64353","267148.272356","267915.338794","268681.90839","269448.340405","270215.147137","270965.201629","271731.755458","275614.956315","276381.839414","277148.448584","277914.735597","278681.72505","264865.804609","265631.898388","266381.575689","277923.743667","Mapping"
"Mixed","Both","done","42","F_done.wav","None","724.825958692","119","274865.64353","267148.272356","267915.338794","268681.90839","269448.340405","270215.147137","270965.201629","271731.755458","275614.956315","276381.839414","277148.448584","277914.735597","278681.72505","279448.829517","265631.898388","266381.575689","278690.84937","Mapping"
"Mixed","Both","done","42","F_cad.wav","space","443.066837353","119","274865.64353","267148.272356","267915.338794","268681.90839","269448.340405","270215.147137","270965.201629","271731.755458","275614.956315","276381.839414","277148.448584","277914.735597","278681.72505","279448.829517","280198.32626","266381.575689","279458.607119","Mapping"
"Mixed","Both","done","42","F_done.wav","None","735.220052477","119","274865.64353","267148.272356","267915.338794","268681.90839","269448.340405","270215.147137","270965.201629","271731.755458","275614.956315","276381.839414","277148.448584","277914.735597","278681.72505","279448.829517","280198.32626","280965.091254","280207.907537","Mapping"
"Mixed","Both","done","42","M_knife.wav","space","550.972612516","119","274865.64353","281731.666725","267915.338794","268681.90839","269448.340405","270215.147137","270965.201629","271731.755458","275614.956315","276381.839414","277148.448584","277914.735597","278681.72505","279448.829517","280198.32626","280965.091254","280974.66944","Mapping"
"Mixed","Both","done","42","F_dime.wav","None","729.6478239","119","274865.64353","281731.666725","282498.024229","268681.90839","269448.340405","270215.147137","270965.201629","271731.755458","275614.956315","276381.839414","277148.448584","277914.735597","278681.72505","279448.829517","280198.32626","280965.091254","281741.227906","Mapping"
"Mixed","Both","done","42","M_done.wav","space","418.548784277","119","274865.64353","281731.666725","282498.024229","283264.70049","269448.340405","270215.147137","270965.201629","271731.755458","275614.956315","276381.839414","277148.448584","277914.735597","278681.72505","279448.829517","280198.32626","280965.091254","282507.070327","Mapping"
"Mixed","Both","done","42","M_depth.wav","None","725.00775251","119","274865.64353","281731.666725","282498.024229","283264.70049","284031.704475","270215.147137","270965.201629","271731.755458","275614.956315","276381.839414","277148.448584","277914.735597","278681.72505","279448.829517","280198.32626","280965.091254","283273.723401","Mapping"
"Mixed","Both","done","42","M_ball.wav","space","0.0293714401778","119","274865.64353","281731.666725","282498.024229","283264.70049","284031.704475","284781.242957","270965.201629","271731.755458","275614.956315","276381.839414","277148.448584","277914.735597","278681.72505","279448.829517","280198.32626","280965.091254","284040.867441","Mapping"
"Mixed","Both","done","42","F_ball.wav","None","736.586288869","119","274865.64353","281731.666725","282498.024229","283264.70049","284031.704475","284781.242957","285548.007332","271731.755458","275614.956315","276381.839414","277148.448584","277914.735597","278681.72505","279448.829517","280198.32626","280965.091254","284790.32832","Mapping"
"Mixed","Both","done","42","M_tile.wav","None","733.840830857","119","274865.64353","281731.666725","282498.024229","283264.70049","284031.704475","284781.242957","285548.007332","286314.665352","275614.956315","276381.839414","277148.448584","277914.735597","278681.72505","279448.829517","280198.32626","280965.091254","285557.279746","Mapping"
"Mixed","Both","done","48","M_jolt.wav","None","731.760713534","119","289448.637211","281731.666725","282498.024229","283264.70049","284031.704475","284781.242957","285548.007332","286314.665352","275614.956315","276381.839414","277148.448584","277914.735597","278681.72505","279448.829517","280198.32626","280965.091254","286323.526566","Mapping"
"Mixed","Both","done","48","M_jolt.wav","None","721.013543953","119","289448.637211","281731.666725","282498.024229","283264.70049","284031.704475","284781.242957","285548.007332","286314.665352","290198.459204","276381.839414","277148.448584","277914.735597","278681.72505","279448.829517","280198.32626","280965.091254","289458.264864","Mapping"
"Mixed","Both","done","48","F_done.wav","None","735.881373956","119","289448.637211","281731.666725","282498.024229","283264.70049","284031.704475","284781.242957","285548.007332","286314.665352","290198.459204","290964.894002","277148.448584","277914.735597","278681.72505","279448.829517","280198.32626","280965.091254","290207.694517","Mapping"
"Mixed","Both","done","48","F_reek.wav","space","511.019087426","119","289448.637211","281731.666725","282498.024229","283264.70049","284031.704475","284781.242957","285548.007332","286314.665352","290198.459204","290964.894002","291731.158753","277914.735597","278681.72505","279448.829517","280198.32626","280965.091254","290974.444671","Mapping"
"Mixed","Both","done","48","F_cling.wav","None","731.428352359","119","289448.637211","281731.666725","282498.024229","283264.70049","284031.704475","284781.242957","285548.007332","286314.665352","290198.459204","290964.894002","291731.158753","292497.860676","278681.72505","279448.829517","280198.32626","280965.091254","291740.038208","Mapping"
"Mixed","Both","done","48","F_priest.wav","None","729.038443533","119","289448.637211","281731.666725","282498.024229","283264.70049","284031.704475","284781.242957","285548.007332","286314.665352","290198.459204","290964.894002","291731.158753","292497.860676","293264.394718","279448.829517","280198.32626","280965.091254","292506.689426","Mapping"
"Mixed","Both","done","48","F_lash.wav","None","726.790754357","119","289448.637211","281731.666725","282498.024229","283264.70049","284031.704475","284781.242957","285548.007332","286314.665352","290198.459204","290964.894002","291731.158753","292497.860676","293264.394718","294031.400558","280198.32626","280965.091254","293273.157614","Mapping"
"Mixed","Both","done","48","M_cling.wav","None","723.920081189","119","289448.637211","281731.666725","282498.024229","283264.70049","284031.704475","284781.242957","285548.007332","286314.665352","290198.459204","290964.894002","291731.158753","292497.860676","293264.394718","294031.400558","294798.612307","280965.091254","294040.372764","Mapping"
"Mixed","Both","done","48","M_cling.wav","None","719.499831961","119","289448.637211","281731.666725","282498.024229","283264.70049","284031.704475","284781.242957","285548.007332","286314.665352","290198.459204","290964.894002","291731.158753","292497.860676","293264.394718","294031.400558","294798.612307","295547.709599","294809.149239","Mapping"
"Mixed","Both","done","48","M_done.wav","None","736.162721587","119","289448.637211","296314.852093","282498.024229","283264.70049","284031.704475","284781.242957","285548.007332","286314.665352","290198.459204","290964.894002","291731.158753","292497.860676","293264.394718","294031.400558","294798.612307","295547.709599","295556.677476","Mapping"
"Mixed","Both","done","48","M_park.wav","space","568.916406686","119","289448.637211","296314.852093","297081.480123","283264.70049","284031.704475","284781.242957","285548.007332","286314.665352","290198.459204","290964.894002","291731.158753","292497.860676","293264.394718","294031.400558","294798.612307","295547.709599","296324.416984","Mapping"
"Mixed","Both","done","48","M_reek.wav","None","729.547960946","119","289448.637211","296314.852093","297081.480123","297847.783831","284031.704475","284781.242957","285548.007332","286314.665352","290198.459204","290964.894002","291731.158753","292497.860676","293264.394718","294031.400558","294798.612307","295547.709599","297091.094792","Mapping"
"Mixed","Both","done","48","M_done.wav","None","731.198327499","119","289448.637211","296314.852093","297081.480123","297847.783831","298614.809458","284781.242957","285548.007332","286314.665352","290198.459204","290964.894002","291731.158753","292497.860676","293264.394718","294031.400558","294798.612307","295547.709599","297856.668541","Mapping"
"Mixed","Both","done","48","F_park.wav","space","548.434300523","119","289448.637211","296314.852093","297081.480123","297847.783831","298614.809458","299381.033399","285548.007332","286314.665352","290198.459204","290964.894002","291731.158753","292497.860676","293264.394718","294031.400558","294798.612307","295547.709599","298624.879229","Mapping"
"Mixed","Both","done","48","F_done.wav","None","725.644649327","119","289448.637211","296314.852093","297081.480123","297847.783831","298614.809458","299381.033399","300148.368508","286314.665352","290198.459204","290964.894002","291731.158753","292497.860676","293264.394718","294031.400558","294798.612307","295547.709599","299390.231302","Mapping"
"Mixed","Both","done","48","F_jolt.wav","space","542.957915663","119","289448.637211","296314.852093","297081.480123","297847.783831","298614.809458","299381.033399","300148.368508","300915.257172","290198.459204","290964.894002","291731.158753","292497.860676","293264.394718","294031.400558","294798.612307","295547.709599","300158.335325","Mapping"
"Mixed","Both","cave","14","M_park.wav","None","718.857988395","119","304031.616051","296314.852093","297081.480123","297847.783831","298614.809458","299381.033399","300148.368508","300915.257172","290198.459204","290964.894002","291731.158753","292497.860676","293264.394718","294031.400558","294798.612307","295547.709599","300925.386923","Mapping"
"Mixed","Both","cave","14","M_park.wav","None","719.064206933","119","304031.616051","296314.852093","297081.480123","297847.783831","298614.809458","299381.033399","300148.368508","300915.257172","304781.216059","290964.894002","291731.158753","292497.860676","293264.394718","294031.400558","294798.612307","295547.709599","304041.639447","Mapping"
"Mixed","Both","cave","14","M_lash.wav","None","734.283876023","119","304031.616051","296314.852093","297081.480123","297847.783831","298614.809458","299381.033399","300148.368508","300915.257172","304781.216059","305547.782873","291731.158753","292497.860676","293264.394718","294031.400558","294798.612307","295547.709599","304790.609668","Mapping"
"Mixed","Both","cave","14","M_cave.wav","None","732.638765447","119","304031.616051","296314.852093","297081.480123","297847.783831","298614.809458","299381.033399","300148.368508","300915.257172","304781.216059","305547.782873","306314.686067","292497.860676","293264.394718","294031.400558","294798.612307","295547.709599","305556.628318","Mapping"
"Mixed","Both","cave","14","M_dime.wav","space","536.94820698","119","304031.616051","296314.852093","297081.480123","297847.783831","298614.809458","299381.033399","300148.368508","300915.257172","304781.216059","305547.782873","306314.686067","307080.887438","293264.394718","294031.400558","294798.612307","295547.709599","306324.213239","Mapping"
"Mixed","Both","cave","14","M_cave.wav","None","727.104565158","119","304031.616051","296314.852093","297081.480123","297847.783831","298614.809458","299381.033399","300148.368508","300915.257172","304781.216059","305547.782873","306314.686067","307080.887438","307847.721687","294031.400558","294798.612307","295547.709599","307089.959508","Mapping"
"Mixed","Both","cave","14","F_bluff.wav","None","724.514930422","119","304031.616051","296314.852093","297081.480123","297847.783831","298614.809458","299381.033399","300148.368508","300915.257172","304781.216059","305547.782873","306314.686067","307080.887438","307847.721687","308614.799255","294798.612307","295547.709599","307856.900421","Mapping"
"Mixed","Both","cave","14","F_jolt.wav","space","0.0355549273081","119","304031.616051","296314.852093","297081.480123","297847.783831","298614.809458","299381.033399","300148.368508","300915.257172","304781.216059","305547.782873","306314.686067","307080.887438","307847.721687","308614.799255","309364.235401","295547.709599","308624.756487","Mapping"
"Mixed","Both","cave","14","M_cling.wav","None","735.600335494","119","304031.616051","296314.852093","297081.480123","297847.783831","298614.809458","299381.033399","300148.368508","300915.257172","304781.216059","305547.782873","306314.686067","307080.887438","307847.721687","308614.799255","309364.235401","310131.221454","309373.696101","Mapping"
"Mixed","Both","cave","14","F_cave.wav","None","733.322965738","119","304031.616051","310897.883493","297081.480123","297847.783831","298614.809458","299381.033399","300148.368508","300915.257172","304781.216059","305547.782873","306314.686067","307080.887438","307847.721687","308614.799255","309364.235401","310131.221454","310140.693902","Mapping"
"Mixed","Both","cave","14","M_priest.wav","space","473.877492594","119","304031.616051","310897.883493","311664.117328","297847.783831","298614.809458","299381.033399","300148.368508","300915.257172","304781.216059","305547.782873","306314.686067","307080.887438","307847.721687","308614.799255","309364.235401","310131.221454","310907.228871","Mapping"
"Mixed","Both","cave","14","F_tile.wav","None","729.546105926","119","304031.616051","310897.883493","311664.117328","312431.264769","298614.809458","299381.033399","300148.368508","300915.257172","304781.216059","305547.782873","306314.686067","307080.887438","307847.721687","308614.799255","309364.235401","310131.221454","311672.821481","Mapping"
"Mixed","Both","cave","14","F_jaw.wav","None","725.997106754","119","304031.616051","310897.883493","311664.117328","312431.264769","313197.611761","299381.033399","300148.368508","300915.257172","304781.216059","305547.782873","306314.686067","307080.887438","307847.721687","308614.799255","309364.235401","310131.221454","312440.724232","Mapping"
"Mixed","Both","cave","14","F_gnash.wav","None","724.341175111","119","304031.616051","310897.883493","311664.117328","312431.264769","313197.611761","313964.268853","300148.368508","300915.257172","304781.216059","305547.782873","306314.686067","307080.887438","307847.721687","308614.799255","309364.235401","310131.221454","313206.78091","Mapping"
"Mixed","Both","cave","14","F_cave.wav","None","722.397403209","119","304031.616051","310897.883493","311664.117328","312431.264769","313197.611761","313964.268853","314714.472057","300915.257172","304781.216059","305547.782873","306314.686067","307080.887438","307847.721687","308614.799255","309364.235401","310131.221454","313973.133467","Mapping"
"Mixed","Both","cave","14","F_tile.wav","space","577.331482811","119","304031.616051","310897.883493","311664.117328","312431.264769","313197.611761","313964.268853","314714.472057","315481.217264","304781.216059","305547.782873","306314.686067","307080.887438","307847.721687","308614.799255","309364.235401","310131.221454","314723.706752","Mapping"
"Mixed","Both","done","39","F_jaw.wav","None","732.771709911","119","318614.750715","310897.883493","311664.117328","312431.264769","313197.611761","313964.268853","314714.472057","315481.217264","304781.216059","305547.782873","306314.686067","307080.887438","307847.721687","308614.799255","309364.235401","310131.221454","315490.648902","Mapping"
"Mixed","Both","done","39","F_done.wav","None","720.047068549","119","318614.750715","310897.883493","311664.117328","312431.264769","313197.611761","313964.268853","314714.472057","315481.217264","319364.350104","305547.782873","306314.686067","307080.887438","307847.721687","308614.799255","309364.235401","310131.221454","318624.459681","Mapping"
"Mixed","Both","done","39","M_cad.wav","space","487.275513209","119","318614.750715","310897.883493","311664.117328","312431.264769","313197.611761","313964.268853","314714.472057","315481.217264","319364.350104","320131.048317","306314.686067","307080.887438","307847.721687","308614.799255","309364.235401","310131.221454","319373.685898","Mapping"
"Mixed","Both","done","39","M_knife.wav","None","732.407503907","119","318614.750715","310897.883493","311664.117328","312431.264769","313197.611761","313964.268853","314714.472057","315481.217264","319364.350104","320131.048317","320897.812692","307080.887438","307847.721687","308614.799255","309364.235401","310131.221454","320140.711834","Mapping"
"Mixed","Both","done","39","M_cling.wav","None","730.48011816","119","318614.750715","310897.883493","311664.117328","312431.264769","313197.611761","313964.268853","314714.472057","315481.217264","319364.350104","320131.048317","320897.812692","321663.83227","307847.721687","308614.799255","309364.235401","310131.221454","320907.066555","Mapping"
"Mixed","Both","done","39","F_knife.wav","None","729.385026672","119","318614.750715","310897.883493","311664.117328","312431.264769","313197.611761","313964.268853","314714.472057","315481.217264","319364.350104","320131.048317","320897.812692","321663.83227","322430.612413","308614.799255","309364.235401","310131.221454","321672.64958","Mapping"
"Mixed","Both","done","39","M_reek.wav","None","726.750561851","119","318614.750715","310897.883493","311664.117328","312431.264769","313197.611761","313964.268853","314714.472057","315481.217264","319364.350104","320131.048317","320897.812692","321663.83227","322430.612413","323197.94845","309364.235401","310131.221454","322439.776307","Mapping"
"Mixed","Both","done","39","F_done.wav","None","723.024097271","119","318614.750715","310897.883493","311664.117328","312431.264769","313197.611761","313964.268853","314714.472057","315481.217264","319364.350104","320131.048317","320897.812692","321663.83227","322430.612413","323197.94845","323964.847316","310131.221454","323207.923924","Mapping"
"Mixed","Both","done","39","F_romp.wav","space","390.324362903","119","318614.750715","310897.883493","311664.117328","312431.264769","313197.611761","313964.268853","314714.472057","315481.217264","319364.350104","320131.048317","320897.812692","321663.83227","322430.612413","323197.94845","323964.847316","324714.102595","323974.543915","Mapping"
"Mixed","Both","done","39","M_done.wav","None","735.494289111","119","318614.750715","325480.532755","311664.117328","312431.264769","313197.611761","313964.268853","314714.472057","315481.217264","319364.350104","320131.048317","320897.812692","321663.83227","322430.612413","323197.94845","323964.847316","324714.102595","324723.468688","Mapping"
"Mixed","Both","done","39","F_depth.wav","space","627.439183329","119","318614.750715","325480.532755","326247.589608","312431.264769","313197.611761","313964.268853","314714.472057","315481.217264","319364.350104","320131.048317","320897.812692","321663.83227","322430.612413","323197.94845","323964.847316","324714.102595","325489.40448","Mapping"
"Mixed","Both","done","39","M_dime.wav","None","730.397878069","119","318614.750715","325480.532755","326247.589608","327013.800873","313197.611761","313964.268853","314714.472057","315481.217264","319364.350104","320131.048317","320897.812692","321663.83227","322430.612413","323197.94845","323964.847316","324714.102595","326256.818119","Mapping"
"Mixed","Both","done","39","F_jaw.wav","None","729.033187585","119","318614.750715","325480.532755","326247.589608","327013.800873","327780.749207","313964.268853","314714.472057","315481.217264","319364.350104","320131.048317","320897.812692","321663.83227","322430.612413","323197.94845","323964.847316","324714.102595","327022.699187","Mapping"
"Mixed","Both","done","39","M_done.wav","None","726.616689848","119","318614.750715","325480.532755","326247.589608","327013.800873","327780.749207","328548.020318","314714.472057","315481.217264","319364.350104","320131.048317","320897.812692","321663.83227","322430.612413","323197.94845","323964.847316","324714.102595","327789.592488","Mapping"
"Mixed","Both","done","39","M_bluff.wav","space","527.197502612","119","318614.750715","325480.532755","326247.589608","327013.800873","327780.749207","328548.020318","329314.593315","315481.217264","319364.350104","320131.048317","320897.812692","321663.83227","322430.612413","323197.94845","323964.847316","324714.102595","328557.617672","Mapping"
"Mixed","Both","done","39","F_bluff.wav","None","719.832193165","119","318614.750715","325480.532755","326247.589608","327013.800873","327780.749207","328548.020318","329314.593315","330063.94351","319364.350104","320131.048317","320897.812692","321663.83227","322430.612413","323197.94845","323964.847316","324714.102595","329324.374318","Mapping"
"Mixed","Both","tile","33","M_depth.wav","None","735.41297653","119","333197.816743","325480.532755","326247.589608","327013.800873","327780.749207","328548.020318","329314.593315","330063.94351","319364.350104","320131.048317","320897.812692","321663.83227","322430.612413","323197.94845","323964.847316","324714.102595","330073.38937","Mapping"
"Mixed","Both","tile","33","F_priest.wav","None","720.441573532","119","333197.816743","325480.532755","326247.589608","327013.800873","327780.749207","328548.020318","329314.593315","330063.94351","333947.479821","320131.048317","320897.812692","321663.83227","322430.612413","323197.94845","323964.847316","324714.102595","333207.666073","Mapping"
"Mixed","Both","tile","33","F_park.wav","None","735.887557414","119","333197.816743","325480.532755","326247.589608","327013.800873","327780.749207","328548.020318","329314.593315","330063.94351","333947.479821","334714.270167","320897.812692","321663.83227","322430.612413","323197.94845","323964.847316","324714.102595","333956.778823","Mapping"
"Mixed","Both","tile","33","M_tile.wav","None","736.020192737","119","333197.816743","325480.532755","326247.589608","327013.800873","327780.749207","328548.020318","329314.593315","330063.94351","333947.479821","334714.270167","335480.330246","321663.83227","322430.612413","323197.94845","323964.847316","324714.102595","334723.225678","Mapping"
"Mixed","Both","tile","33","M_jolt.wav","space","467.413608509","119","333197.816743","325480.532755","326247.589608","327013.800873","327780.749207","328548.020318","329314.593315","330063.94351","333947.479821","334714.270167","335480.330246","336247.435331","322430.612413","323197.94845","323964.847316","324714.102595","335489.253294","Mapping"
"Mixed","Both","tile","33","F_tile.wav","None","723.196306732","119","333197.816743","325480.532755","326247.589608","327013.800873","327780.749207","328548.020318","329314.593315","330063.94351","333947.479821","334714.270167","335480.330246","336247.435331","337014.106336","323197.94845","323964.847316","324714.102595","336264.38637","Mapping"
"Mixed","Both","tile","33","M_romp.wav","space","468.238482601","119","333197.816743","325480.532755","326247.589608","327013.800873","327780.749207","328548.020318","329314.593315","330063.94351","333947.479821","334714.270167","335480.330246","336247.435331","337014.106336","337780.71458","323964.847316","324714.102595","337024.408297","Mapping"
"Mixed","Both","tile","33","M_tile.wav","None","725.193565624","119","333197.816743","325480.532755","326247.589608","327013.800873","327780.749207","328548.020318","329314.593315","330063.94351","333947.479821","334714.270167","335480.330246","336247.435331","337014.106336","337780.71458","338548.045051","324714.102595","337790.60503","Mapping"
"Mixed","Both","tile","33","F_dime.wav","None","722.547970538","119","333197.816743","325480.532755","326247.589608","327013.800873","327780.749207","328548.020318","329314.593315","330063.94351","333947.479821","334714.270167","335480.330246","336247.435331","337014.106336","337780.71458","338548.045051","339313.864903","338557.788336","Mapping"
"Mixed","Both","tile","33","F_cad.wav","space","33.2061291847","119","333197.816743","340080.992866","326247.589608","327013.800873","327780.749207","328548.020318","329314.593315","330063.94351","333947.479821","334714.270167","335480.330246","336247.435331","337014.106336","337780.71458","338548.045051","339313.864903","339323.432268","Mapping"
"Mixed","Both","tile","33","F_bluff.wav","None","718.30147662","119","333197.816743","340080.992866","340830.573396","327013.800873","327780.749207","328548.020318","329314.593315","330063.94351","333947.479821","334714.270167","335480.330246","336247.435331","337014.106336","337780.71458","338548.045051","339313.864903","340091.919666","Mapping"
"Mixed","Both","tile","33","M_bluff.wav","None","734.331179556","119","333197.816743","340080.992866","340830.573396","341597.295415","327780.749207","328548.020318","329314.593315","330063.94351","333947.479821","334714.270167","335480.330246","336247.435331","337014.106336","337780.71458","338548.045051","339313.864903","340840.598955","Mapping"
"Mixed","Both","tile","33","M_done.wav","None","732.806028129","119","333197.816743","340080.992866","340830.573396","341597.295415","342364.201392","328548.020318","329314.593315","330063.94351","333947.479821","334714.270167","335480.330246","336247.435331","337014.106336","337780.71458","338548.045051","339313.864903","341606.796925","Mapping"
"Mixed","Both","tile","33","F_tile.wav","None","730.560503172","119","333197.816743","340080.992866","340830.573396","341597.295415","342364.201392","343130.522104","329314.593315","330063.94351","333947.479821","334714.270167","335480.330246","336247.435331","337014.106336","337780.71458","338548.045051","339313.864903","342373.897991","Mapping"
"Mixed","Both","tile","33","F_jolt.wav","space","464.815316926","119","333197.816743","340080.992866","340830.573396","341597.295415","342364.201392","343130.522104","343897.244741","330063.94351","333947.479821","334714.270167","335480.330246","336247.435331","337014.106336","337780.71458","338548.045051","339313.864903","343139.728663","Mapping"
"Mixed","Both","tile","33","M_cling.wav","None","725.909301575","119","333197.816743","340080.992866","340830.573396","341597.295415","342364.201392","343130.522104","343897.244741","344663.497744","333947.479821","334714.270167","335480.330246","336247.435331","337014.106336","337780.71458","338548.045051","339313.864903","343907.178476","Mapping"
"Mixed","Both","cave","18","M_gnash.wav","None","725.404730882","119","347780.762811","340080.992866","340830.573396","341597.295415","342364.201392","343130.522104","343897.244741","344663.497744","333947.479821","334714.270167","335480.330246","336247.435331","337014.106336","337780.71458","338548.045051","339313.864903","344672.533022","Mapping"
"Mixed","Both","cave","18","M_cling.wav","None","720.255142107","119","347780.762811","340080.992866","340830.573396","341597.295415","342364.201392","343130.522104","343897.244741","344663.497744","348530.028292","334714.270167","335480.330246","336247.435331","337014.106336","337780.71458","338548.045051","339313.864903","347790.874939","Mapping"
"Mixed","Both","cave","18","M_done.wav","None","736.27093219","119","347780.762811","340080.992866","340830.573396","341597.295415","342364.201392","343130.522104","343897.244741","344663.497744","348530.028292","349297.26323","335480.330246","336247.435331","337014.106336","337780.71458","338548.045051","339313.864903","348539.446326","Mapping"
"Mixed","Both","cave","18","F_knife.wav","None","733.14704618","119","347780.762811","340080.992866","340830.573396","341597.295415","342364.201392","343130.522104","343897.244741","344663.497744","348530.028292","349297.26323","350063.683187","336247.435331","337014.106336","337780.71458","338548.045051","339313.864903","349307.089991","Mapping"
"Mixed","Both","cave","18","M_cling.wav","None","731.633643358","119","347780.762811","340080.992866","340830.573396","341597.295415","342364.201392","343130.522104","343897.244741","344663.497744","348530.028292","349297.26323","350063.683187","350830.458383","337014.106336","337780.71458","338548.045051","339313.864903","350073.198919","Mapping"
"Mixed","Both","cave","18","F_cave.wav","None","729.439132003","119","347780.762811","340080.992866","340830.573396","341597.295415","342364.201392","343130.522104","343897.244741","344663.497744","348530.028292","349297.26323","350063.683187","350830.458383","351597.216576","337780.71458","338548.045051","339313.864903","350839.837771","Mapping"
"Mixed","Both","cave","18","M_greet.wav","space","396.01160388","119","347780.762811","340080.992866","340830.573396","341597.295415","342364.201392","343130.522104","343897.244741","344663.497744","348530.028292","349297.26323","350063.683187","350830.458383","351597.216576","352364.378857","338548.045051","339313.864903","351608.402462","Mapping"
"Mixed","Both","cave","18","F_depth.wav","None","721.888504107","119","347780.762811","340080.992866","340830.573396","341597.295415","342364.201392","343130.522104","343897.244741","344663.497744","348530.028292","349297.26323","350063.683187","350830.458383","351597.216576","352364.378857","353130.776863","339313.864903","352375.388824","Mapping"
"Mixed","Both","cave","18","M_cave.wav","None","721.239240374","119","347780.762811","340080.992866","340830.573396","341597.295415","342364.201392","343130.522104","343897.244741","344663.497744","348530.028292","349297.26323","350063.683187","350830.458383","351597.216576","352364.378857","353130.776863","353897.52547","353140.486138","Mapping"
"Mixed","Both","cave","18","F_lash.wav","space","496.432295855","119","347780.762811","354646.602666","340830.573396","341597.295415","342364.201392","343130.522104","343897.244741","344663.497744","348530.028292","349297.26323","350063.683187","350830.458383","351597.216576","352364.378857","353130.776863","353897.52547","353907.9511","Mapping"
"Mixed","Both","cave","18","M_gnash.wav","None","735.405556392","119","347780.762811","354646.602666","355413.29284","341597.295415","342364.201392","343130.522104","343897.244741","344663.497744","348530.028292","349297.26323","350063.683187","350830.458383","351597.216576","352364.378857","353130.776863","353897.52547","354655.887755","Mapping"
"Mixed","Both","cave","18","M_cave.wav","None","732.840964716","119","347780.762811","354646.602666","355413.29284","356180.341037","342364.201392","343130.522104","343897.244741","344663.497744","348530.028292","349297.26323","350063.683187","350830.458383","351597.216576","352364.378857","353130.776863","353897.52547","355423.084664","Mapping"
"Mixed","Both","cave","18","F_done.wav","space","454.244066903","119","347780.762811","354646.602666","355413.29284","356180.341037","356947.022245","343130.522104","343897.244741","344663.497744","348530.028292","349297.26323","350063.683187","350830.458383","351597.216576","352364.378857","353130.776863","353897.52547","356190.058969","Mapping"
"Mixed","Both","cave","18","F_cave.wav","None","727.688284154","119","347780.762811","354646.602666","355413.29284","356180.341037","356947.022245","357713.20723","343897.244741","344663.497744","348530.028292","349297.26323","350063.683187","350830.458383","351597.216576","352364.378857","353130.776863","353897.52547","356956.749761","Mapping"
"Mixed","Both","cave","18","F_done.wav","space","474.2314959","119","347780.762811","354646.602666","355413.29284","356180.341037","356947.022245","357713.20723","358481.221902","344663.497744","348530.028292","349297.26323","350063.683187","350830.458383","351597.216576","352364.378857","353130.776863","353897.52547","357722.08081","Mapping"
"Mixed","Both","cave","18","F_dime.wav","None","720.882145339","119","347780.762811","354646.602666","355413.29284","356180.341037","356947.022245","357713.20723","358481.221902","359246.853467","348530.028292","349297.26323","350063.683187","350830.458383","351597.216576","352364.378857","353130.776863","353897.52547","358491.63671","Mapping"
"Mixed","Both","ball","6","M_cad.wav","None","720.986645902","119","362363.87676","354646.602666","355413.29284","356180.341037","356947.022245","357713.20723","358481.221902","359246.853467","348530.028292","349297.26323","350063.683187","350830.458383","351597.216576","352364.378857","353130.776863","353897.52547","359256.233164","Mapping"
"Mixed","Both","ball","6","M_lash.wav","None","724.393734534","119","362363.87676","354646.602666","355413.29284","356180.341037","356947.022245","357713.20723","358481.221902","359246.853467","363112.961684","349297.26323","350063.683187","350830.458383","351597.216576","352364.378857","353130.776863","353897.52547","362369.446206","Mapping"
"Mixed","Both","ball","6","M_ball.wav","None","736.129949219","119","362363.87676","354646.602666","355413.29284","356180.341037","356947.022245","357713.20723","358481.221902","359246.853467","363112.961684","363880.640285","350063.683187","350830.458383","351597.216576","352364.378857","353130.776863","353897.52547","363122.432278","Mapping"
"Mixed","Both","ball","6","M_romp.wav","space","455.644003116","119","362363.87676","354646.602666","355413.29284","356180.341037","356947.022245","357713.20723","358481.221902","359246.853467","363112.961684","363880.640285","364646.868864","350830.458383","351597.216576","352364.378857","353130.776863","353897.52547","363892.527686","Mapping"
"Mixed","Both","ball","6","F_ball.wav","None","729.639167082","119","362363.87676","354646.602666","355413.29284","356180.341037","356947.022245","357713.20723","358481.221902","359246.853467","363112.961684","363880.640285","364646.868864","365413.639423","351597.216576","352364.378857","353130.776863","353897.52547","364657.089821","Mapping"
"Mixed","Both","ball","6","F_dime.wav","space","524.848404631","119","362363.87676","354646.602666","355413.29284","356180.341037","356947.022245","357713.20723","358481.221902","359246.853467","363112.961684","363880.640285","364646.868864","365413.639423","366179.793491","352364.378857","353130.776863","353897.52547","365423.282844","Mapping"
"Mixed","Both","ball","6","F_romp.wav","None","726.086457842","119","362363.87676","354646.602666","355413.29284","356180.341037","356947.022245","357713.20723","358481.221902","359246.853467","363112.961684","363880.640285","364646.868864","365413.639423","366179.793491","366946.638252","353130.776863","353897.52547","366189.005616","Mapping"
"Mixed","Both","ball","6","F_cave.wav","None","723.976350739","119","362363.87676","354646.602666","355413.29284","356180.341037","356947.022245","357713.20723","358481.221902","359246.853467","363112.961684","363880.640285","364646.868864","365413.639423","366179.793491","366946.638252","367713.368618","353897.52547","366955.914066","Mapping"
"Mixed","Both","ball","6","M_ball.wav","None","720.184032223","119","362363.87676","354646.602666","355413.29284","356180.341037","356947.022245","357713.20723","358481.221902","359246.853467","363112.961684","363880.640285","364646.868864","365413.639423","366179.793491","366946.638252","367713.368618","368479.987683","367724.572437","Mapping"
"Mixed","Both","ball","6","F_depth.wav","space","426.39621842","119","362363.87676","369230.129052","355413.29284","356180.341037","356947.022245","357713.20723","358481.221902","359246.853467","363112.961684","363880.640285","364646.868864","365413.639423","366179.793491","366946.638252","367713.368618","368479.987683","368489.661712","Mapping"
"Mixed","Both","ball","6","F_cave.wav","None","732.923823118","119","362363.87676","369230.129052","369996.783362","356180.341037","356947.022245","357713.20723","358481.221902","359246.853467","363112.961684","363880.640285","364646.868864","365413.639423","366179.793491","366946.638252","367713.368618","368479.987683","369240.03558","Mapping"
"Mixed","Both","ball","6","M_gnash.wav","None","731.073112343","119","362363.87676","369230.129052","369996.783362","370762.977622","356947.022245","357713.20723","358481.221902","359246.853467","363112.961684","363880.640285","364646.868864","365413.639423","366179.793491","366946.638252","367713.368618","368479.987683","370006.602703","Mapping"
"Mixed","Both","ball","6","F_ball.wav","None","730.297087634","119","362363.87676","369230.129052","369996.783362","370762.977622","371529.741689","357713.20723","358481.221902","359246.853467","363112.961684","363880.640285","364646.868864","365413.639423","366179.793491","366946.638252","367713.368618","368479.987683","370772.045054","Mapping"
"Mixed","Both","ball","6","F_jaw.wav","space","425.129226642","119","362363.87676","369230.129052","369996.783362","370762.977622","371529.741689","372296.336947","358481.221902","359246.853467","363112.961684","363880.640285","364646.868864","365413.639423","366179.793491","366946.638252","367713.368618","368479.987683","371538.946084","Mapping"
"Mixed","Both","ball","6","M_park.wav","None","722.99967258","119","362363.87676","369230.129052","369996.783362","370762.977622","371529.741689","372296.336947","373063.089883","359246.853467","363112.961684","363880.640285","364646.868864","365413.639423","366179.793491","366946.638252","367713.368618","368479.987683","372307.989685","Mapping"
"Mixed","Both","ball","6","M_greet.wav","None","722.732546972","119","362363.87676","369230.129052","369996.783362","370762.977622","371529.741689","372296.336947","373063.089883","373829.912074","363112.961684","363880.640285","364646.868864","365413.639423","366179.793491","366946.638252","367713.368618","368479.987683","373073.054226","Mapping"
"Mixed","Both","cave","21","F_lash.wav","None","721.550577786","119","376947.043578","369230.129052","369996.783362","370762.977622","371529.741689","372296.336947","373063.089883","373829.912074","363112.961684","363880.640285","364646.868864","365413.639423","366179.793491","366946.638252","367713.368618","368479.987683","373839.06391","Mapping"
"Mixed","Both","cave","21","F_bluff.wav","None","720.223297249","119","376947.043578","369230.129052","369996.783362","370762.977622","371529.741689","372296.336947","373063.089883","373829.912074","377696.960797","363880.640285","364646.868864","365413.639423","366179.793491","366946.638252","367713.368618","368479.987683","376957.100673","Mapping"
"Mixed","Both","cave","21","M_tile.wav","None","735.532008228","119","376947.043578","369230.129052","369996.783362","370762.977622","371529.741689","372296.336947","373063.089883","373829.912074","377696.960797","378462.891023","364646.868864","365413.639423","366179.793491","366946.638252","367713.368618","368479.987683","377706.550422","Mapping"
"Mixed","Both","cave","21","M_ball.wav","None","734.512973344","119","376947.043578","369230.129052","369996.783362","370762.977622","371529.741689","372296.336947","373063.089883","373829.912074","377696.960797","378462.891023","379229.763609","365413.639423","366179.793491","366946.638252","367713.368618","368479.987683","378472.367182","Mapping"
"Mixed","Both","cave","21","M_cave.wav","None","732.14532499","119","376947.043578","369230.129052","369996.783362","370762.977622","371529.741689","372296.336947","373063.089883","373829.912074","377696.960797","378462.891023","379229.763609","379996.716271","366179.793491","366946.638252","367713.368618","368479.987683","379239.363437","Mapping"
"Mixed","Both","cave","21","F_jolt.wav","space","397.551904782","119","376947.043578","369230.129052","369996.783362","370762.977622","371529.741689","372296.336947","373063.089883","373829.912074","377696.960797","378462.891023","379229.763609","379996.716271","380763.386658","366946.638252","367713.368618","368479.987683","380006.347635","Mapping"
"Mixed","Both","cave","21","M_knife.wav","None","726.491165522","119","376947.043578","369230.129052","369996.783362","370762.977622","371529.741689","372296.336947","373063.089883","373829.912074","377696.960797","378462.891023","379229.763609","379996.716271","380763.386658","381529.929048","367713.368618","368479.987683","380773.462613","Mapping"
"Mixed","Both","cave","21","F_cave.wav","None","725.107924605","119","376947.043578","369230.129052","369996.783362","370762.977622","371529.741689","372296.336947","373063.089883","373829.912074","377696.960797","378462.891023","379229.763609","379996.716271","380763.386658","381529.929048","382297.265703","368479.987683","381539.649453","Mapping"
"Mixed","Both","cave","21","F_reek.wav","space","408.885885146","119","376947.043578","369230.129052","369996.783362","370762.977622","371529.741689","372296.336947","373063.089883","373829.912074","377696.960797","378462.891023","379229.763609","379996.716271","380763.386658","381529.929048","382297.265703","383063.579923","382306.956428","Mapping"
"Mixed","Both","cave","21","F_cave.wav","None","719.762010791","119","376947.043578","383813.009575","369996.783362","370762.977622","371529.741689","372296.336947","373063.089883","373829.912074","377696.960797","378462.891023","379229.763609","379996.716271","380763.386658","381529.929048","382297.265703","383063.579923","383073.626506","Mapping"
"Mixed","Both","cave","21","M_priest.wav","space","565.148822032","119","376947.043578","383813.009575","384579.685218","370762.977622","371529.741689","372296.336947","373063.089883","373829.912074","377696.960797","378462.891023","379229.763609","379996.716271","380763.386658","381529.929048","382297.265703","383063.579923","383822.672165","Mapping"
"Mixed","Both","cave","21","M_cave.wav","None","730.980669556","119","376947.043578","383813.009575","384579.685218","385346.505245","371529.741689","372296.336947","373063.089883","373829.912074","377696.960797","378462.891023","379229.763609","379996.716271","380763.386658","381529.929048","382297.265703","383063.579923","384590.692403","Mapping"
"Mixed","Both","cave","21","F_tile.wav","space","551.277457271","119","376947.043578","383813.009575","384579.685218","385346.505245","386112.737225","372296.336947","373063.089883","373829.912074","377696.960797","378462.891023","379229.763609","379996.716271","380763.386658","381529.929048","382297.265703","383063.579923","385356.516892","Mapping"
"Mixed","Both","cave","21","M_cad.wav","None","728.24696009","119","376947.043578","383813.009575","384579.685218","385346.505245","386112.737225","386879.842619","373063.089883","373829.912074","377696.960797","378462.891023","379229.763609","379996.716271","380763.386658","381529.929048","382297.265703","383063.579923","386121.794144","Mapping"
"Mixed","Both","cave","21","F_ball.wav","space","674.314168806","119","376947.043578","383813.009575","384579.685218","385346.505245","386112.737225","386879.842619","387646.883395","373829.912074","377696.960797","378462.891023","379229.763609","379996.716271","380763.386658","381529.929048","382297.265703","383063.579923","386889.448321","Mapping"
"Mixed","Both","cave","21","M_cling.wav","None","722.117601428","119","376947.043578","383813.009575","384579.685218","385346.505245","386112.737225","386879.842619","387646.883395","388413.751344","377696.960797","378462.891023","379229.763609","379996.716271","380763.386658","381529.929048","382297.265703","383063.579923","387656.680785","Mapping"
"Mixed","Both","tile","26","M_cling.wav","None","719.184166112","119","391530.142996","383813.009575","384579.685218","385346.505245","386112.737225","386879.842619","387646.883395","388413.751344","377696.960797","378462.891023","379229.763609","379996.716271","380763.386658","381529.929048","382297.265703","383063.579923","388424.460794","Mapping"
"Mixed","Both","tile","26","M_ball.wav","None","720.358715102","119","391530.142996","383813.009575","384579.685218","385346.505245","386112.737225","386879.842619","387646.883395","388413.751344","392279.95726","378462.891023","379229.763609","379996.716271","380763.386658","381529.929048","382297.265703","383063.579923","391539.995418","Mapping"
"Mixed","Both","tile","26","F_jaw.wav","None","735.513766995","119","391530.142996","383813.009575","384579.685218","385346.505245","386112.737225","386879.842619","387646.883395","388413.751344","392279.95726","393046.349082","379229.763609","379996.716271","380763.386658","381529.929048","382297.265703","383063.579923","392289.679211","Mapping"
"Mixed","Both","tile","26","M_greet.wav","None","734.366116056","119","391530.142996","383813.009575","384579.685218","385346.505245","386112.737225","386879.842619","387646.883395","388413.751344","392279.95726","393046.349082","393813.031218","379996.716271","380763.386658","381529.929048","382297.265703","383063.579923","393055.837298","Mapping"
"Mixed","Both","tile","26","M_tile.wav","None","732.567346422","119","391530.142996","383813.009575","384579.685218","385346.505245","386112.737225","386879.842619","387646.883395","388413.751344","392279.95726","393046.349082","393813.031218","394579.568351","380763.386658","381529.929048","382297.265703","383063.579923","393822.609094","Mapping"
"Mixed","Both","tile","26","F_greet.wav","space","422.40633833","119","391530.142996","383813.009575","384579.685218","385346.505245","386112.737225","386879.842619","387646.883395","388413.751344","392279.95726","393046.349082","393813.031218","394579.568351","395346.330562","381529.929048","382297.265703","383063.579923","394589.195386","Mapping"
"Mixed","Both","tile","26","F_tile.wav","None","727.708071237","119","391530.142996","383813.009575","384579.685218","385346.505245","386112.737225","386879.842619","387646.883395","388413.751344","392279.95726","393046.349082","393813.031218","394579.568351","395346.330562","396112.958902","382297.265703","383063.579923","395356.081885","Mapping"
"Mixed","Both","tile","26","F_done.wav","space","496.99004431","119","391530.142996","383813.009575","384579.685218","385346.505245","386112.737225","386879.842619","387646.883395","388413.751344","392279.95726","393046.349082","393813.031218","394579.568351","395346.330562","396112.958902","396879.912801","383063.579923","396122.582536","Mapping"
"Mixed","Both","tile","26","F_park.wav","None","721.9126196","119","391530.142996","383813.009575","384579.685218","385346.505245","386112.737225","386879.842619","387646.883395","388413.751344","392279.95726","393046.349082","393813.031218","394579.568351","395346.330562","396112.958902","396879.912801","397646.669138","396890.616995","Mapping"
"Mixed","Both","tile","26","F_romp.wav","None","720.883382019","119","391530.142996","398412.777448","384579.685218","385346.505245","386112.737225","386879.842619","387646.883395","388413.751344","392279.95726","393046.349082","393813.031218","394579.568351","395346.330562","396112.958902","396879.912801","397646.669138","397656.688823","Mapping"
"Mixed","Both","tile","26","M_tile.wav","None","720.728486252","119","391530.142996","398412.777448","399162.706106","385346.505245","386112.737225","386879.842619","387646.883395","388413.751344","392279.95726","393046.349082","393813.031218","394579.568351","395346.330562","396112.958902","396879.912801","397646.669138","398422.184352","Mapping"
"Mixed","Both","tile","26","F_lash.wav","space","487.964660279","119","391530.142996","398412.777448","399162.706106","399929.61703","386112.737225","386879.842619","387646.883395","388413.751344","392279.95726","393046.349082","393813.031218","394579.568351","395346.330562","396112.958902","396879.912801","397646.669138","399171.585561","Mapping"
"Mixed","Both","tile","26","M_gnash.wav","None","732.491289848","119","391530.142996","398412.777448","399162.706106","399929.61703","400696.261756","386879.842619","387646.883395","388413.751344","392279.95726","393046.349082","393813.031218","394579.568351","395346.330562","396112.958902","396879.912801","397646.669138","399939.487075","Mapping"
"Mixed","Both","tile","26","F_tile.wav","None","730.869985535","119","391530.142996","398412.777448","399162.706106","399929.61703","400696.261756","401462.91823","387646.883395","388413.751344","392279.95726","393046.349082","393813.031218","394579.568351","395346.330562","396112.958902","396879.912801","397646.669138","400705.999475","Mapping"
"Mixed","Both","tile","26","M_priest.wav","space","497.805952386","119","391530.142996","398412.777448","399162.706106","399929.61703","400696.261756","401462.91823","402229.555227","388413.751344","392279.95726","393046.349082","393813.031218","394579.568351","395346.330562","396112.958902","396879.912801","397646.669138","401473.686733","Mapping"
"Mixed","Both","tile","26","M_romp.wav","None","726.580825751","119","391530.142996","398412.777448","399162.706106","399929.61703","400696.261756","401462.91823","402229.555227","402996.183875","392279.95726","393046.349082","393813.031218","394579.568351","395346.330562","396112.958902","396879.912801","397646.669138","402239.236676","Mapping"
"Mixed","Both","tile","25","M_gnash.wav","None","724.953956378","119","406129.641888","398412.777448","399162.706106","399929.61703","400696.261756","401462.91823","402229.555227","402996.183875","392279.95726","393046.349082","393813.031218","394579.568351","395346.330562","396112.958902","396879.912801","397646.669138","403005.855431","Mapping"
"Mixed","Both","tile","25","M_gnash.wav","None","720.565242809","119","406129.641888","398412.777448","399162.706106","399929.61703","400696.261756","401462.91823","402229.555227","402996.183875","406895.937557","393046.349082","393813.031218","394579.568351","395346.330562","396112.958902","396879.912801","397646.669138","406139.565729","Mapping"
"Mixed","Both","tile","25","M_tile.wav","None","719.942258846","119","406129.641888","398412.777448","399162.706106","399929.61703","400696.261756","401462.91823","402229.555227","402996.183875","406895.937557","407645.931142","393813.031218","394579.568351","395346.330562","396112.958902","396879.912801","397646.669138","406905.336422","Mapping"
"Mixed","Both","tile","25","M_bluff.wav","space","515.522195084","119","406129.641888","398412.777448","399162.706106","399929.61703","400696.261756","401462.91823","402229.555227","402996.183875","406895.937557","407645.931142","408412.770337","394579.568351","395346.330562","396112.958902","396879.912801","397646.669138","407655.844162","Mapping"
"Mixed","Both","tile","25","F_romp.wav","None","731.698260526","119","406129.641888","398412.777448","399162.706106","399929.61703","400696.261756","401462.91823","402229.555227","402996.183875","406895.937557","407645.931142","408412.770337","409179.41599","395346.330562","396112.958902","396879.912801","397646.669138","408422.38717","Mapping"
"Mixed","Both","tile","25","F_reek.wav","None","729.90567435","119","406129.641888","398412.777448","399162.706106","399929.61703","400696.261756","401462.91823","402229.555227","402996.183875","406895.937557","407645.931142","408412.770337","409179.41599","409946.072774","396112.958902","396879.912801","397646.669138","409189.114754","Mapping"
"Mixed","Both","tile","25","M_tile.wav","None","728.185434651","119","406129.641888","398412.777448","399162.706106","399929.61703","400696.261756","401462.91823","402229.555227","402996.183875","406895.937557","407645.931142","408412.770337","409179.41599","409946.072774","410712.302589","396879.912801","397646.669138","409955.838628","Mapping"
"Mixed","Both","tile","25","M_cave.wav","space","450.113512925","119","406129.641888","398412.777448","399162.706106","399929.61703","400696.261756","401462.91823","402229.555227","402996.183875","406895.937557","407645.931142","408412.770337","409179.41599","409946.072774","410712.302589","411479.386031","397646.669138","410721.217598","Mapping"
"Mixed","Both","tile","25","M_reek.wav","None","724.406719848","119","406129.641888","398412.777448","399162.706106","399929.61703","400696.261756","401462.91823","402229.555227","402996.183875","406895.937557","407645.931142","408412.770337","409179.41599","409946.072774","410712.302589","411479.386031","412245.908325","411488.988333","Mapping"
"Mixed","Both","tile","25","F_done.wav","None","723.37531799","119","406129.641888","413013.142334","399162.706106","399929.61703","400696.261756","401462.91823","402229.555227","402996.183875","406895.937557","407645.931142","408412.770337","409179.41599","409946.072774","410712.302589","411479.386031","412245.908325","412255.057996","Mapping"
"Mixed","Both","tile","25","F_cad.wav","None","720.44961201","119","406129.641888","413013.142334","413779.712858","399929.61703","400696.261756","401462.91823","402229.555227","402996.183875","406895.937557","407645.931142","408412.770337","409179.41599","409946.072774","410712.302589","411479.386031","412245.908325","413022.945598","Mapping"
"Mixed","Both","tile","25","F_knife.wav","None","718.482342956","119","406129.641888","413013.142334","413779.712858","414528.958553","400696.261756","401462.91823","402229.555227","402996.183875","406895.937557","407645.931142","408412.770337","409179.41599","409946.072774","410712.302589","411479.386031","412245.908325","413789.828387","Mapping"
"Mixed","Both","tile","25","F_tile.wav","None","733.571540972","119","406129.641888","413013.142334","413779.712858","414528.958553","415295.893283","401462.91823","402229.555227","402996.183875","406895.937557","407645.931142","408412.770337","409179.41599","409946.072774","410712.302589","411479.386031","412245.908325","414539.902357","Mapping"
"Mixed","Both","tile","25","F_lash.wav","None","732.776965888","119","406129.641888","413013.142334","413779.712858","414528.958553","415295.893283","416062.733406","402229.555227","402996.183875","406895.937557","407645.931142","408412.770337","409179.41599","409946.072774","410712.302589","411479.386031","412245.908325","415305.767348","Mapping"
"Mixed","Both","tile","25","F_tile.wav","space","274.449648568","119","406129.641888","413013.142334","413779.712858","414528.958553","415295.893283","416062.733406","416829.281979","402996.183875","406895.937557","407645.931142","408412.770337","409179.41599","409946.072774","410712.302589","411479.386031","412245.908325","416072.792666","Mapping"
"Mixed","Both","tile","25","M_depth.wav","space","508.306710923","119","406129.641888","413013.142334","413779.712858","414528.958553","415295.893283","416062.733406","416829.281979","417595.556315","406895.937557","407645.931142","408412.770337","409179.41599","409946.072774","410712.302589","411479.386031","412245.908325","416838.910869","Mapping"
"Mixed","Both","cave","20","F_cad.wav","None","726.06419737","119","420729.131814","413013.142334","413779.712858","414528.958553","415295.893283","416062.733406","416829.281979","417595.556315","406895.937557","407645.931142","408412.770337","409179.41599","409946.072774","410712.302589","411479.386031","412245.908325","417604.552328","Mapping"
"Mixed","Both","cave","20","M_cave.wav","None","721.476376231","119","420729.131814","413013.142334","413779.712858","414528.958553","415295.893283","416062.733406","416829.281979","417595.556315","421496.290076","407645.931142","408412.770337","409179.41599","409946.072774","410712.302589","411479.386031","412245.908325","420738.219651","Mapping"
"Mixed","Both","cave","20","M_ball.wav","space","536.546900228","119","420729.131814","413013.142334","413779.712858","414528.958553","415295.893283","416062.733406","416829.281979","417595.556315","421496.290076","422246.001695","408412.770337","409179.41599","409946.072774","410712.302589","411479.386031","412245.908325","421506.626045","Mapping"
"Mixed","Both","cave","20","F_lash.wav","None","732.534264913","119","420729.131814","413013.142334","413779.712858","414528.958553","415295.893283","416062.733406","416829.281979","417595.556315","421496.290076","422246.001695","423012.058992","409179.41599","409946.072774","410712.302589","411479.386031","412245.908325","422255.738796","Mapping"
"Mixed","Both","cave","20","F_cave.wav","None","731.973733869","119","420729.131814","413013.142334","413779.712858","414528.958553","415295.893283","416062.733406","416829.281979","417595.556315","421496.290076","422246.001695","423012.058992","423779.302586","409946.072774","410712.302589","411479.386031","412245.908325","423021.35552","Mapping"
"Mixed","Both","cave","20","M_gnash.wav","space","445.960698533","119","420729.131814","413013.142334","413779.712858","414528.958553","415295.893283","416062.733406","416829.281979","417595.556315","421496.290076","422246.001695","423012.058992","423779.302586","424545.746967","410712.302589","411479.386031","412245.908325","423789.132748","Mapping"
"Mixed","Both","cave","20","F_jaw.wav","None","726.692128112","119","420729.131814","413013.142334","413779.712858","414528.958553","415295.893283","416062.733406","416829.281979","417595.556315","421496.290076","422246.001695","423012.058992","423779.302586","424545.746967","425312.516599","411479.386031","412245.908325","424555.088017","Mapping"
"Mixed","Both","cave","20","M_priest.wav","None","724.788548716","119","420729.131814","413013.142334","413779.712858","414528.958553","415295.893283","416062.733406","416829.281979","417595.556315","421496.290076","422246.001695","423012.058992","423779.302586","424545.746967","425312.516599","426078.939029","412245.908325","425321.978226","Mapping"
"Mixed","Both","cave","20","M_ball.wav","None","723.392631742","119","420729.131814","413013.142334","413779.712858","414528.958553","415295.893283","416062.733406","416829.281979","417595.556315","421496.290076","422246.001695","423012.058992","423779.302586","424545.746967","425312.516599","426078.939029","426846.119861","426088.389217","Mapping"
"Mixed","Both","cave","20","F_gnash.wav","None","721.293036477","119","420729.131814","427612.180868","413779.712858","414528.958553","415295.893283","416062.733406","416829.281979","417595.556315","421496.290076","422246.001695","423012.058992","423779.302586","424545.746967","425312.516599","426078.939029","426846.119861","426856.052359","Mapping"
"Mixed","Both","cave","20","M_cave.wav","None","719.467677933","119","420729.131814","427612.180868","428362.107362","414528.958553","415295.893283","416062.733406","416829.281979","417595.556315","421496.290076","422246.001695","423012.058992","423779.302586","424545.746967","425312.516599","426078.939029","426846.119861","427623.082624","Mapping"
"Mixed","Both","cave","20","M_jolt.wav","space","476.714775024","119","420729.131814","427612.180868","428362.107362","429129.070845","415295.893283","416062.733406","416829.281979","417595.556315","421496.290076","422246.001695","423012.058992","423779.302586","424545.746967","425312.516599","426078.939029","426846.119861","428366.313354","Mapping"
"Mixed","Both","cave","20","F_knife.wav","None","732.765217312","119","420729.131814","427612.180868","428362.107362","429129.070845","429895.660847","416062.733406","416829.281979","417595.556315","421496.290076","422246.001695","423012.058992","423779.302586","424545.746967","425312.516599","426078.939029","426846.119861","429138.85865","Mapping"
"Mixed","Both","cave","20","F_greet.wav","None","732.062775758","119","420729.131814","427612.180868","428362.107362","429129.070845","429895.660847","430662.052978","416829.281979","417595.556315","421496.290076","422246.001695","423012.058992","423779.302586","424545.746967","425312.516599","426078.939029","426846.119861","429905.64003","Mapping"
"Mixed","Both","cave","20","F_cave.wav","None","731.576137128","119","420729.131814","427612.180868","428362.107362","429129.070845","429895.660847","430662.052978","431428.958028","417595.556315","421496.290076","422246.001695","423012.058992","423779.302586","424545.746967","425312.516599","426078.939029","426846.119861","430671.147926","Mapping"
"Mixed","Both","cave","20","M_jolt.wav","space","500.110529421","119","420729.131814","427612.180868","428362.107362","429129.070845","429895.660847","430662.052978","431428.958028","432195.306874","421496.290076","422246.001695","423012.058992","423779.302586","424545.746967","425312.516599","426078.939029","426846.119861","431438.83673","Mapping"
"Mixed","Both","ball","8","F_depth.wav","None","726.163751096","119","435329.305322","427612.180868","428362.107362","429129.070845","429895.660847","430662.052978","431428.958028","432195.306874","421496.290076","422246.001695","423012.058992","423779.302586","424545.746967","425312.516599","426078.939029","426846.119861","432205.055724","Mapping"
"Mixed","Both","ball","8","M_ball.wav","None","720.461669785","119","435329.305322","427612.180868","428362.107362","429129.070845","429895.660847","430662.052978","431428.958028","432195.306874","436096.072789","422246.001695","423012.058992","423779.302586","424545.746967","425312.516599","426078.939029","426846.119861","435339.517931","Mapping"
"Mixed","Both","ball","8","M_cad.wav","None","718.582515081","119","435329.305322","427612.180868","428362.107362","429129.070845","429895.660847","430662.052978","431428.958028","432195.306874","436096.072789","436845.470597","423012.058992","423779.302586","424545.746967","425312.516599","426078.939029","426846.119861","436106.515114","Mapping"
"Mixed","Both","ball","8","F_reek.wav","space","99.6054022107","119","435329.305322","427612.180868","428362.107362","429129.070845","429895.660847","430662.052978","431428.958028","432195.306874","436096.072789","436845.470597","437612.296807","423779.302586","424545.746967","425312.516599","426078.939029","426846.119861","436855.260876","Mapping"
"Mixed","Both","ball","8","M_tile.wav","None","731.509355712","119","435329.305322","427612.180868","428362.107362","429129.070845","429895.660847","430662.052978","431428.958028","432195.306874","436096.072789","436845.470597","437612.296807","438378.872588","424545.746967","425312.516599","426078.939029","426846.119861","437622.259605","Mapping"
"Mixed","Both","ball","8","F_ball.wav","None","730.438379745","119","435329.305322","427612.180868","428362.107362","429129.070845","429895.660847","430662.052978","431428.958028","432195.306874","436096.072789","436845.470597","437612.296807","438378.872588","439145.527516","425312.516599","426078.939029","426846.119861","438388.428204","Mapping"
"Mixed","Both","ball","8","M_cad.wav","space","567.204823834","119","435329.305322","427612.180868","428362.107362","429129.070845","429895.660847","430662.052978","431428.958028","432195.306874","436096.072789","436845.470597","437612.296807","438378.872588","439145.527516","439912.340123","426078.939029","426846.119861","439155.613055","Mapping"
"Mixed","Both","ball","8","F_bluff.wav","None","724.813900888","119","435329.305322","427612.180868","428362.107362","429129.070845","429895.660847","430662.052978","431428.958028","432195.306874","436096.072789","436845.470597","437612.296807","438378.872588","439145.527516","439912.340123","440679.224458","426846.119861","439922.72154","Mapping"
"Mixed","Both","ball","8","M_cave.wav","None","723.742615781","119","435329.305322","427612.180868","428362.107362","429129.070845","429895.660847","430662.052978","431428.958028","432195.306874","436096.072789","436845.470597","437612.296807","438378.872588","439145.527516","439912.340123","440679.224458","441446.036137","440688.943317","Mapping"
"Mixed","Both","ball","8","M_ball.wav","None","721.921276476","119","435329.305322","442212.613154","428362.107362","429129.070845","429895.660847","430662.052978","431428.958028","432195.306874","436096.072789","436845.470597","437612.296807","438378.872588","439145.527516","439912.340123","440679.224458","441446.036137","441455.939573","Mapping"
"Mixed","Both","ball","8","F_jaw.wav","space","500.214102445","119","435329.305322","442212.613154","442961.974788","429129.070845","429895.660847","430662.052978","431428.958028","432195.306874","436096.072789","436845.470597","437612.296807","438378.872588","439145.527516","439912.340123","440679.224458","441446.036137","442222.583062","Mapping"
"Mixed","Both","ball","8","M_lash.wav","None","734.671579208","119","435329.305322","442212.613154","442961.974788","443728.797907","429895.660847","430662.052978","431428.958028","432195.306874","436096.072789","436845.470597","437612.296807","438378.872588","439145.527516","439912.340123","440679.224458","441446.036137","442972.025391","Mapping"
"Mixed","Both","ball","8","F_ball.wav","None","733.418191085","119","435329.305322","442212.613154","442961.974788","443728.797907","444495.167159","430662.052978","431428.958028","432195.306874","436096.072789","436845.470597","437612.296807","438378.872588","439145.527516","439912.340123","440679.224458","441446.036137","443738.419377","Mapping"
"Mixed","Both","ball","8","F_cave.wav","space","506.084064778","119","435329.305322","442212.613154","442961.974788","443728.797907","444495.167159","445262.132497","431428.958028","432195.306874","436096.072789","436845.470597","437612.296807","438378.872588","439145.527516","439912.340123","440679.224458","441446.036137","444504.622912","Mapping"
"Mixed","Both","ball","8","M_cad.wav","None","728.406184353","119","435329.305322","442212.613154","442961.974788","443728.797907","444495.167159","445262.132497","446028.761455","432195.306874","436096.072789","436845.470597","437612.296807","438378.872588","439145.527516","439912.340123","440679.224458","441446.036137","445272.171042","Mapping"
"Mixed","Both","ball","8","F_gnash.wav","None","727.227925265","119","435329.305322","442212.613154","442961.974788","443728.797907","444495.167159","445262.132497","446028.761455","446795.370626","436096.072789","436845.470597","437612.296807","438378.872588","439145.527516","439912.340123","440679.224458","441446.036137","446038.535966","Mapping"
"Mixed","Both","cave","24","F_romp.wav","None","725.964334386","119","449929.102875","442212.613154","442961.974788","443728.797907","444495.167159","445262.132497","446028.761455","446795.370626","436096.072789","436845.470597","437612.296807","438378.872588","439145.527516","439912.340123","440679.224458","441446.036137","446805.121949","Mapping"
"Mixed","Both","cave","24","F_cave.wav","None","724.519568088","119","449929.102875","442212.613154","442961.974788","443728.797907","444495.167159","445262.132497","446028.761455","446795.370626","450695.251378","436845.470597","437612.296807","438378.872588","439145.527516","439912.340123","440679.224458","441446.036137","449934.989224","Mapping"
"Mixed","Both","cave","24","M_cad.wav","space","506.092412514","119","449929.102875","442212.613154","442961.974788","443728.797907","444495.167159","445262.132497","446028.761455","446795.370626","450695.251378","451444.956195","437612.296807","438378.872588","439145.527516","439912.340123","440679.224458","441446.036137","450704.521318","Mapping"
"Mixed","Both","cave","24","F_jaw.wav","None","733.556391497","119","449929.102875","442212.613154","442961.974788","443728.797907","444495.167159","445262.132497","446028.761455","446795.370626","450695.251378","451444.956195","452211.511569","438378.872588","439145.527516","439912.340123","440679.224458","441446.036137","451454.647847","Mapping"
"Mixed","Both","cave","24","F_lash.wav","None","732.922277239","119","449929.102875","442212.613154","442961.974788","443728.797907","444495.167159","445262.132497","446028.761455","446795.370626","450695.251378","451444.956195","452211.511569","452978.238226","439145.527516","439912.340123","440679.224458","441446.036137","452220.644237","Mapping"
"Mixed","Both","cave","24","F_jaw.wav","None","731.117014948","119","449929.102875","442212.613154","442961.974788","443728.797907","444495.167159","445262.132497","446028.761455","446795.370626","450695.251378","451444.956195","452211.511569","452978.238226","453745.051142","439912.340123","440679.224458","441446.036137","452987.567527","Mapping"
"Mixed","Both","cave","24","F_cad.wav","None","729.406668805","119","449929.102875","442212.613154","442961.974788","443728.797907","444495.167159","445262.132497","446028.761455","446795.370626","450695.251378","451444.956195","452211.511569","452978.238226","453745.051142","454511.651347","440679.224458","441446.036137","453754.443515","Mapping"
"Mixed","Both","cave","24","M_gnash.wav","None","728.086808405","119","449929.102875","442212.613154","442961.974788","443728.797907","444495.167159","445262.132497","446028.761455","446795.370626","450695.251378","451444.956195","452211.511569","452978.238226","453745.051142","454511.651347","455278.336574","441446.036137","454520.920977","Mapping"
"Mixed","Both","cave","24","F_cave.wav","None","727.212157391","119","449929.102875","442212.613154","442961.974788","443728.797907","444495.167159","445262.132497","446028.761455","446795.370626","450695.251378","451444.956195","452211.511569","452978.238226","453745.051142","454511.651347","455278.336574","456045.106515","455287.504796","Mapping"
"Mixed","Both","cave","24","F_gnash.wav","space","603.794544528","119","449929.102875","456811.609021","442961.974788","443728.797907","444495.167159","445262.132497","446028.761455","446795.370626","450695.251378","451444.956195","452211.511569","452978.238226","453745.051142","454511.651347","455278.336574","456045.106515","456054.683464","Mapping"
"Mixed","Both","cave","24","M_cave.wav","None","722.633920668","119","449929.102875","456811.609021","457578.80593","443728.797907","444495.167159","445262.132497","446028.761455","446795.370626","450695.251378","451444.956195","452211.511569","452978.238226","453745.051142","454511.651347","455278.336574","456045.106515","456820.828566","Mapping"
"Mixed","Both","cave","24","M_knife.wav","space","556.721997331","119","449929.102875","456811.609021","457578.80593","458328.49065","444495.167159","445262.132497","446028.761455","446795.370626","450695.251378","451444.956195","452211.511569","452978.238226","453745.051142","454511.651347","455278.336574","456045.106515","457589.768902","Mapping"
"Mixed","Both","cave","24","M_jaw.wav","None","734.200399253","119","449929.102875","456811.609021","457578.80593","458328.49065","459094.807962","445262.132497","446028.761455","446795.370626","450695.251378","451444.956195","452211.511569","452978.238226","453745.051142","454511.651347","455278.336574","456045.106515","458337.834174","Mapping"
"Mixed","Both","cave","24","M_cave.wav","None","733.325129899","119","449929.102875","456811.609021","457578.80593","458328.49065","459094.807962","459861.367974","446028.761455","446795.370626","450695.251378","451444.956195","452211.511569","452978.238226","453745.051142","454511.651347","455278.336574","456045.106515","459104.074501","Mapping"
"Mixed","Both","cave","24","M_bluff.wav","space","643.809904228","119","449929.102875","456811.609021","457578.80593","458328.49065","459094.807962","459861.367974","460628.578796","446795.370626","450695.251378","451444.956195","452211.511569","452978.238226","453745.051142","454511.651347","455278.336574","456045.106515","459870.62802","Mapping"
"Mixed","Both","cave","24","M_priest.wav","None","728.065475472","119","449929.102875","456811.609021","457578.80593","458328.49065","459094.807962","459861.367974","460628.578796","461394.594045","450695.251378","451444.956195","452211.511569","452978.238226","453745.051142","454511.651347","455278.336574","456045.106515","460638.12761","Mapping"
