"Condition","Talker","Target","Trial","current_stimulus","response_response","response_time_response","subject_nr","time_Audio1","time_Audio10","time_Audio11","time_Audio12","time_Audio13","time_Audio14","time_Audio15","time_Audio16","time_Audio2","time_Audio3","time_Audio4","time_Audio5","time_Audio6","time_Audio7","time_Audio8","time_Audio9","time_response","title"
"Blocked","Male","done","23","M_cling.wav","NA","NA","337","44488.2184914","NA","NA","NA","NA","NA","NA","NA","NA","NA","NA","NA","NA","NA","NA","NA","NA","Mapping"
"Blocked","Male","done","23","M_lash.wav","None","720.228553284","337","44488.2184914","NA","NA","NA","NA","NA","NA","NA","45254.9646259","NA","NA","NA","NA","NA","NA","NA","44503.067771","Mapping"
"Blocked","Male","done","23","M_done.wav","None","725.699991453","337","44488.2184914","NA","NA","NA","NA","NA","NA","NA","45254.9646259","46021.1613597","NA","NA","NA","NA","NA","NA","45265.2347414","Mapping"
"Blocked","Male","done","23","M_lash.wav","space","584.924158175","337","44488.2184914","NA","NA","NA","NA","NA","NA","NA","45254.9646259","46021.1613597","46788.0682643","NA","NA","NA","NA","NA","46030.4337731","Mapping"
"Blocked","Male","done","23","M_reek.wav","None","724.86893367","337","44488.2184914","NA","NA","NA","NA","NA","NA","NA","45254.9646259","46021.1613597","46788.0682643","47554.7760613","NA","NA","NA","NA","46798.1556584","Mapping"
"Blocked","Male","done","23","M_dime.wav","None","725.817168131","337","44488.2184914","NA","NA","NA","NA","NA","NA","NA","45254.9646259","46021.1613597","46788.0682643","47554.7760613","48321.2192059","NA","NA","NA","47564.9766126","Mapping"
"Blocked","Male","done","23","M_lash.wav","space","364.76810649","337","44488.2184914","NA","NA","NA","NA","NA","NA","NA","45254.9646259","46021.1613597","46788.0682643","47554.7760613","48321.2192059","49088.1619747","NA","NA","48330.5825163","Mapping"
"Blocked","Male","done","23","M_done.wav","None","726.007618941","337","44488.2184914","NA","NA","NA","NA","NA","NA","NA","45254.9646259","46021.1613597","46788.0682643","47554.7760613","48321.2192059","49088.1619747","49855.2098623","NA","49097.4108907","Mapping"
"Blocked","Male","done","23","M_romp.wav","None","722.55353583","337","44488.2184914","NA","NA","NA","NA","NA","NA","NA","45254.9646259","46021.1613597","46788.0682643","47554.7760613","48321.2192059","49088.1619747","49855.2098623","50621.6199254","49865.4165971","Mapping"
"Blocked","Male","done","23","M_dime.wav","None","724.601498805","337","44488.2184914","51388.5187916","NA","NA","NA","NA","NA","NA","45254.9646259","46021.1613597","46788.0682643","47554.7760613","48321.2192059","49088.1619747","49855.2098623","50621.6199254","50631.1684307","Mapping"
"Blocked","Male","done","23","M_done.wav","None","721.711966209","337","44488.2184914","51388.5187916","52155.477637","NA","NA","NA","NA","NA","45254.9646259","46021.1613597","46788.0682643","47554.7760613","48321.2192059","49088.1619747","49855.2098623","50621.6199254","51398.6442136","Mapping"
"Blocked","Male","done","23","M_greet.wav","space","553.264204413","337","44488.2184914","51388.5187916","52155.477637","52922.177705","NA","NA","NA","NA","45254.9646259","46021.1613597","46788.0682643","47554.7760613","48321.2192059","49088.1619747","49855.2098623","50621.6199254","52165.9753039","Mapping"
"Blocked","Male","done","23","M_done.wav","None","719.199006446","337","44488.2184914","51388.5187916","52155.477637","52922.177705","53688.8966318","NA","NA","NA","45254.9646259","46021.1613597","46788.0682643","47554.7760613","48321.2192059","49088.1619747","49855.2098623","50621.6199254","52933.3805959","Mapping"
"Blocked","Male","done","23","M_lash.wav","space","587.763295975","337","44488.2184914","51388.5187916","52155.477637","52922.177705","53688.8966318","54437.9027174","NA","NA","45254.9646259","46021.1613597","46788.0682643","47554.7760613","48321.2192059","49088.1619747","49855.2098623","50621.6199254","53699.4499499","Mapping"
"Blocked","Male","done","23","M_gnash.wav","None","734.409091063","337","44488.2184914","51388.5187916","52155.477637","52922.177705","53688.8966318","54437.9027174","55205.4010704","NA","45254.9646259","46021.1613597","46788.0682643","47554.7760613","48321.2192059","49088.1619747","49855.2098623","50621.6199254","54447.2916895","Mapping"
"Blocked","Male","done","23","M_greet.wav","None","735.024654772","337","44488.2184914","51388.5187916","52155.477637","52922.177705","53688.8966318","54437.9027174","55205.4010704","55971.3096549","45254.9646259","46021.1613597","46788.0682643","47554.7760613","48321.2192059","49088.1619747","49855.2098623","50621.6199254","55215.2324691","Mapping"
"Blocked","Male","done","24","M_knife.wav","None","734.291914385","337","59138.2730762","51388.5187916","52155.477637","52922.177705","53688.8966318","54437.9027174","55205.4010704","55971.3096549","45254.9646259","46021.1613597","46788.0682643","47554.7760613","48321.2192059","49088.1619747","49855.2098623","50621.6199254","55980.6142221","Mapping"
"Blocked","Male","done","24","M_done.wav","None","725.185217801","337","59138.2730762","51388.5187916","52155.477637","52922.177705","53688.8966318","54437.9027174","55205.4010704","55971.3096549","59905.6335376","46021.1613597","46788.0682643","47554.7760613","48321.2192059","49088.1619747","49855.2098623","50621.6199254","59147.9350477","Mapping"
"Blocked","Male","done","24","M_park.wav","space","561.849325895","337","59138.2730762","51388.5187916","52155.477637","52922.177705","53688.8966318","54437.9027174","55205.4010704","55971.3096549","59905.6335376","60672.1045082","46788.0682643","47554.7760613","48321.2192059","49088.1619747","49855.2098623","50621.6199254","59917.2327886","Mapping"
"Blocked","Male","done","24","M_cling.wav","None","722.58136142","337","59138.2730762","51388.5187916","52155.477637","52922.177705","53688.8966318","54437.9027174","55205.4010704","55971.3096549","59905.6335376","60672.1045082","61439.0454218","47554.7760613","48321.2192059","49088.1619747","49855.2098623","50621.6199254","60682.6315462","Mapping"
"Blocked","Male","done","24","M_priest.wav","None","721.186680719","337","59138.2730762","51388.5187916","52155.477637","52922.177705","53688.8966318","54437.9027174","55205.4010704","55971.3096549","59905.6335376","60672.1045082","61439.0454218","62204.9700827","48321.2192059","49088.1619747","49855.2098623","50621.6199254","61449.0592326","Mapping"
"Blocked","Male","done","24","M_done.wav","None","723.976041656","337","59138.2730762","51388.5187916","52155.477637","52922.177705","53688.8966318","54437.9027174","55205.4010704","55971.3096549","59905.6335376","60672.1045082","61439.0454218","62204.9700827","62972.1162873","49088.1619747","49855.2098623","50621.6199254","62214.0270025","Mapping"
"Blocked","Male","done","24","M_park.wav","space","608.474189881","337","59138.2730762","51388.5187916","52155.477637","52922.177705","53688.8966318","54437.9027174","55205.4010704","55971.3096549","59905.6335376","60672.1045082","61439.0454218","62204.9700827","62972.1162873","63721.9188032","49855.2098623","50621.6199254","62982.6120995","Mapping"
"Blocked","Male","done","24","M_depth.wav","None","735.888484865","337","59138.2730762","51388.5187916","52155.477637","52922.177705","53688.8966318","54437.9027174","55205.4010704","55971.3096549","59905.6335376","60672.1045082","61439.0454218","62204.9700827","62972.1162873","63721.9188032","64505.3414307","50621.6199254","63731.3170503","Mapping"
"Blocked","Male","done","24","M_cad.wav","None","720.412201714","337","59138.2730762","51388.5187916","52155.477637","52922.177705","53688.8966318","54437.9027174","55205.4010704","55971.3096549","59905.6335376","60672.1045082","61439.0454218","62204.9700827","62972.1162873","63721.9188032","64505.3414307","65271.0935734","64515.5592961","Mapping"
"Blocked","Male","done","24","M_dime.wav","None","726.92215303","337","59138.2730762","66038.2799706","52155.477637","52922.177705","53688.8966318","54437.9027174","55205.4010704","55971.3096549","59905.6335376","60672.1045082","61439.0454218","62204.9700827","62972.1162873","63721.9188032","64505.3414307","65271.0935734","65280.5453073","Mapping"
"Blocked","Male","done","24","M_lash.wav","None","723.825783469","337","59138.2730762","66038.2799706","66804.7280624","52922.177705","53688.8966318","54437.9027174","55205.4010704","55971.3096549","59905.6335376","60672.1045082","61439.0454218","62204.9700827","62972.1162873","63721.9188032","64505.3414307","65271.0935734","66048.4257983","Mapping"
"Blocked","Male","done","24","M_reek.wav","None","723.076966126","337","59138.2730762","66038.2799706","66804.7280624","67572.0875962","53688.8966318","54437.9027174","55205.4010704","55971.3096549","59905.6335376","60672.1045082","61439.0454218","62204.9700827","62972.1162873","63721.9188032","64505.3414307","65271.0935734","66813.9200904","Mapping"
"Blocked","Male","done","24","M_done.wav","None","719.93916668","337","59138.2730762","66038.2799706","66804.7280624","67572.0875962","68338.3981059","54437.9027174","55205.4010704","55971.3096549","59905.6335376","60672.1045082","61439.0454218","62204.9700827","62972.1162873","63721.9188032","64505.3414307","65271.0935734","67581.9264152","Mapping"
"Blocked","Male","done","24","M_knife.wav","space","586.090050172","337","59138.2730762","66038.2799706","66804.7280624","67572.0875962","68338.3981059","69087.8036427","55205.4010704","55971.3096549","59905.6335376","60672.1045082","61439.0454218","62204.9700827","62972.1162873","63721.9188032","64505.3414307","65271.0935734","68348.8834058","Mapping"
"Blocked","Male","done","24","M_done.wav","None","734.301499091","337","59138.2730762","66038.2799706","66804.7280624","67572.0875962","68338.3981059","69087.8036427","69854.4935081","55971.3096549","59905.6335376","60672.1045082","61439.0454218","62204.9700827","62972.1162873","63721.9188032","64505.3414307","65271.0935734","69097.3722441","Mapping"
"Blocked","Male","done","24","M_reek.wav","None","732.855495531","337","59138.2730762","66038.2799706","66804.7280624","67572.0875962","68338.3981059","69087.8036427","69854.4935081","70621.08722","59905.6335376","60672.1045082","61439.0454218","62204.9700827","62972.1162873","63721.9188032","64505.3414307","65271.0935734","69863.5887653","Mapping"
"Blocked","Male","done","19","M_knife.wav","space","88.9290333726","337","73755.053204","66038.2799706","66804.7280624","67572.0875962","68338.3981059","69087.8036427","69854.4935081","70621.08722","59905.6335376","60672.1045082","61439.0454218","62204.9700827","62972.1162873","63721.9188032","64505.3414307","65271.0935734","70630.0136684","Mapping"
"Blocked","Male","done","19","M_cad.wav","None","720.963767264","337","73755.053204","66038.2799706","66804.7280624","67572.0875962","68338.3981059","69087.8036427","69854.4935081","70621.08722","74521.958563","60672.1045082","61439.0454218","62204.9700827","62972.1162873","63721.9188032","64505.3414307","65271.0935734","73765.2658131","Mapping"
"Blocked","Male","done","19","M_gnash.wav","None","718.759052921","337","73755.053204","66038.2799706","66804.7280624","67572.0875962","68338.3981059","69087.8036427","69854.4935081","70621.08722","74521.958563","75271.2342474","61439.0454218","62204.9700827","62972.1162873","63721.9188032","64505.3414307","65271.0935734","74532.2388811","Mapping"
"Blocked","Male","done","19","M_done.wav","None","734.943960793","337","73755.053204","66038.2799706","66804.7280624","67572.0875962","68338.3981059","69087.8036427","69854.4935081","70621.08722","74521.958563","75271.2342474","76038.0892106","62204.9700827","62972.1162873","63721.9188032","64505.3414307","65271.0935734","75280.8266552","Mapping"
"Blocked","Male","done","19","M_greet.wav","space","479.262362234","337","73755.053204","66038.2799706","66804.7280624","67572.0875962","68338.3981059","69087.8036427","69854.4935081","70621.08722","74521.958563","75271.2342474","76038.0892106","76804.7330091","62972.1162873","63721.9188032","64505.3414307","65271.0935734","76047.5016795","Mapping"
"Blocked","Male","done","19","M_romp.wav","None","730.48475571","337","73755.053204","66038.2799706","66804.7280624","67572.0875962","68338.3981059","69087.8036427","69854.4935081","70621.08722","74521.958563","75271.2342474","76038.0892106","76804.7330091","77571.4364774","63721.9188032","64505.3414307","65271.0935734","76814.3622084","Mapping"
"Blocked","Male","done","19","M_done.wav","None","728.824186604","337","73755.053204","66038.2799706","66804.7280624","67572.0875962","68338.3981059","69087.8036427","69854.4935081","70621.08722","74521.958563","75271.2342474","76038.0892106","76804.7330091","77571.4364774","78337.6712394","64505.3414307","65271.0935734","77580.8730619","Mapping"
"Blocked","Male","done","19","M_jaw.wav","space","676.063779742","337","73755.053204","66038.2799706","66804.7280624","67572.0875962","68338.3981059","69087.8036427","69854.4935081","70621.08722","74521.958563","75271.2342474","76038.0892106","76804.7330091","77571.4364774","78337.6712394","79104.4649868","65271.0935734","78346.7018795","Mapping"
"Blocked","Male","done","19","M_done.wav","None","727.79680416","337","73755.053204","66038.2799706","66804.7280624","67572.0875962","68338.3981059","69087.8036427","69854.4935081","70621.08722","74521.958563","75271.2342474","76038.0892106","76804.7330091","77571.4364774","78337.6712394","79104.4649868","79871.3366454","79114.2469174","Mapping"
"Blocked","Male","done","19","M_depth.wav","None","726.042555179","337","73755.053204","80638.5388104","66804.7280624","67572.0875962","68338.3981059","69087.8036427","69854.4935081","70621.08722","74521.958563","75271.2342474","76038.0892106","76804.7330091","77571.4364774","78337.6712394","79104.4649868","79871.3366454","79880.770138","Mapping"
"Blocked","Male","done","19","M_done.wav","space","0.035245437175","337","73755.053204","80638.5388104","81404.9807186","67572.0875962","68338.3981059","69087.8036427","69854.4935081","70621.08722","74521.958563","75271.2342474","76038.0892106","76804.7330091","77571.4364774","78337.6712394","79104.4649868","79871.3366454","80648.2310812","Mapping"
"Blocked","Male","done","19","M_dime.wav","space","487.458234653","337","73755.053204","80638.5388104","81404.9807186","82171.6603809","68338.3981059","69087.8036427","69854.4935081","70621.08722","74521.958563","75271.2342474","76038.0892106","76804.7330091","77571.4364774","78337.6712394","79104.4649868","79871.3366454","81415.2635098","Mapping"
"Blocked","Male","done","19","M_cad.wav","None","718.459154945","337","73755.053204","80638.5388104","81404.9807186","82171.6603809","82920.8553708","69087.8036427","69854.4935081","70621.08722","74521.958563","75271.2342474","76038.0892106","76804.7330091","77571.4364774","78337.6712394","79104.4649868","79871.3366454","82182.1262026","Mapping"
"Blocked","Male","done","19","M_priest.wav","None","735.084943939","337","73755.053204","80638.5388104","81404.9807186","82171.6603809","82920.8553708","83687.439499","69854.4935081","70621.08722","74521.958563","75271.2342474","76038.0892106","76804.7330091","77571.4364774","78337.6712394","79104.4649868","79871.3366454","82930.4082044","Mapping"
"Blocked","Male","done","19","M_lash.wav","None","733.675423078","337","73755.053204","80638.5388104","81404.9807186","82171.6603809","82920.8553708","83687.439499","84454.253342","70621.08722","74521.958563","75271.2342474","76038.0892106","76804.7330091","77571.4364774","78337.6712394","79104.4649868","79871.3366454","83696.6881058","Mapping"
"Blocked","Male","done","19","M_priest.wav","None","731.501935516","337","73755.053204","80638.5388104","81404.9807186","82171.6603809","82920.8553708","83687.439499","84454.253342","85220.8600393","74521.958563","75271.2342474","76038.0892106","76804.7330091","77571.4364774","78337.6712394","79104.4649868","79871.3366454","84463.4908191","Mapping"
"Blocked","Male","ball","2","M_greet.wav","None","729.634529445","337","88354.9821563","80638.5388104","81404.9807186","82171.6603809","82920.8553708","83687.439499","84454.253342","85220.8600393","74521.958563","75271.2342474","76038.0892106","76804.7330091","77571.4364774","78337.6712394","79104.4649868","79871.3366454","85230.1584235","Mapping"
"Blocked","Male","ball","2","M_ball.wav","None","720.939342398","337","88354.9821563","80638.5388104","81404.9807186","82171.6603809","82920.8553708","83687.439499","84454.253342","85220.8600393","89121.640176","75271.2342474","76038.0892106","76804.7330091","77571.4364774","78337.6712394","79104.4649868","79871.3366454","88365.0738788","Mapping"
"Blocked","Male","ball","2","M_depth.wav","space","442.788890563","337","88354.9821563","80638.5388104","81404.9807186","82171.6603809","82920.8553708","83687.439499","84454.253342","85220.8600393","89121.640176","89888.2753174","76038.0892106","76804.7330091","77571.4364774","78337.6712394","79104.4649868","79871.3366454","89131.7745647","Mapping"
"Blocked","Male","ball","2","M_greet.wav","None","720.016769599","337","88354.9821563","80638.5388104","81404.9807186","82171.6603809","82920.8553708","83687.439499","84454.253342","85220.8600393","89121.640176","89888.2753174","90654.8520252","76804.7330091","77571.4364774","78337.6712394","79104.4649868","79871.3366454","89898.4690672","Mapping"
"Blocked","Male","ball","2","M_ball.wav","None","717.291407753","337","88354.9821563","80638.5388104","81404.9807186","82171.6603809","82920.8553708","83687.439499","84454.253342","85220.8600393","89121.640176","89888.2753174","90654.8520252","91404.2612724","77571.4364774","78337.6712394","79104.4649868","79871.3366454","90666.0410031","Mapping"
"Blocked","Male","ball","2","M_depth.wav","space","344.542923383","337","88354.9821563","80638.5388104","81404.9807186","82171.6603809","82920.8553708","83687.439499","84454.253342","85220.8600393","89121.640176","89888.2753174","90654.8520252","91404.2612724","92171.0964488","78337.6712394","79104.4649868","79871.3366454","91413.989407","Mapping"
"Blocked","Male","ball","2","M_ball.wav","None","732.131412253","337","88354.9821563","80638.5388104","81404.9807186","82171.6603809","82920.8553708","83687.439499","84454.253342","85220.8600393","89121.640176","89888.2753174","90654.8520252","91404.2612724","92171.0964488","92937.8512404","79104.4649868","79871.3366454","92180.7219381","Mapping"
"Blocked","Male","ball","2","M_bluff.wav","space","602.752630599","337","88354.9821563","80638.5388104","81404.9807186","82171.6603809","82920.8553708","83687.439499","84454.253342","85220.8600393","89121.640176","89888.2753174","90654.8520252","91404.2612724","92171.0964488","92937.8512404","93704.0720894","79871.3366454","92947.7574588","Mapping"
"Blocked","Male","ball","2","M_knife.wav","None","732.084417716","337","88354.9821563","80638.5388104","81404.9807186","82171.6603809","82920.8553708","83687.439499","84454.253342","85220.8600393","89121.640176","89888.2753174","90654.8520252","91404.2612724","92171.0964488","92937.8512404","93704.0720894","94471.0649443","93713.219597","Mapping"
"Blocked","Male","ball","2","M_reek.wav","None","729.665447026","337","88354.9821563","95237.7399686","81404.9807186","82171.6603809","82920.8553708","83687.439499","84454.253342","85220.8600393","89121.640176","89888.2753174","90654.8520252","91404.2612724","92171.0964488","92937.8512404","93704.0720894","94471.0649443","94480.5287356","Mapping"
"Blocked","Male","ball","2","M_bluff.wav","None","727.608208079","337","88354.9821563","95237.7399686","96004.4264328","82171.6603809","82920.8553708","83687.439499","84454.253342","85220.8600393","89121.640176","89888.2753174","90654.8520252","91404.2612724","92171.0964488","92937.8512404","93704.0720894","94471.0649443","95247.4606833","Mapping"
"Blocked","Male","ball","2","M_ball.wav","space","479.161262512","337","88354.9821563","95237.7399686","96004.4264328","96770.7431256","82920.8553708","83687.439499","84454.253342","85220.8600393","89121.640176","89888.2753174","90654.8520252","91404.2612724","92171.0964488","92937.8512404","93704.0720894","94471.0649443","96015.3016001","Mapping"
"Blocked","Male","ball","2","M_park.wav","None","725.420189556","337","88354.9821563","95237.7399686","96004.4264328","96770.7431256","97537.5869591","83687.439499","84454.253342","85220.8600393","89121.640176","89888.2753174","90654.8520252","91404.2612724","92171.0964488","92937.8512404","93704.0720894","94471.0649443","96779.7555244","Mapping"
"Blocked","Male","ball","2","M_jaw.wav","None","723.345328588","337","88354.9821563","95237.7399686","96004.4264328","96770.7431256","97537.5869591","98304.7603709","84454.253342","85220.8600393","89121.640176","89888.2753174","90654.8520252","91404.2612724","92171.0964488","92937.8512404","93704.0720894","94471.0649443","97546.9954084","Mapping"
"Blocked","Male","ball","2","M_jaw.wav","None","720.382521395","337","88354.9821563","95237.7399686","96004.4264328","96770.7431256","97537.5869591","98304.7603709","99070.7459394","85220.8600393","89121.640176","89888.2753174","90654.8520252","91404.2612724","92171.0964488","92937.8512404","93704.0720894","94471.0649443","98314.9170196","Mapping"
"Blocked","Male","ball","2","M_knife.wav","None","720.615019556","337","88354.9821563","95237.7399686","96004.4264328","96770.7431256","97537.5869591","98304.7603709","99070.7459394","99820.4346793","89121.640176","89888.2753174","90654.8520252","91404.2612724","92171.0964488","92937.8512404","93704.0720894","94471.0649443","99080.2301364","Mapping"
"Blocked","Male","done","20","M_reek.wav","None","736.28731817","337","102954.83196","95237.7399686","96004.4264328","96770.7431256","97537.5869591","98304.7603709","99070.7459394","99820.4346793","89121.640176","89888.2753174","90654.8520252","91404.2612724","92171.0964488","92937.8512404","93704.0720894","94471.0649443","99829.3901901","Mapping"
"Blocked","Male","done","20","M_reek.wav","None","720.521030948","337","102954.83196","95237.7399686","96004.4264328","96770.7431256","97537.5869591","98304.7603709","99070.7459394","99820.4346793","103721.38517","89888.2753174","90654.8520252","91404.2612724","92171.0964488","92937.8512404","93704.0720894","94471.0649443","102965.148451","Mapping"
"Blocked","Male","done","20","M_priest.wav","None","718.955068383","337","102954.83196","95237.7399686","96004.4264328","96770.7431256","97537.5869591","98304.7603709","99070.7459394","99820.4346793","103721.38517","104470.767829","90654.8520252","91404.2612724","92171.0964488","92937.8512404","93704.0720894","94471.0649443","103731.589741","Mapping"
"Blocked","Male","done","20","M_jolt.wav","None","735.159145202","337","102954.83196","95237.7399686","96004.4264328","96770.7431256","97537.5869591","98304.7603709","99070.7459394","99820.4346793","103721.38517","104470.767829","105254.54446","91404.2612724","92171.0964488","92937.8512404","93704.0720894","94471.0649443","104480.308295","Mapping"
"Blocked","Male","done","20","M_done.wav","None","718.764000107","337","102954.83196","95237.7399686","96004.4264328","96770.7431256","97537.5869591","98304.7603709","99070.7459394","99820.4346793","103721.38517","104470.767829","105254.54446","106003.798193","92171.0964488","92937.8512404","93704.0720894","94471.0649443","105264.821686","Mapping"
"Blocked","Male","done","20","M_jaw.wav","space","633.455384523","337","102954.83196","95237.7399686","96004.4264328","96770.7431256","97537.5869591","98304.7603709","99070.7459394","99820.4346793","103721.38517","104470.767829","105254.54446","106003.798193","106770.826912","92937.8512404","93704.0720894","94471.0649443","106012.78895","Mapping"
"Blocked","Male","done","20","M_gnash.wav","None","732.877756469","337","102954.83196","95237.7399686","96004.4264328","96770.7431256","97537.5869591","98304.7603709","99070.7459394","99820.4346793","103721.38517","104470.767829","105254.54446","106003.798193","106770.826912","107537.382286","93704.0720894","94471.0649443","106780.166106","Mapping"
"Blocked","Male","done","20","M_done.wav","None","736.193020362","337","102954.83196","95237.7399686","96004.4264328","96770.7431256","97537.5869591","98304.7603709","99070.7459394","99820.4346793","103721.38517","104470.767829","105254.54446","106003.798193","106770.826912","107537.382286","108304.163357","94471.0649443","107541.967634","Mapping"
"Blocked","Male","done","20","M_dime.wav","space","660.418379586","337","102954.83196","95237.7399686","96004.4264328","96770.7431256","97537.5869591","98304.7603709","99070.7459394","99820.4346793","103721.38517","104470.767829","105254.54446","106003.798193","106770.826912","107537.382286","108304.163357","109070.408631","108313.815435","Mapping"
"Blocked","Male","done","20","M_knife.wav","None","728.731125593","337","102954.83196","109837.545561","96004.4264328","96770.7431256","97537.5869591","98304.7603709","99070.7459394","99820.4346793","103721.38517","104470.767829","105254.54446","106003.798193","106770.826912","107537.382286","108304.163357","109070.408631","109079.481937","Mapping"
"Blocked","Male","done","20","M_reek.wav","None","725.74729519","337","102954.83196","109837.545561","110604.132162","96770.7431256","97537.5869591","98304.7603709","99070.7459394","99820.4346793","103721.38517","104470.767829","105254.54446","106003.798193","106770.826912","107537.382286","108304.163357","109070.408631","109847.244942","Mapping"
"Blocked","Male","done","20","M_done.wav","None","724.489578046","337","102954.83196","109837.545561","110604.132162","111371.395234","97537.5869591","98304.7603709","99070.7459394","99820.4346793","103721.38517","104470.767829","105254.54446","106003.798193","106770.826912","107537.382286","108304.163357","109070.408631","110613.665827","Mapping"
"Blocked","Male","done","20","M_park.wav","space","631.993304938","337","102954.83196","109837.545561","110604.132162","111371.395234","112137.839306","98304.7603709","99070.7459394","99820.4346793","103721.38517","104470.767829","105254.54446","106003.798193","106770.826912","107537.382286","108304.163357","109070.408631","111382.176103","Mapping"
"Blocked","Male","done","20","M_done.wav","None","719.983378891","337","102954.83196","109837.545561","110604.132162","111371.395234","112137.839306","112887.41798","99070.7459394","99820.4346793","103721.38517","104470.767829","105254.54446","106003.798193","106770.826912","107537.382286","108304.163357","109070.408631","112147.685854","Mapping"
"Blocked","Male","done","20","M_reek.wav","space","732.964943163","337","102954.83196","109837.545561","110604.132162","111371.395234","112137.839306","112887.41798","113653.971809","99820.4346793","103721.38517","104470.767829","105254.54446","106003.798193","106770.826912","107537.382286","108304.163357","109070.408631","112897.173941","Mapping"
"Blocked","Male","done","20","M_depth.wav","None","733.83402871","337","102954.83196","109837.545561","110604.132162","111371.395234","112137.839306","112887.41798","113653.971809","114420.748243","103721.38517","104470.767829","105254.54446","106003.798193","106770.826912","107537.382286","108304.163357","109070.408631","113663.59297","Mapping"
"Blocked","Male","tile","16","M_lash.wav","None","731.897986494","337","117554.337654","109837.545561","110604.132162","111371.395234","112137.839306","112887.41798","113653.971809","114420.748243","103721.38517","104470.767829","105254.54446","106003.798193","106770.826912","107537.382286","108304.163357","109070.408631","114430.618597","Mapping"
"Blocked","Male","tile","16","M_cad.wav","None","721.176787745","337","117554.337654","109837.545561","110604.132162","111371.395234","112137.839306","112887.41798","113653.971809","114420.748243","118320.38382","104470.767829","105254.54446","106003.798193","106770.826912","107537.382286","108304.163357","109070.408631","117564.542843","Mapping"
"Blocked","Male","tile","16","M_depth.wav","None","720.73034104","337","117554.337654","109837.545561","110604.132162","111371.395234","112137.839306","112887.41798","113653.971809","114420.748243","118320.38382","119087.362762","105254.54446","106003.798193","106770.826912","107537.382286","108304.163357","109070.408631","118330.208108","Mapping"
"Blocked","Male","tile","16","M_tile.wav","None","719.428413082","337","117554.337654","109837.545561","110604.132162","111371.395234","112137.839306","112887.41798","113653.971809","114420.748243","118320.38382","119087.362762","119854.323772","106003.798193","106770.826912","107537.382286","108304.163357","109070.408631","119096.989488","Mapping"
"Blocked","Male","tile","16","M_bluff.wav","space","525.673587807","337","117554.337654","109837.545561","110604.132162","111371.395234","112137.839306","112887.41798","113653.971809","114420.748243","118320.38382","119087.362762","119854.323772","120603.684788","106770.826912","107537.382286","108304.163357","109070.408631","119864.345312","Mapping"
"Blocked","Male","tile","16","M_romp.wav","None","736.202295404","337","117554.337654","109837.545561","110604.132162","111371.395234","112137.839306","112887.41798","113653.971809","114420.748243","118320.38382","119087.362762","119854.323772","120603.684788","121370.493685","107537.382286","108304.163357","109070.408631","120612.994612","Mapping"
"Blocked","Male","tile","16","M_tile.wav","None","734.392704908","337","117554.337654","109837.545561","110604.132162","111371.395234","112137.839306","112887.41798","113653.971809","114420.748243","118320.38382","119087.362762","119854.323772","120603.684788","121370.493685","122137.19468","108304.163357","109070.408631","121380.032296","Mapping"
"Blocked","Male","tile","16","M_greet.wav","space","459.288536571","337","117554.337654","109837.545561","110604.132162","111371.395234","112137.839306","112887.41798","113653.971809","114420.748243","118320.38382","119087.362762","119854.323772","120603.684788","121370.493685","122137.19468","122904.011924","109070.408631","122146.690316","Mapping"
"Blocked","Male","tile","16","M_depth.wav","None","730.479191057","337","117554.337654","109837.545561","110604.132162","111371.395234","112137.839306","112887.41798","113653.971809","114420.748243","118320.38382","119087.362762","119854.323772","120603.684788","121370.493685","122137.19468","122904.011924","123670.529889","122913.738822","Mapping"
"Blocked","Male","tile","16","M_dime.wav","None","728.981246706","337","117554.337654","124437.194402","110604.132162","111371.395234","112137.839306","112887.41798","113653.971809","114420.748243","118320.38382","119087.362762","119854.323772","120603.684788","121370.493685","122137.19468","122904.011924","123670.529889","123680.431161","Mapping"
"Blocked","Male","tile","16","M_tile.wav","None","727.708071005","337","117554.337654","124437.194402","125203.909","111371.395234","112137.839306","112887.41798","113653.971809","114420.748243","118320.38382","119087.362762","119854.323772","120603.684788","121370.493685","122137.19468","122904.011924","123670.529889","124446.901513","Mapping"
"Blocked","Male","tile","16","M_knife.wav","space","352.082729805","337","117554.337654","124437.194402","125203.909","125970.241771","112137.839306","112887.41798","113653.971809","114420.748243","118320.38382","119087.362762","119854.323772","120603.684788","121370.493685","122137.19468","122904.011924","123670.529889","125213.854793","Mapping"
"Blocked","Male","tile","16","M_tile.wav","None","725.626098923","337","117554.337654","124437.194402","125203.909","125970.241771","126737.013876","112887.41798","113653.971809","114420.748243","118320.38382","119087.362762","119854.323772","120603.684788","121370.493685","122137.19468","122904.011924","123670.529889","125979.307347","Mapping"
"Blocked","Male","tile","16","M_priest.wav","None","724.101874977","337","117554.337654","124437.194402","125203.909","125970.241771","126737.013876","127504.190688","113653.971809","114420.748243","118320.38382","119087.362762","119854.323772","120603.684788","121370.493685","122137.19468","122904.011924","123670.529889","126746.067085","Mapping"
"Blocked","Male","tile","16","M_depth.wav","space","3.83776705712","337","117554.337654","124437.194402","125203.909","125970.241771","126737.013876","127504.190688","128270.230362","114420.748243","118320.38382","119087.362762","119854.323772","120603.684788","121370.493685","122137.19468","122904.011924","123670.529889","127514.105564","Mapping"
"Blocked","Male","tile","16","M_depth.wav","None","720.283586066","337","117554.337654","124437.194402","125203.909","125970.241771","126737.013876","127504.190688","128270.230362","129036.779244","118320.38382","119087.362762","119854.323772","120603.684788","121370.493685","122137.19468","122904.011924","123670.529889","128279.718888","Mapping"
"Blocked","Male","done","22","M_cling.wav","None","723.019459751","337","132154.292267","124437.194402","125203.909","125970.241771","126737.013876","127504.190688","128270.230362","129036.779244","118320.38382","119087.362762","119854.323772","120603.684788","121370.493685","122137.19468","122904.011924","123670.529889","129046.020431","Mapping"
"Blocked","Male","done","22","M_done.wav","None","720.739616547","337","132154.292267","124437.194402","125203.909","125970.241771","126737.013876","127504.190688","128270.230362","129036.779244","132920.234551","119087.362762","119854.323772","120603.684788","121370.493685","122137.19468","122904.011924","123670.529889","132164.6607","Mapping"
"Blocked","Male","done","22","M_knife.wav","space","484.393400606","337","132154.292267","124437.194402","125203.909","125970.241771","126737.013876","127504.190688","128270.230362","129036.779244","132920.234551","133669.883408","119854.323772","120603.684788","121370.493685","122137.19468","122904.011924","123670.529889","132929.399991","Mapping"
"Blocked","Male","done","22","M_done.wav","None","736.32009048","337","132154.292267","124437.194402","125203.909","125970.241771","126737.013876","127504.190688","128270.230362","129036.779244","132920.234551","133669.883408","134436.861113","120603.684788","121370.493685","122137.19468","122904.011924","123670.529889","133678.877566","Mapping"
"Blocked","Male","done","22","M_reek.wav","space","487.085062545","337","132154.292267","124437.194402","125203.909","125970.241771","126737.013876","127504.190688","128270.230362","129036.779244","132920.234551","133669.883408","134436.861113","135203.700309","121370.493685","122137.19468","122904.011924","123670.529889","134446.673961","Mapping"
"Blocked","Male","done","22","M_done.wav","None","731.159990188","337","132154.292267","124437.194402","125203.909","125970.241771","126737.013876","127504.190688","128270.230362","129036.779244","132920.234551","133669.883408","134436.861113","135203.700309","135970.34658","122137.19468","122904.011924","123670.529889","135214.096257","Mapping"
"Blocked","Male","done","22","M_jaw.wav","space","449.859681539","337","132154.292267","124437.194402","125203.909","125970.241771","126737.013876","127504.190688","128270.230362","129036.779244","132920.234551","133669.883408","134436.861113","135203.700309","135970.34658","136736.888042","122904.011924","123670.529889","135979.89694","Mapping"
"Blocked","Male","done","22","M_jolt.wav","None","727.966230828","337","132154.292267","124437.194402","125203.909","125970.241771","126737.013876","127504.190688","128270.230362","129036.779244","132920.234551","133669.883408","134436.861113","135203.700309","135970.34658","136736.888042","137503.695084","123670.529889","136746.745721","Mapping"
"Blocked","Male","done","22","M_jaw.wav","None","726.847023703","337","132154.292267","124437.194402","125203.909","125970.241771","126737.013876","127504.190688","128270.230362","129036.779244","132920.234551","133669.883408","134436.861113","135203.700309","135970.34658","136736.888042","137503.695084","138270.322496","137513.485362","Mapping"
"Blocked","Male","done","22","M_cad.wav","None","725.623006932","337","132154.292267","139036.453376","125203.909","125970.241771","126737.013876","127504.190688","128270.230362","129036.779244","132920.234551","133669.883408","134436.861113","135203.700309","135970.34658","136736.888042","137503.695084","138270.322496","138279.858015","Mapping"
"Blocked","Male","done","22","M_jaw.wav","None","725.112253334","337","132154.292267","139036.453376","139803.647811","125970.241771","126737.013876","127504.190688","128270.230362","129036.779244","132920.234551","133669.883408","134436.861113","135203.700309","135970.34658","136736.888042","137503.695084","138270.322496","139045.622525","Mapping"
"Blocked","Male","done","22","M_park.wav","None","722.94927761","337","132154.292267","139036.453376","139803.647811","140570.470002","126737.013876","127504.190688","128270.230362","129036.779244","132920.234551","133669.883408","134436.861113","135203.700309","135970.34658","136736.888042","137503.695084","138270.322496","139812.891162","Mapping"
"Blocked","Male","done","22","M_lash.wav","None","720.078295097","337","132154.292267","139036.453376","139803.647811","140570.470002","141337.303323","127504.190688","128270.230362","129036.779244","132920.234551","133669.883408","134436.861113","135203.700309","135970.34658","136736.888042","137503.695084","138270.322496","140580.989002","Mapping"
"Blocked","Male","done","22","M_done.wav","None","719.265478663","337","132154.292267","139036.453376","139803.647811","140570.470002","141337.303323","142103.364639","128270.230362","129036.779244","132920.234551","133669.883408","134436.861113","135203.700309","135970.34658","136736.888042","137503.695084","138270.322496","141347.626926","Mapping"
"Blocked","Male","done","22","M_greet.wav","space","572.934112512","337","132154.292267","139036.453376","139803.647811","140570.470002","141337.303323","142103.364639","142852.994636","129036.779244","132920.234551","133669.883408","134436.861113","135203.700309","135970.34658","136736.888042","137503.695084","138270.322496","142112.698578","Mapping"
"Blocked","Male","done","22","M_knife.wav","None","735.713802278","337","132154.292267","139036.453376","139803.647811","140570.470002","141337.303323","142103.364639","142852.994636","143620.191854","132920.234551","133669.883408","134436.861113","135203.700309","135970.34658","136736.888042","137503.695084","138270.322496","142862.344961","Mapping"
"Blocked","Male","ball","4","M_romp.wav","None","733.443543315","337","146753.900297","139036.453376","139803.647811","140570.470002","141337.303323","142103.364639","142852.994636","143620.191854","132920.234551","133669.883408","134436.861113","135203.700309","135970.34658","136736.888042","137503.695084","138270.322496","143629.74778","Mapping"
"Blocked","Male","ball","4","M_knife.wav","None","720.926975366","337","146753.900297","139036.453376","139803.647811","140570.470002","141337.303323","142103.364639","142852.994636","143620.191854","147520.49741","133669.883408","134436.861113","135203.700309","135970.34658","136736.888042","137503.695084","138270.322496","146764.048907","Mapping"
"Blocked","Male","ball","4","M_priest.wav","None","719.99852825","337","146753.900297","139036.453376","139803.647811","140570.470002","141337.303323","142103.364639","142852.994636","143620.191854","147520.49741","148270.479865","134436.861113","135203.700309","135970.34658","136736.888042","137503.695084","138270.322496","147530.263264","Mapping"
"Blocked","Male","ball","4","M_romp.wav","None","735.557669774","337","146753.900297","139036.453376","139803.647811","140570.470002","141337.303323","142103.364639","142852.994636","143620.191854","147520.49741","148270.479865","149036.628677","135203.700309","135970.34658","136736.888042","137503.695084","138270.322496","148280.045374","Mapping"
"Blocked","Male","ball","4","M_ball.wav","None","734.183085617","337","146753.900297","139036.453376","139803.647811","140570.470002","141337.303323","142103.364639","142852.994636","143620.191854","147520.49741","148270.479865","149036.628677","149803.404183","135970.34658","136736.888042","137503.695084","138270.322496","149046.685153","Mapping"
"Blocked","Male","ball","4","M_bluff.wav","space","440.362190362","337","146753.900297","139036.453376","139803.647811","140570.470002","141337.303323","142103.364639","142852.994636","143620.191854","147520.49741","148270.479865","149036.628677","149803.404183","150569.639563","136736.888042","137503.695084","138270.322496","149813.137573","Mapping"
"Blocked","Male","ball","4","M_ball.wav","None","731.825639959","337","146753.900297","139036.453376","139803.647811","140570.470002","141337.303323","142103.364639","142852.994636","143620.191854","147520.49741","148270.479865","149036.628677","149803.404183","150569.639563","151336.349524","137503.695084","138270.322496","150578.84334","Mapping"
"Blocked","Male","ball","4","M_greet.wav","space","587.853264995","337","146753.900297","139036.453376","139803.647811","140570.470002","141337.303323","142103.364639","142852.994636","143620.191854","147520.49741","148270.479865","149036.628677","149803.404183","150569.639563","151336.349524","152103.374224","138270.322496","151345.629049","Mapping"
"Blocked","Male","ball","4","M_ball.wav","None","728.428754024","337","146753.900297","139036.453376","139803.647811","140570.470002","141337.303323","142103.364639","142852.994636","143620.191854","147520.49741","148270.479865","149036.628677","149803.404183","150569.639563","151336.349524","152103.374224","152870.027915","152113.260655","Mapping"
"Blocked","Male","ball","4","M_bluff.wav","space","470.382289495","337","146753.900297","153636.62812","139803.647811","140570.470002","141337.303323","142103.364639","142852.994636","143620.191854","147520.49741","148270.479865","149036.628677","149803.404183","150569.639563","151336.349524","152103.374224","152870.027915","152879.050208","Mapping"
"Blocked","Male","ball","4","M_priest.wav","None","725.024447776","337","146753.900297","153636.62812","154403.758866","140570.470002","141337.303323","142103.364639","142852.994636","143620.191854","147520.49741","148270.479865","149036.628677","149803.404183","150569.639563","151336.349524","152103.374224","152870.027915","153646.385008","Mapping"
"Blocked","Male","ball","4","M_bluff.wav","None","722.803038545","337","146753.900297","153636.62812","154403.758866","155170.498199","141337.303323","142103.364639","142852.994636","143620.191854","147520.49741","148270.479865","149036.628677","149803.404183","150569.639563","151336.349524","152103.374224","152870.027915","154413.902839","Mapping"
"Blocked","Male","ball","4","M_ball.wav","None","721.348069143","337","146753.900297","153636.62812","154403.758866","155170.498199","155937.070578","142103.364639","142852.994636","143620.191854","147520.49741","148270.479865","149036.628677","149803.404183","150569.639563","151336.349524","152103.374224","152870.027915","155180.571062","Mapping"
"Blocked","Male","ball","4","M_gnash.wav","space","482.345437165","337","146753.900297","153636.62812","154403.758866","155170.498199","155937.070578","156686.78467","142852.994636","143620.191854","147520.49741","148270.479865","149036.628677","149803.404183","150569.639563","151336.349524","152103.374224","152870.027915","155947.035849","Mapping"
"Blocked","Male","ball","4","M_dime.wav","None","735.613629688","337","146753.900297","153636.62812","154403.758866","155170.498199","155937.070578","156686.78467","157452.965945","143620.191854","147520.49741","148270.479865","149036.628677","149803.404183","150569.639563","151336.349524","152103.374224","152870.027915","156696.317098","Mapping"
"Blocked","Male","ball","4","M_dime.wav","None","734.481128398","337","146753.900297","153636.62812","154403.758866","155170.498199","155937.070578","156686.78467","157452.965945","158219.997756","147520.49741","148270.479865","149036.628677","149803.404183","150569.639563","151336.349524","152103.374224","152870.027915","157463.00047","Mapping"
"Blocked","Male","cave","10","M_cling.wav","None","732.919494621","337","161353.384658","153636.62812","154403.758866","155170.498199","155937.070578","156686.78467","157452.965945","158219.997756","147520.49741","148270.479865","149036.628677","149803.404183","150569.639563","151336.349524","152103.374224","152870.027915","158229.771339","Mapping"
"Blocked","Male","cave","10","M_cave.wav","None","720.970568713","337","161353.384658","153636.62812","154403.758866","155170.498199","155937.070578","156686.78467","157452.965945","158219.997756","162119.490495","148270.479865","149036.628677","149803.404183","150569.639563","151336.349524","152103.374224","152870.027915","161363.905822","Mapping"
"Blocked","Male","cave","10","M_reek.wav","space","642.654523719","337","161353.384658","153636.62812","154403.758866","155170.498199","155937.070578","156686.78467","157452.965945","158219.997756","162119.490495","162886.468818","149036.628677","149803.404183","150569.639563","151336.349524","152103.374224","152870.027915","162130.600634","Mapping"
"Blocked","Male","cave","10","M_cave.wav","None","723.4019069","337","161353.384658","153636.62812","154403.758866","155170.498199","155937.070578","156686.78467","157452.965945","158219.997756","162119.490495","162886.468818","163653.063458","149803.404183","150569.639563","151336.349524","152103.374224","152870.027915","162895.733812","Mapping"
"Blocked","Male","cave","10","M_cad.wav","space","484.946202487","337","161353.384658","153636.62812","154403.758866","155170.498199","155937.070578","156686.78467","157452.965945","158219.997756","162119.490495","162886.468818","163653.063458","164420.22203","150569.639563","151336.349524","152103.374224","152870.027915","163664.24718","Mapping"
"Blocked","Male","cave","10","M_cave.wav","None","718.748850282","337","161353.384658","153636.62812","154403.758866","155170.498199","155937.070578","156686.78467","157452.965945","158219.997756","162119.490495","162886.468818","163653.063458","164420.22203","165169.65632","151336.349524","152103.374224","152870.027915","164430.23244","Mapping"
"Blocked","Male","cave","10","M_jolt.wav","space","457.884890493","337","161353.384658","153636.62812","154403.758866","155170.498199","155937.070578","156686.78467","157452.965945","158219.997756","162119.490495","162886.468818","163653.063458","164420.22203","165169.65632","165936.406474","152103.374224","152870.027915","165179.312726","Mapping"
"Blocked","Male","cave","10","M_reek.wav","None","731.104338542","337","161353.384658","153636.62812","154403.758866","155170.498199","155937.070578","156686.78467","157452.965945","158219.997756","162119.490495","162886.468818","163653.063458","164420.22203","165169.65632","165936.406474","166702.768306","152870.027915","165947.735817","Mapping"
"Blocked","Male","cave","10","M_bluff.wav","None","732.636291999","337","161353.384658","153636.62812","154403.758866","155170.498199","155937.070578","156686.78467","157452.965945","158219.997756","162119.490495","162886.468818","163653.063458","164420.22203","165169.65632","165936.406474","166702.768306","167469.800735","166711.455764","Mapping"
"Blocked","Male","cave","10","M_cave.wav","None","723.216403276","337","161353.384658","168236.390737","154403.758866","155170.498199","155937.070578","156686.78467","157452.965945","158219.997756","162119.490495","162886.468818","163653.063458","164420.22203","165169.65632","165936.406474","166702.768306","167469.800735","167486.233599","Mapping"
"Blocked","Male","cave","10","M_priest.wav","space","382.496097591","337","161353.384658","168236.390737","169002.712067","155170.498199","155937.070578","156686.78467","157452.965945","158219.997756","162119.490495","162886.468818","163653.063458","164420.22203","165169.65632","165936.406474","166702.768306","167469.800735","168246.635809","Mapping"
"Blocked","Male","cave","10","M_greet.wav","None","726.625655778","337","161353.384658","168236.390737","169002.712067","169769.71698","155937.070578","156686.78467","157452.965945","158219.997756","162119.490495","162886.468818","163653.063458","164420.22203","165169.65632","165936.406474","166702.768306","167469.800735","169012.598499","Mapping"
"Blocked","Male","cave","10","M_greet.wav","None","725.234067533","337","161353.384658","168236.390737","169002.712067","169769.71698","170536.614918","156686.78467","157452.965945","158219.997756","162119.490495","162886.468818","163653.063458","164420.22203","165169.65632","165936.406474","166702.768306","167469.800735","169779.232094","Mapping"
"Blocked","Male","cave","10","M_park.wav","None","723.080057651","337","161353.384658","168236.390737","169002.712067","169769.71698","170536.614918","171303.366309","157452.965945","158219.997756","162119.490495","162886.468818","163653.063458","164420.22203","165169.65632","165936.406474","166702.768306","167469.800735","170546.631203","Mapping"
"Blocked","Male","cave","10","M_knife.wav","None","721.62663471","337","161353.384658","168236.390737","169002.712067","169769.71698","170536.614918","171303.366309","172070.113989","158219.997756","162119.490495","162886.468818","163653.063458","164420.22203","165169.65632","165936.406474","166702.768306","167469.800735","171313.458649","Mapping"
"Blocked","Male","cave","10","M_reek.wav","None","720.286677592","337","161353.384658","168236.390737","169002.712067","169769.71698","170536.614918","171303.366309","172070.113989","172836.705228","162119.490495","162886.468818","163653.063458","164420.22203","165169.65632","165936.406474","166702.768306","167469.800735","172080.014024","Mapping"
"Blocked","Male","cave","12","M_cling.wav","None","718.520371243","337","175953.325668","168236.390737","169002.712067","169769.71698","170536.614918","171303.366309","172070.113989","172836.705228","162119.490495","162886.468818","163653.063458","164420.22203","165169.65632","165936.406474","166702.768306","167469.800735","172847.020483","Mapping"
"Blocked","Male","cave","12","M_dime.wav","None","721.075687557","337","175953.325668","168236.390737","169002.712067","169769.71698","170536.614918","171303.366309","172070.113989","172836.705228","176720.017697","162886.468818","163653.063458","164420.22203","165169.65632","165936.406474","166702.768306","167469.800735","175963.446144","Mapping"
"Blocked","Male","cave","12","M_jolt.wav","None","719.567541033","337","175953.325668","168236.390737","169002.712067","169769.71698","170536.614918","171303.366309","172070.113989","172836.705228","176720.017697","177486.579564","163653.063458","164420.22203","165169.65632","165936.406474","166702.768306","167469.800735","176730.274209","Mapping"
"Blocked","Male","cave","12","M_cave.wav","None","717.397454195","337","175953.325668","168236.390737","169002.712067","169769.71698","170536.614918","171303.366309","172070.113989","172836.705228","176720.017697","177486.579564","178236.007671","164420.22203","165169.65632","165936.406474","166702.768306","167469.800735","177497.935496","Mapping"
"Blocked","Male","cave","12","M_bluff.wav","space","414.940115064","337","175953.325668","168236.390737","169002.712067","169769.71698","170536.614918","171303.366309","172070.113989","172836.705228","176720.017697","177486.579564","178236.007671","179002.919832","165169.65632","165936.406474","166702.768306","167469.800735","178246.028902","Mapping"
"Blocked","Male","cave","12","M_priest.wav","None","733.076245524","337","175953.325668","168236.390737","169002.712067","169769.71698","170536.614918","171303.366309","172070.113989","172836.705228","176720.017697","177486.579564","178236.007671","179002.919832","179769.523128","165936.406474","166702.768306","167469.800735","179012.089291","Mapping"
"Blocked","Male","cave","12","M_jaw.wav","None","731.469472405","337","175953.325668","168236.390737","169002.712067","169769.71698","170536.614918","171303.366309","172070.113989","172836.705228","176720.017697","177486.579564","178236.007671","179002.919832","179769.523128","180535.668539","166702.768306","167469.800735","179779.05401","Mapping"
"Blocked","Male","cave","12","M_cave.wav","None","730.911723804","337","175953.325668","168236.390737","169002.712067","169769.71698","170536.614918","171303.366309","172070.113989","172836.705228","176720.017697","177486.579564","178236.007671","179002.919832","179769.523128","180535.668539","181302.84226","167469.800735","180544.941262","Mapping"
"Blocked","Male","cave","12","M_jolt.wav","space","324.213548563","337","175953.325668","168236.390737","169002.712067","169769.71698","170536.614918","171303.366309","172070.113989","172836.705228","176720.017697","177486.579564","178236.007671","179002.919832","179769.523128","180535.668539","181302.84226","182069.533362","181312.720653","Mapping"
"Blocked","Male","cave","12","M_gnash.wav","None","726.595356595","337","175953.325668","182836.072041","169002.712067","169769.71698","170536.614918","171303.366309","172070.113989","172836.705228","176720.017697","177486.579564","178236.007671","179002.919832","179769.523128","180535.668539","181302.84226","182069.533362","182079.078466","Mapping"
"Blocked","Male","cave","12","M_cave.wav","None","725.2826076","337","175953.325668","182836.072041","183603.25782","169769.71698","170536.614918","171303.366309","172070.113989","172836.705228","176720.017697","177486.579564","178236.007671","179002.919832","179769.523128","180535.668539","181302.84226","182069.533362","182845.704332","Mapping"
"Blocked","Male","cave","12","M_greet.wav","None","722.679059952","337","175953.325668","182836.072041","183603.25782","184369.828035","170536.614918","171303.366309","172070.113989","172836.705228","176720.017697","177486.579564","178236.007671","179002.919832","179769.523128","180535.668539","181302.84226","182069.533362","183613.663353","Mapping"
"Blocked","Male","cave","12","M_dime.wav","space","48.6845760606","337","175953.325668","182836.072041","183603.25782","184369.828035","185136.550672","171303.366309","172070.113989","172836.705228","176720.017697","177486.579564","178236.007671","179002.919832","179769.523128","180535.668539","181302.84226","182069.533362","184380.200177","Mapping"
"Blocked","Male","cave","12","M_cave.wav","None","718.956614379","337","175953.325668","182836.072041","183603.25782","184369.828035","185136.550672","185886.211896","172070.113989","172836.705228","176720.017697","177486.579564","178236.007671","179002.919832","179769.523128","180535.668539","181302.84226","182069.533362","185147.08544","Mapping"
"Blocked","Male","cave","12","M_romp.wav","space","564.819861669","337","175953.325668","182836.072041","183603.25782","184369.828035","185136.550672","185886.211896","186652.620104","172836.705228","176720.017697","177486.579564","178236.007671","179002.919832","179769.523128","180535.668539","181302.84226","182069.533362","185895.999082","Mapping"
"Blocked","Male","cave","12","M_depth.wav","None","733.870511409","337","175953.325668","182836.072041","183603.25782","184369.828035","185136.550672","185886.211896","186652.620104","187418.999868","176720.017697","177486.579564","178236.007671","179002.919832","179769.523128","180535.668539","181302.84226","182069.533362","186662.28424","Mapping"
"Blocked","Male","tile","13","M_greet.wav","None","733.53876872","337","190553.215046","182836.072041","183603.25782","184369.828035","185136.550672","185886.211896","186652.620104","187418.999868","176720.017697","177486.579564","178236.007671","179002.919832","179769.523128","180535.668539","181302.84226","182069.533362","187428.275064","Mapping"
"Blocked","Male","tile","13","M_reek.wav","None","720.515466295","337","190553.215046","182836.072041","183603.25782","184369.828035","185136.550672","185886.211896","186652.620104","187418.999868","191319.826381","177486.579564","178236.007671","179002.919832","179769.523128","180535.668539","181302.84226","182069.533362","190563.880903","Mapping"
"Blocked","Male","tile","13","M_tile.wav","None","720.22638889","337","190553.215046","182836.072041","183603.25782","184369.828035","185136.550672","185886.211896","186652.620104","187418.999868","191319.826381","192086.281274","178236.007671","179002.919832","179769.523128","180535.668539","181302.84226","182069.533362","191329.888423","Mapping"
"Blocked","Male","tile","13","M_knife.wav","None","719.201170839","337","190553.215046","182836.072041","183603.25782","184369.828035","185136.550672","185886.211896","186652.620104","187418.999868","191319.826381","192086.281274","192836.029375","179002.919832","179769.523128","180535.668539","181302.84226","182069.533362","192096.535622","Mapping"
"Blocked","Male","tile","13","M_reek.wav","space","0.0488492660224","337","190553.215046","182836.072041","183603.25782","184369.828035","185136.550672","185886.211896","186652.620104","187418.999868","191319.826381","192086.281274","192836.029375","193602.590624","179769.523128","180535.668539","181302.84226","182069.533362","192845.602924","Mapping"
"Blocked","Male","tile","13","M_jolt.wav","None","734.194834251","337","190553.215046","182836.072041","183603.25782","184369.828035","185136.550672","185886.211896","186652.620104","187418.999868","191319.826381","192086.281274","192836.029375","193602.590624","194369.317281","180535.668539","181302.84226","182069.533362","193611.748025","Mapping"
"Blocked","Male","tile","13","M_tile.wav","None","732.303930912","337","190553.215046","182836.072041","183603.25782","184369.828035","185136.550672","185886.211896","186652.620104","187418.999868","191319.826381","192086.281274","192836.029375","193602.590624","194369.317281","195135.785468","181302.84226","182069.533362","194379.046961","Mapping"
"Blocked","Male","tile","13","M_cling.wav","space","498.865488917","337","190553.215046","182836.072041","183603.25782","184369.828035","185136.550672","185886.211896","186652.620104","187418.999868","191319.826381","192086.281274","192836.029375","193602.590624","194369.317281","195135.785468","195902.612297","182069.533362","195145.796806","Mapping"
"Blocked","Male","tile","13","M_tile.wav","None","728.464927059","337","190553.215046","182836.072041","183603.25782","184369.828035","185136.550672","185886.211896","186652.620104","187418.999868","191319.826381","192086.281274","192836.029375","193602.590624","194369.317281","195135.785468","195902.612297","196669.145411","195913.126969","Mapping"
"Blocked","Male","tile","13","M_lash.wav","space","533.911817241","337","190553.215046","197435.986462","183603.25782","184369.828035","185136.550672","185886.211896","186652.620104","187418.999868","191319.826381","192086.281274","192836.029375","193602.590624","194369.317281","195135.785468","195902.612297","196669.145411","196678.735964","Mapping"
"Blocked","Male","tile","13","M_dime.wav","None","725.996179041","337","190553.215046","197435.986462","198202.546165","184369.828035","185136.550672","185886.211896","186652.620104","187418.999868","191319.826381","192086.281274","192836.029375","193602.590624","194369.317281","195135.785468","195902.612297","196669.145411","197445.70965","Mapping"
"Blocked","Male","tile","13","M_cad.wav","None","725.097721908","337","190553.215046","197435.986462","198202.546165","198969.569937","185136.550672","185886.211896","186652.620104","187418.999868","191319.826381","192086.281274","192836.029375","193602.590624","194369.317281","195135.785468","195902.612297","196669.145411","198212.18804","Mapping"
"Blocked","Male","tile","13","M_knife.wav","None","722.992870957","337","190553.215046","197435.986462","198202.546165","198969.569937","199736.152519","185886.211896","186652.620104","187418.999868","191319.826381","192086.281274","192836.029375","193602.590624","194369.317281","195135.785468","195902.612297","196669.145411","198979.994639","Mapping"
"Blocked","Male","tile","13","M_cad.wav","None","722.886824515","337","190553.215046","197435.986462","198202.546165","198969.569937","199736.152519","200502.738193","186652.620104","187418.999868","191319.826381","192086.281274","192836.029375","193602.590624","194369.317281","195135.785468","195902.612297","196669.145411","199745.992574","Mapping"
"Blocked","Male","tile","13","M_tile.wav","None","721.163801849","337","190553.215046","197435.986462","198202.546165","198969.569937","199736.152519","200502.738193","201269.088585","187418.999868","191319.826381","192086.281274","192836.029375","193602.590624","194369.317281","195135.785468","195902.612297","196669.145411","200513.363548","Mapping"
"Blocked","Male","tile","13","M_cling.wav","space","453.973230906","337","190553.215046","197435.986462","198202.546165","198969.569937","199736.152519","200502.738193","201269.088585","202036.13369","191319.826381","192086.281274","192836.029375","193602.590624","194369.317281","195135.785468","195902.612297","196669.145411","201278.602463","Mapping"
"Blocked","Male","cave","11","M_depth.wav","None","717.757331673","337","205152.908099","197435.986462","198202.546165","198969.569937","199736.152519","200502.738193","201269.088585","202036.13369","191319.826381","192086.281274","192836.029375","193602.590624","194369.317281","195135.785468","195902.612297","196669.145411","202047.130981","Mapping"
"Blocked","Male","cave","11","M_cave.wav","None","721.167203039","337","205152.908099","197435.986462","198202.546165","198969.569937","199736.152519","200502.738193","201269.088585","202036.13369","205919.127711","192086.281274","192836.029375","193602.590624","194369.317281","195135.785468","195902.612297","196669.145411","205162.979106","Mapping"
"Blocked","Male","cave","11","M_jolt.wav","space","403.92025467","337","205152.908099","197435.986462","198202.546165","198969.569937","199736.152519","200502.738193","201269.088585","202036.13369","205919.127711","206668.703912","192836.029375","193602.590624","194369.317281","195135.785468","195902.612297","196669.145411","205928.595522","Mapping"
"Blocked","Male","cave","11","M_cave.wav","None","736.117891036","337","205152.908099","197435.986462","198202.546165","198969.569937","199736.152519","200502.738193","201269.088585","202036.13369","205919.127711","206668.703912","207435.193433","193602.590624","194369.317281","195135.785468","195902.612297","196669.145411","206678.010026","Mapping"
"Blocked","Male","cave","11","M_lash.wav","space","527.969507966","337","205152.908099","197435.986462","198202.546165","198969.569937","199736.152519","200502.738193","201269.088585","202036.13369","205919.127711","206668.703912","207435.193433","208202.389724","194369.317281","195135.785468","195902.612297","196669.145411","207444.471102","Mapping"
"Blocked","Male","cave","11","M_knife.wav","None","731.815746054","337","205152.908099","197435.986462","198202.546165","198969.569937","199736.152519","200502.738193","201269.088585","202036.13369","205919.127711","206668.703912","207435.193433","208202.389724","208969.027029","195135.785468","195902.612297","196669.145411","208212.130534","Mapping"
"Blocked","Male","cave","11","M_gnash.wav","None","731.157516595","337","205152.908099","197435.986462","198202.546165","198969.569937","199736.152519","200502.738193","201269.088585","202036.13369","205919.127711","206668.703912","207435.193433","208202.389724","208969.027029","209735.328882","195902.612297","196669.145411","208978.478454","Mapping"
"Blocked","Male","cave","11","M_gnash.wav","None","729.380388744","337","205152.908099","197435.986462","198202.546165","198969.569937","199736.152519","200502.738193","201269.088585","202036.13369","205919.127711","206668.703912","207435.193433","208202.389724","208969.027029","209735.328882","210502.356054","196669.145411","209745.744927","Mapping"
"Blocked","Male","cave","11","M_jolt.wav","None","728.417314589","337","205152.908099","197435.986462","198202.546165","198969.569937","199736.152519","200502.738193","201269.088585","202036.13369","205919.127711","206668.703912","207435.193433","208202.389724","208969.027029","209735.328882","210502.356054","211268.581232","210512.325963","Mapping"
"Blocked","Male","cave","11","M_jolt.wav","None","728.346823249","337","205152.908099","212035.35952","198202.546165","198969.569937","199736.152519","200502.738193","201269.088585","202036.13369","205919.127711","206668.703912","207435.193433","208202.389724","208969.027029","209735.328882","210502.356054","211268.581232","211278.022763","Mapping"
"Blocked","Male","cave","11","M_cad.wav","None","727.490413468","337","205152.908099","212035.35952","212802.301362","198969.569937","199736.152519","200502.738193","201269.088585","202036.13369","205919.127711","206668.703912","207435.193433","208202.389724","208969.027029","209735.328882","210502.356054","211268.581232","212044.494661","Mapping"
"Blocked","Male","cave","11","M_cave.wav","None","725.85179517","337","205152.908099","212035.35952","212802.301362","213568.942996","199736.152519","200502.738193","201269.088585","202036.13369","205919.127711","206668.703912","207435.193433","208202.389724","208969.027029","209735.328882","210502.356054","211268.581232","212811.7701","Mapping"
"Blocked","Male","cave","11","M_dime.wav","space","369.798354339","337","205152.908099","212035.35952","212802.301362","213568.942996","214335.915754","200502.738193","201269.088585","202036.13369","205919.127711","206668.703912","207435.193433","208202.389724","208969.027029","209735.328882","210502.356054","211268.581232","213578.586108","Mapping"
"Blocked","Male","cave","11","M_cave.wav","None","721.771018114","337","205152.908099","212035.35952","212802.301362","213568.942996","214335.915754","215102.053126","201269.088585","202036.13369","205919.127711","206668.703912","207435.193433","208202.389724","208969.027029","209735.328882","210502.356054","211268.581232","214346.42486","Mapping"
"Blocked","Male","cave","11","M_knife.wav","space","556.80485582","337","205152.908099","212035.35952","212802.301362","213568.942996","214335.915754","215102.053126","215869.253437","202036.13369","205919.127711","206668.703912","207435.193433","208202.389724","208969.027029","209735.328882","210502.356054","211268.581232","215111.539797","Mapping"
"Blocked","Male","cave","11","M_park.wav","None","719.482518267","337","205152.908099","212035.35952","212802.301362","213568.942996","214335.915754","215102.053126","215869.253437","216619.051624","205919.127711","206668.703912","207435.193433","208202.389724","208969.027029","209735.328882","210502.356054","211268.581232","215879.048043","Mapping"
"Blocked","Male","tile","15","M_priest.wav","None","735.384532716","337","219752.643508","212035.35952","212802.301362","213568.942996","214335.915754","215102.053126","215869.253437","216619.051624","205919.127711","206668.703912","207435.193433","208202.389724","208969.027029","209735.328882","210502.356054","211268.581232","216628.632283","Mapping"
"Blocked","Male","tile","15","M_knife.wav","None","720.749509986","337","219752.643508","212035.35952","212802.301362","213568.942996","214335.915754","215102.053126","215869.253437","216619.051624","220518.57188","206668.703912","207435.193433","208202.389724","208969.027029","209735.328882","210502.356054","211268.581232","219763.215067","Mapping"
"Blocked","Male","tile","15","M_tile.wav","None","721.953739878","337","219752.643508","212035.35952","212802.301362","213568.942996","214335.915754","215102.053126","215869.253437","216619.051624","220518.57188","221286.134541","207435.193433","208202.389724","208969.027029","209735.328882","210502.356054","211268.581232","220527.943847","Mapping"
"Blocked","Male","tile","15","M_romp.wav","space","339.977980591","337","219752.643508","212035.35952","212802.301362","213568.942996","214335.915754","215102.053126","215869.253437","216619.051624","220518.57188","221286.134541","222034.906891","208202.389724","208969.027029","209735.328882","210502.356054","211268.581232","221296.232137","Mapping"
"Blocked","Male","tile","15","M_tile.wav","None","736.116963904","337","219752.643508","212035.35952","212802.301362","213568.942996","214335.915754","215102.053126","215869.253437","216619.051624","220518.57188","221286.134541","222034.906891","222801.684252","208969.027029","209735.328882","210502.356054","211268.581232","222044.202183","Mapping"
"Blocked","Male","tile","15","M_jolt.wav","space","345.019359142","337","219752.643508","212035.35952","212802.301362","213568.942996","214335.915754","215102.053126","215869.253437","216619.051624","220518.57188","221286.134541","222034.906891","222801.684252","223568.799539","209735.328882","210502.356054","211268.581232","222811.134749","Mapping"
"Blocked","Male","tile","15","M_tile.wav","None","732.632272877","337","219752.643508","212035.35952","212802.301362","213568.942996","214335.915754","215102.053126","215869.253437","216619.051624","220518.57188","221286.134541","222034.906891","222801.684252","223568.799539","224334.867657","210502.356054","211268.581232","223578.085247","Mapping"
"Blocked","Male","tile","15","M_gnash.wav","space","292.093853466","337","219752.643508","212035.35952","212802.301362","213568.942996","214335.915754","215102.053126","215869.253437","216619.051624","220518.57188","221286.134541","222034.906891","222801.684252","223568.799539","224334.867657","225101.675317","211268.581232","224344.091221","Mapping"
"Blocked","Male","tile","15","M_tile.wav","None","734.215548728","337","219752.643508","212035.35952","212802.301362","213568.942996","214335.915754","215102.053126","215869.253437","216619.051624","220518.57188","221286.134541","222034.906891","222801.684252","223568.799539","224334.867657","225101.675317","225868.763397","225110.739038","Mapping"
"Blocked","Male","tile","15","M_gnash.wav","space","277.273018379","337","219752.643508","226635.324955","212802.301362","213568.942996","214335.915754","215102.053126","215869.253437","216619.051624","220518.57188","221286.134541","222034.906891","222801.684252","223568.799539","224334.867657","225101.675317","225868.763397","225878.885109","Mapping"
"Blocked","Male","tile","15","M_depth.wav","None","730.170635507","337","219752.643508","226635.324955","227402.094278","213568.942996","214335.915754","215102.053126","215869.253437","216619.051624","220518.57188","221286.134541","222034.906891","222801.684252","223568.799539","224334.867657","225101.675317","225868.763397","226645.101012","Mapping"
"Blocked","Male","tile","15","M_knife.wav","None","728.98464743","337","219752.643508","226635.324955","227402.094278","228168.643469","214335.915754","215102.053126","215869.253437","216619.051624","220518.57188","221286.134541","222034.906891","222801.684252","223568.799539","224334.867657","225101.675317","225868.763397","227412.114272","Mapping"
"Blocked","Male","tile","15","M_dime.wav","None","728.730507195","337","219752.643508","226635.324955","227402.094278","228168.643469","228935.33457","215102.053126","215869.253437","216619.051624","220518.57188","221286.134541","222034.906891","222801.684252","223568.799539","224334.867657","225101.675317","225868.763397","228178.062121","Mapping"
"Blocked","Male","tile","15","M_depth.wav","None","727.769596502","337","219752.643508","226635.324955","227402.094278","228168.643469","228935.33457","229701.603032","215869.253437","216619.051624","220518.57188","221286.134541","222034.906891","222801.684252","223568.799539","224334.867657","225101.675317","225868.763397","228944.777338","Mapping"
"Blocked","Male","tile","15","M_cad.wav","None","727.738060988","337","219752.643508","226635.324955","227402.094278","228168.643469","228935.33457","229701.603032","230468.664214","216619.051624","220518.57188","221286.134541","222034.906891","222801.684252","223568.799539","224334.867657","225101.675317","225868.763397","229710.740646","Mapping"
"Blocked","Male","tile","15","M_gnash.wav","None","726.302569732","337","219752.643508","226635.324955","227402.094278","228168.643469","228935.33457","229701.603032","230468.664214","231234.837141","220518.57188","221286.134541","222034.906891","222801.684252","223568.799539","224334.867657","225101.675317","225868.763397","230478.02907","Mapping"
"Blocked","Male","ball","6","M_greet.wav","None","725.432865787","337","234368.92123","226635.324955","227402.094278","228168.643469","228935.33457","229701.603032","230468.664214","231234.837141","220518.57188","221286.134541","222034.906891","222801.684252","223568.799539","224334.867657","225101.675317","225868.763397","231244.846624","Mapping"
"Blocked","Male","ball","6","M_greet.wav","None","720.235973597","337","234368.92123","226635.324955","227402.094278","228168.643469","228935.33457","229701.603032","230468.664214","231234.837141","235134.815283","221286.134541","222034.906891","222801.684252","223568.799539","224334.867657","225101.675317","225868.763397","234379.353661","Mapping"
"Blocked","Male","ball","6","M_romp.wav","None","721.223472618","337","234368.92123","226635.324955","227402.094278","228168.643469","228935.33457","229701.603032","230468.664214","231234.837141","235134.815283","235902.29694","222034.906891","222801.684252","223568.799539","224334.867657","225101.675317","225868.763397","235144.059252","Mapping"
"Blocked","Male","ball","6","M_ball.wav","None","718.966817483","337","234368.92123","226635.324955","227402.094278","228168.643469","228935.33457","229701.603032","230468.664214","231234.837141","235134.815283","235902.29694","236651.743289","222801.684252","223568.799539","224334.867657","225101.675317","225868.763397","235912.244588","Mapping"
"Blocked","Male","ball","6","M_lash.wav","space","350.878809579","337","234368.92123","226635.324955","227402.094278","228168.643469","228935.33457","229701.603032","230468.664214","231234.837141","235134.815283","235902.29694","236651.743289","237418.068948","223568.799539","224334.867657","225101.675317","225868.763397","236661.054967","Mapping"
"Blocked","Male","ball","6","M_lash.wav","None","734.533378854","337","234368.92123","226635.324955","227402.094278","228168.643469","228935.33457","229701.603032","230468.664214","231234.837141","235134.815283","235902.29694","236651.743289","237418.068948","238184.878462","224334.867657","225101.675317","225868.763397","237426.965715","Mapping"
"Blocked","Male","ball","6","M_ball.wav","None","733.402732294","337","234368.92123","226635.324955","227402.094278","228168.643469","228935.33457","229701.603032","230468.664214","231234.837141","235134.815283","235902.29694","236651.743289","237418.068948","238184.878462","238951.803299","225101.675317","225868.763397","238194.50457","Mapping"
"Blocked","Male","ball","6","M_lash.wav","space","402.325538918","337","234368.92123","226635.324955","227402.094278","228168.643469","228935.33457","229701.603032","230468.664214","231234.837141","235134.815283","235902.29694","236651.743289","237418.068948","238184.878462","238951.803299","239718.466575","225868.763397","238961.53298","Mapping"
"Blocked","Male","ball","6","M_jolt.wav","None","730.174036697","337","234368.92123","226635.324955","227402.094278","228168.643469","228935.33457","229701.603032","230468.664214","231234.837141","235134.815283","235902.29694","236651.743289","237418.068948","238184.878462","238951.803299","239718.466575","240485.103263","239728.019409","Mapping"
"Blocked","Male","ball","6","M_jaw.wav","None","728.964550886","337","234368.92123","241251.435414","227402.094278","228168.643469","228935.33457","229701.603032","230468.664214","231234.837141","235134.815283","235902.29694","236651.743289","237418.068948","238184.878462","238951.803299","239718.466575","240485.103263","240495.004534","Mapping"
"Blocked","Male","ball","6","M_ball.wav","None","728.805017658","337","234368.92123","241251.435414","242017.989861","228168.643469","228935.33457","229701.603032","230468.664214","231234.837141","235134.815283","235902.29694","236651.743289","237418.068948","238184.878462","238951.803299","239718.466575","240485.103263","241260.933215","Mapping"
"Blocked","Male","ball","6","M_knife.wav","space","384.578069672","337","234368.92123","241251.435414","242017.989861","242784.71188","228935.33457","229701.603032","230468.664214","231234.837141","235134.815283","235902.29694","236651.743289","237418.068948","238184.878462","238951.803299","239718.466575","240485.103263","242027.261965","Mapping"
"Blocked","Male","ball","6","M_greet.wav","None","726.510334294","337","234368.92123","241251.435414","242017.989861","242784.71188","243551.378248","229701.603032","230468.664214","231234.837141","235134.815283","235902.29694","236651.743289","237418.068948","238184.878462","238951.803299","239718.466575","240485.103263","242793.820741","Mapping"
"Blocked","Male","ball","6","M_gnash.wav","None","725.448633544","337","234368.92123","241251.435414","242017.989861","242784.71188","243551.378248","244319.06365","230468.664214","231234.837141","235134.815283","235902.29694","236651.743289","237418.068948","238184.878462","238951.803299","239718.466575","240485.103263","243560.805557","Mapping"
"Blocked","Male","ball","6","M_ball.wav","None","722.581052221","337","234368.92123","241251.435414","242017.989861","242784.71188","243551.378248","244319.06365","245085.513597","231234.837141","235134.815283","235902.29694","236651.743289","237418.068948","238184.878462","238951.803299","239718.466575","240485.103263","244329.383234","Mapping"
"Blocked","Male","ball","6","M_park.wav","space","500.08857809","337","234368.92123","241251.435414","242017.989861","242784.71188","243551.378248","244319.06365","245085.513597","245852.184603","235134.815283","235902.29694","236651.743289","237418.068948","238184.878462","238951.803299","239718.466575","240485.103263","245095.69498","Mapping"
"Blocked","Male","tile","17","M_priest.wav","None","719.845796935","337","248968.776289","241251.435414","242017.989861","242784.71188","243551.378248","244319.06365","245085.513597","245852.184603","235134.815283","235902.29694","236651.743289","237418.068948","238184.878462","238951.803299","239718.466575","240485.103263","245862.366912","Mapping"
"Blocked","Male","tile","17","M_dime.wav","None","720.180013217","337","248968.776289","241251.435414","242017.989861","242784.71188","243551.378248","244319.06365","245085.513597","245852.184603","249734.726612","235902.29694","236651.743289","237418.068948","238184.878462","238951.803299","239718.466575","240485.103263","248979.195117","Mapping"
"Blocked","Male","tile","17","M_lash.wav","None","721.242641099","337","248968.776289","241251.435414","242017.989861","242784.71188","243551.378248","244319.06365","245085.513597","245852.184603","249734.726612","250501.96897","236651.743289","237418.068948","238184.878462","238951.803299","239718.466575","240485.103263","249744.114966","Mapping"
"Blocked","Male","tile","17","M_cling.wav","None","719.208281487","337","248968.776289","241251.435414","242017.989861","242784.71188","243551.378248","244319.06365","245085.513597","245852.184603","249734.726612","250501.96897","251251.88186","237418.068948","238184.878462","238951.803299","239718.466575","240485.103263","250511.926202","Mapping"
"Blocked","Male","tile","17","M_dime.wav","None","735.680102371","337","248968.776289","241251.435414","242017.989861","242784.71188","243551.378248","244319.06365","245085.513597","245852.184603","249734.726612","250501.96897","251251.88186","252018.077048","238184.878462","238951.803299","239718.466575","240485.103263","251261.36513","Mapping"
"Blocked","Male","tile","17","M_cad.wav","None","735.14523264","337","248968.776289","241251.435414","242017.989861","242784.71188","243551.378248","244319.06365","245085.513597","245852.184603","249734.726612","250501.96897","251251.88186","252018.077048","252784.395287","238951.803299","239718.466575","240485.103263","252027.771483","Mapping"
"Blocked","Male","tile","17","M_tile.wav","None","734.893874731","337","248968.776289","241251.435414","242017.989861","242784.71188","243551.378248","244319.06365","245085.513597","245852.184603","249734.726612","250501.96897","251251.88186","252018.077048","252784.395287","253551.456159","239718.466575","240485.103263","252794.013665","Mapping"
"Blocked","Male","tile","17","M_lash.wav","space","434.256947134","337","248968.776289","241251.435414","242017.989861","242784.71188","243551.378248","244319.06365","245085.513597","245852.184603","249734.726612","250501.96897","251251.88186","252018.077048","252784.395287","253551.456159","254318.213424","240485.103263","253561.396696","Mapping"
"Blocked","Male","tile","17","M_depth.wav","None","732.404103037","337","248968.776289","241251.435414","242017.989861","242784.71188","243551.378248","244319.06365","245085.513597","245852.184603","249734.726612","250501.96897","251251.88186","252018.077048","252784.395287","253551.456159","254318.213424","255084.73479","254327.726374","Mapping"
"Blocked","Male","tile","17","M_tile.wav","None","731.617875397","337","248968.776289","255851.551725","242017.989861","242784.71188","243551.378248","244319.06365","245085.513597","245852.184603","249734.726612","250501.96897","251251.88186","252018.077048","252784.395287","253551.456159","254318.213424","255084.73479","255094.532798","Mapping"
"Blocked","Male","tile","17","M_park.wav","space","326.476386748","337","248968.776289","255851.551725","256617.771956","242784.71188","243551.378248","244319.06365","245085.513597","245852.184603","249734.726612","250501.96897","251251.88186","252018.077048","252784.395287","253551.456159","254318.213424","255084.73479","255861.048289","Mapping"
"Blocked","Male","tile","17","M_tile.wav","None","729.827763047","337","248968.776289","255851.551725","256617.771956","257384.421938","243551.378248","244319.06365","245085.513597","245852.184603","249734.726612","250501.96897","251251.88186","252018.077048","252784.395287","253551.456159","254318.213424","255084.73479","256627.016853","Mapping"
"Blocked","Male","tile","17","M_knife.wav","space","305.931209587","337","248968.776289","255851.551725","256617.771956","257384.421938","258151.515892","244319.06365","245085.513597","245852.184603","249734.726612","250501.96897","251251.88186","252018.077048","252784.395287","253551.456159","254318.213424","255084.73479","257393.596343","Mapping"
"Blocked","Male","tile","17","M_lash.wav","None","726.20641673","337","248968.776289","255851.551725","256617.771956","257384.421938","258151.515892","258917.721591","245085.513597","245852.184603","249734.726612","250501.96897","251251.88186","252018.077048","252784.395287","253551.456159","254318.213424","255084.73479","258161.16797","Mapping"
"Blocked","Male","tile","17","M_tile.wav","None","726.304734126","337","248968.776289","255851.551725","256617.771956","257384.421938","258151.515892","258917.721591","259684.633752","245852.184603","249734.726612","250501.96897","251251.88186","252018.077048","252784.395287","253551.456159","254318.213424","255084.73479","258926.977928","Mapping"
"Blocked","Male","tile","17","M_jolt.wav","space","469.081907067","337","248968.776289","255851.551725","256617.771956","257384.421938","258151.515892","258917.721591","259684.633752","260451.248179","249734.726612","250501.96897","251251.88186","252018.077048","252784.395287","253551.456159","254318.213424","255084.73479","259694.443199","Mapping"
"Blocked","Male","ball","5","M_romp.wav","None","723.221659195","337","263568.695657","255851.551725","256617.771956","257384.421938","258151.515892","258917.721591","259684.633752","260451.248179","249734.726612","250501.96897","251251.88186","252018.077048","252784.395287","253551.456159","254318.213424","255084.73479","260460.746597","Mapping"
"Blocked","Male","ball","5","M_jaw.wav","None","719.998837449","337","263568.695657","255851.551725","256617.771956","257384.421938","258151.515892","258917.721591","259684.633752","260451.248179","264335.080368","250501.96897","251251.88186","252018.077048","252784.395287","253551.456159","254318.213424","255084.73479","263579.084495","Mapping"
"Blocked","Male","ball","5","M_ball.wav","None","720.417767297","337","263568.695657","255851.551725","256617.771956","257384.421938","258151.515892","258917.721591","259684.633752","260451.248179","264335.080368","265101.736224","251251.88186","252018.077048","252784.395287","253551.456159","254318.213424","255084.73479","264345.349865","Mapping"
"Blocked","Male","ball","5","M_gnash.wav","space","499.268650543","337","263568.695657","255851.551725","256617.771956","257384.421938","258151.515892","258917.721591","259684.633752","260451.248179","264335.080368","265101.736224","265851.114554","252018.077048","252784.395287","253551.456159","254318.213424","255084.73479","265112.136501","Mapping"
"Blocked","Male","ball","5","M_bluff.wav","None","735.443584621","337","263568.695657","255851.551725","256617.771956","257384.421938","258151.515892","258917.721591","259684.633752","260451.248179","264335.080368","265101.736224","265851.114554","266617.616751","252784.395287","253551.456159","254318.213424","255084.73479","265860.815173","Mapping"
"Blocked","Male","ball","5","M_bluff.wav","None","734.956946224","337","263568.695657","255851.551725","256617.771956","257384.421938","258151.515892","258917.721591","259684.633752","260451.248179","264335.080368","265101.736224","265851.114554","266617.616751","267384.369069","253551.456159","254318.213424","255084.73479","266627.06261","Mapping"
"Blocked","Male","ball","5","M_ball.wav","None","703.739419114","337","263568.695657","255851.551725","256617.771956","257384.421938","258151.515892","258917.721591","259684.633752","260451.248179","264335.080368","265101.736224","265851.114554","266617.616751","267384.369069","268151.280611","254318.213424","255084.73479","267424.232934","Mapping"
"Blocked","Male","ball","5","M_jaw.wav","space","610.704565421","337","263568.695657","255851.551725","256617.771956","257384.421938","258151.515892","258917.721591","259684.633752","260451.248179","264335.080368","265101.736224","265851.114554","266617.616751","267384.369069","268151.280611","268917.644298","255084.73479","268160.634646","Mapping"
"Blocked","Male","ball","5","M_jolt.wav","None","731.641990598","337","263568.695657","255851.551725","256617.771956","257384.421938","258151.515892","258917.721591","259684.633752","260451.248179","264335.080368","265101.736224","265851.114554","266617.616751","267384.369069","268151.280611","268917.644298","269684.306647","268926.820559","Mapping"
"Blocked","Male","ball","5","M_park.wav","None","731.097846292","337","263568.695657","270451.254362","256617.771956","257384.421938","258151.515892","258917.721591","259684.633752","260451.248179","264335.080368","265101.736224","265851.114554","266617.616751","267384.369069","268151.280611","268917.644298","269684.306647","269693.475178","Mapping"
"Blocked","Male","ball","5","M_ball.wav","None","729.652461596","337","263568.695657","270451.254362","271217.95443","257384.421938","258151.515892","258917.721591","259684.633752","260451.248179","264335.080368","265101.736224","265851.114554","266617.616751","267384.369069","268151.280611","268917.644298","269684.306647","270460.778443","Mapping"
"Blocked","Male","ball","5","M_dime.wav","space","560.004180297","337","263568.695657","270451.254362","271217.95443","271984.218254","258151.515892","258917.721591","259684.633752","260451.248179","264335.080368","265101.736224","265851.114554","266617.616751","267384.369069","268151.280611","268917.644298","269684.306647","271227.310011","Mapping"
"Blocked","Male","ball","5","M_romp.wav","None","727.675298695","337","263568.695657","270451.254362","271217.95443","271984.218254","272751.241099","258917.721591","259684.633752","260451.248179","264335.080368","265101.736224","265851.114554","266617.616751","267384.369069","268151.280611","268917.644298","269684.306647","271993.102655","Mapping"
"Blocked","Male","ball","5","M_ball.wav","None","726.350491866","337","263568.695657","270451.254362","271217.95443","271984.218254","272751.241099","273517.4536","259684.633752","260451.248179","264335.080368","265101.736224","265851.114554","266617.616751","267384.369069","268151.280611","268917.644298","269684.306647","272760.387679","Mapping"
"Blocked","Male","ball","5","M_depth.wav","space","484.8203687","337","263568.695657","270451.254362","271217.95443","271984.218254","272751.241099","273517.4536","274284.652982","260451.248179","264335.080368","265101.736224","265851.114554","266617.616751","267384.369069","268151.280611","268917.644298","269684.306647","273526.444357","Mapping"
"Blocked","Male","ball","5","M_romp.wav","None","723.012039438","337","263568.695657","270451.254362","271217.95443","271984.218254","272751.241099","273517.4536","274284.652982","275051.773835","264335.080368","265101.736224","265851.114554","266617.616751","267384.369069","268151.280611","268917.644298","269684.306647","274294.406779","Mapping"
"Blocked","Male","done","21","M_lash.wav","None","721.604373772","337","278168.210935","270451.254362","271217.95443","271984.218254","272751.241099","273517.4536","274284.652982","275051.773835","264335.080368","265101.736224","265851.114554","266617.616751","267384.369069","268151.280611","268917.644298","269684.306647","275061.743125","Mapping"
"Blocked","Male","done","21","M_done.wav","None","720.478055999","337","278168.210935","270451.254362","271217.95443","271984.218254","272751.241099","273517.4536","274284.652982","275051.773835","278934.073453","265101.736224","265851.114554","266617.616751","267384.369069","268151.280611","268917.644298","269684.306647","278178.113444","Mapping"
"Blocked","Male","done","21","M_knife.wav","None","721.714130137","337","278168.210935","270451.254362","271217.95443","271984.218254","272751.241099","273517.4536","274284.652982","275051.773835","278934.073453","279701.580153","265851.114554","266617.616751","267384.369069","268151.280611","268917.644298","269684.306647","278943.047823","Mapping"
"Blocked","Male","done","21","M_done.wav","space","0.0349367037416","337","278168.210935","270451.254362","271217.95443","271984.218254","272751.241099","273517.4536","274284.652982","275051.773835","278934.073453","279701.580153","280451.021555","266617.616751","267384.369069","268151.280611","268917.644298","269684.306647","279711.393929","Mapping"
"Blocked","Male","done","21","M_lash.wav","space","622.968229465","337","278168.210935","270451.254362","271217.95443","271984.218254","272751.241099","273517.4536","274284.652982","275051.773835","278934.073453","279701.580153","280451.021555","281217.720695","267384.369069","268151.280611","268917.644298","269684.306647","280460.177719","Mapping"
"Blocked","Male","done","21","M_greet.wav","None","732.335466426","337","278168.210935","270451.254362","271217.95443","271984.218254","272751.241099","273517.4536","274284.652982","275051.773835","278934.073453","279701.580153","280451.021555","281217.720695","281984.022238","268151.280611","268917.644298","269684.306647","281227.146458","Mapping"
"Blocked","Male","done","21","M_done.wav","None","732.156146318","337","278168.210935","270451.254362","271217.95443","271984.218254","272751.241099","273517.4536","274284.652982","275051.773835","278934.073453","279701.580153","280451.021555","281217.720695","281984.022238","282750.66078","268917.644298","269684.306647","281993.356177","Mapping"
"Blocked","Male","done","21","M_cad.wav","space","491.529736668","337","278168.210935","270451.254362","271217.95443","271984.218254","272751.241099","273517.4536","274284.652982","275051.773835","278934.073453","279701.580153","280451.021555","281217.720695","281984.022238","282750.66078","283517.692282","269684.306647","282759.557858","Mapping"
"Blocked","Male","done","21","M_reek.wav","None","729.198904708","337","278168.210935","270451.254362","271217.95443","271984.218254","272751.241099","273517.4536","274284.652982","275051.773835","278934.073453","279701.580153","280451.021555","281217.720695","281984.022238","282750.66078","283517.692282","284284.309182","283526.958512","Mapping"
"Blocked","Male","done","21","M_cling.wav","None","728.671145625","337","278168.210935","285051.02409","271217.95443","271984.218254","272751.241099","273517.4536","274284.652982","275051.773835","278934.073453","279701.580153","280451.021555","281217.720695","281984.022238","282750.66078","283517.692282","284284.309182","284293.683622","Mapping"
"Blocked","Male","done","21","M_done.wav","None","728.157609235","337","278168.210935","285051.02409","285817.628623","271984.218254","272751.241099","273517.4536","274284.652982","275051.773835","278934.073453","279701.580153","280451.021555","281217.720695","281984.022238","282750.66078","283517.692282","284284.309182","285060.123366","Mapping"
"Blocked","Male","done","21","M_cad.wav","space","511.99452905","337","278168.210935","285051.02409","285817.628623","286584.352497","272751.241099","273517.4536","274284.652982","275051.773835","278934.073453","279701.580153","280451.021555","281217.720695","281984.022238","282750.66078","283517.692282","284284.309182","285827.04171","Mapping"
"Blocked","Male","done","21","M_priest.wav","None","725.230357144","337","278168.210935","285051.02409","285817.628623","286584.352497","287350.971871","273517.4536","274284.652982","275051.773835","278934.073453","279701.580153","280451.021555","281217.720695","281984.022238","282750.66078","283517.692282","284284.309182","286593.777642","Mapping"
"Blocked","Male","done","21","M_reek.wav","None","724.865532946","337","278168.210935","285051.02409","285817.628623","286584.352497","287350.971871","288117.674721","274284.652982","275051.773835","278934.073453","279701.580153","280451.021555","281217.720695","281984.022238","282750.66078","283517.692282","284284.309182","287360.116595","Mapping"
"Blocked","Male","done","21","M_jaw.wav","None","724.094145931","337","278168.210935","285051.02409","285817.628623","286584.352497","287350.971871","288117.674721","288884.695092","275051.773835","278934.073453","279701.580153","280451.021555","281217.720695","281984.022238","282750.66078","283517.692282","284284.309182","288126.94497","Mapping"
"Blocked","Male","done","21","M_cling.wav","None","722.639176529","337","278168.210935","285051.02409","285817.628623","286584.352497","287350.971871","288117.674721","288884.695092","289651.319103","278934.073453","279701.580153","280451.021555","281217.720695","281984.022238","282750.66078","283517.692282","284284.309182","288894.632228","Mapping"
"Blocked","Male","tile","18","M_gnash.wav","None","722.287337761","337","292767.961185","285051.02409","285817.628623","286584.352497","287350.971871","288117.674721","288884.695092","289651.319103","278934.073453","279701.580153","280451.021555","281217.720695","281984.022238","282750.66078","283517.692282","284284.309182","289661.015393","Mapping"
"Blocked","Male","tile","18","M_bluff.wav","None","721.310968511","337","292767.961185","285051.02409","285817.628623","286584.352497","287350.971871","288117.674721","288884.695092","289651.319103","293533.981072","279701.580153","280451.021555","281217.720695","281984.022238","282750.66078","283517.692282","284284.309182","292778.307667","Mapping"
"Blocked","Male","tile","18","M_bluff.wav","None","723.218258005","337","292767.961185","285051.02409","285817.628623","286584.352497","287350.971871","288117.674721","288884.695092","289651.319103","293533.981072","294301.276298","280451.021555","281217.720695","281984.022238","282750.66078","283517.692282","284284.309182","293542.849705","Mapping"
"Blocked","Male","tile","18","M_priest.wav","None","721.530172508","337","292767.961185","285051.02409","285817.628623","286584.352497","287350.971871","288117.674721","288884.695092","289651.319103","293533.981072","294301.276298","295067.266504","281217.720695","281984.022238","282750.66078","283517.692282","284284.309182","294310.903642","Mapping"
"Blocked","Male","tile","18","M_tile.wav","None","722.190566361","337","292767.961185","285051.02409","285817.628623","286584.352497","287350.971871","288117.674721","288884.695092","289651.319103","293533.981072","294301.276298","295067.266504","295833.918959","281984.022238","282750.66078","283517.692282","284284.309182","295076.505527","Mapping"
"Blocked","Male","tile","18","M_lash.wav","space","399.725392461","337","292767.961185","285051.02409","285817.628623","286584.352497","287350.971871","288117.674721","288884.695092","289651.319103","293533.981072","294301.276298","295067.266504","295833.918959","296584.376613","282750.66078","283517.692282","284284.309182","295843.138504","Mapping"
"Blocked","Male","tile","18","M_tile.wav","None","735.705145169","337","292767.961185","285051.02409","285817.628623","286584.352497","287350.971871","288117.674721","288884.695092","289651.319103","293533.981072","294301.276298","295067.266504","295833.918959","296584.376613","297350.439165","283517.692282","284284.309182","296593.766203","Mapping"
"Blocked","Male","tile","18","M_greet.wav","space","386.918201577","337","292767.961185","285051.02409","285817.628623","286584.352497","287350.971871","288117.674721","288884.695092","289651.319103","293533.981072","294301.276298","295067.266504","295833.918959","296584.376613","297350.439165","298116.946618","284284.309182","297359.919962","Mapping"
"Blocked","Male","tile","18","M_gnash.wav","None","734.422694892","337","292767.961185","285051.02409","285817.628623","286584.352497","287350.971871","288117.674721","288884.695092","289651.319103","293533.981072","294301.276298","295067.266504","295833.918959","296584.376613","297350.439165","298116.946618","298883.518997","298125.949123","Mapping"
"Blocked","Male","tile","18","M_tile.wav","None","734.02447952","337","292767.961185","299650.702612","285817.628623","286584.352497","287350.971871","288117.674721","288884.695092","289651.319103","293533.981072","294301.276298","295067.266504","295833.918959","296584.376613","297350.439165","298116.946618","298883.518997","298892.699895","Mapping"
"Blocked","Male","tile","18","M_jaw.wav","space","374.883944169","337","292767.961185","299650.702612","300417.36898","286584.352497","287350.971871","288117.674721","288884.695092","289651.319103","293533.981072","294301.276298","295067.266504","295833.918959","296584.376613","297350.439165","298116.946618","298883.518997","299659.890312","Mapping"
"Blocked","Male","tile","18","M_cad.wav","None","730.756828096","337","292767.961185","299650.702612","300417.36898","301183.853554","287350.971871","288117.674721","288884.695092","289651.319103","293533.981072","294301.276298","295067.266504","295833.918959","296584.376613","297350.439165","298116.946618","298883.518997","300426.700754","Mapping"
"Blocked","Male","tile","18","M_tile.wav","None","730.367579032","337","292767.961185","299650.702612","300417.36898","301183.853554","301950.336272","288117.674721","288884.695092","289651.319103","293533.981072","294301.276298","295067.266504","295833.918959","296584.376613","297350.439165","298116.946618","298883.518997","301193.457091","Mapping"
"Blocked","Male","tile","18","M_cling.wav","space","651.443390641","337","292767.961185","299650.702612","300417.36898","301183.853554","301950.336272","302717.016862","288884.695092","289651.319103","293533.981072","294301.276298","295067.266504","295833.918959","296584.376613","297350.439165","298116.946618","298883.518997","301959.280962","Mapping"
"Blocked","Male","tile","18","M_jolt.wav","None","728.845828678","337","292767.961185","299650.702612","300417.36898","301183.853554","301950.336272","302717.016862","303483.865024","289651.319103","293533.981072","294301.276298","295067.266504","295833.918959","296584.376613","297350.439165","298116.946618","298883.518997","302725.822115","Mapping"
