"Condition","Talker","Target","Trial","current_stimulus","response_response","response_time_response","subject_nr","time_Audio1","time_Audio10","time_Audio11","time_Audio12","time_Audio13","time_Audio14","time_Audio15","time_Audio16","time_Audio2","time_Audio3","time_Audio4","time_Audio5","time_Audio6","time_Audio7","time_Audio8","time_Audio9","time_response","title"
"Blocked","Female","done","21","F_lash.wav","NA","NA","222","316840.279579","NA","NA","NA","NA","NA","NA","NA","NA","NA","NA","NA","NA","NA","NA","NA","NA","Mapping"
"Blocked","Female","done","21","F_gnash.wav","None","715.20108782","222","316840.279579","NA","NA","NA","NA","NA","NA","NA","317590.134036","NA","NA","NA","NA","NA","NA","NA","316855.400931","Mapping"
"Blocked","Female","done","21","F_depth.wav","None","735.224380915","222","316840.279579","NA","NA","NA","NA","NA","NA","NA","317590.134036","318356.233071","NA","NA","NA","NA","NA","NA","317599.945956","Mapping"
"Blocked","Female","done","21","F_done.wav","None","735.137812386","222","316840.279579","NA","NA","NA","NA","NA","NA","NA","317590.134036","318356.233071","319122.956945","NA","NA","NA","NA","NA","318366.108372","Mapping"
"Blocked","Female","done","21","F_greet.wav","None","732.665663527","222","316840.279579","NA","NA","NA","NA","NA","NA","NA","317590.134036","318356.233071","319122.956945","319889.641863","NA","NA","NA","NA","319133.140492","Mapping"
"Blocked","Female","done","21","F_done.wav","space","42.4899819773","222","316840.279579","NA","NA","NA","NA","NA","NA","NA","317590.134036","318356.233071","319122.956945","319889.641863","320655.754192","NA","NA","NA","319899.640215","Mapping"
"Blocked","Female","done","21","F_tile.wav","None","730.144665227","222","316840.279579","NA","NA","NA","NA","NA","NA","NA","317590.134036","318356.233071","319122.956945","319889.641863","320655.754192","321422.652749","NA","NA","320665.347837","Mapping"
"Blocked","Female","done","21","F_jaw.wav","space","0.0222604721785","222","316840.279579","NA","NA","NA","NA","NA","NA","NA","317590.134036","318356.233071","319122.956945","319889.641863","320655.754192","321422.652749","322189.895107","NA","321431.8961","Mapping"
"Blocked","Female","done","21","F_done.wav","None","725.122764939","222","316840.279579","NA","NA","NA","NA","NA","NA","NA","317590.134036","318356.233071","319122.956945","319889.641863","320655.754192","321422.652749","322189.895107","322956.170989","322199.44052","Mapping"
"Blocked","Female","done","21","F_tile.wav","space","432.309465075","222","316840.279579","323722.847869","NA","NA","NA","NA","NA","NA","317590.134036","318356.233071","319122.956945","319889.641863","320655.754192","321422.652749","322189.895107","322956.170989","322965.677756","Mapping"
"Blocked","Female","done","21","F_jaw.wav","None","721.319316246","222","316840.279579","323722.847869","324489.875969","NA","NA","NA","NA","NA","317590.134036","318356.233071","319122.956945","319889.641863","320655.754192","321422.652749","322189.895107","322956.170989","323732.396683","Mapping"
"Blocked","Female","done","21","F_jolt.wav","None","717.934488028","222","316840.279579","323722.847869","324489.875969","325239.21287","NA","NA","NA","NA","317590.134036","318356.233071","319122.956945","319889.641863","320655.754192","321422.652749","322189.895107","322956.170989","324500.423104","Mapping"
"Blocked","Female","done","21","F_knife.wav","None","734.060652961","222","316840.279579","323722.847869","324489.875969","325239.21287","326005.596653","NA","NA","NA","317590.134036","318356.233071","319122.956945","319889.641863","320655.754192","321422.652749","322189.895107","322956.170989","325248.968521","Mapping"
"Blocked","Female","done","21","F_knife.wav","None","732.147489209","222","316840.279579","323722.847869","324489.875969","325239.21287","326005.596653","326772.519326","NA","NA","317590.134036","318356.233071","319122.956945","319889.641863","320655.754192","321422.652749","322189.895107","322956.170989","326015.428979","Mapping"
"Blocked","Female","done","21","F_done.wav","None","730.461876956","222","316840.279579","323722.847869","324489.875969","325239.21287","326005.596653","326772.519326","327539.371816","NA","317590.134036","318356.233071","319122.956945","319889.641863","320655.754192","321422.652749","322189.895107","322956.170989","326781.812454","Mapping"
"Blocked","Female","done","21","F_jolt.wav","space","425.317822315","222","316840.279579","323722.847869","324489.875969","325239.21287","326005.596653","326772.519326","327539.371816","328305.822071","317590.134036","318356.233071","319122.956945","319889.641863","320655.754192","321422.652749","322189.895107","322956.170989","327548.580539","Mapping"
"Blocked","Female","ball","4","F_lash.wav","None","726.672650198","222","331456.595638","323722.847869","324489.875969","325239.21287","326005.596653","326772.519326","327539.371816","328305.822071","317590.134036","318356.233071","319122.956945","319889.641863","320655.754192","321422.652749","322189.895107","322956.170989","328314.818084","Mapping"
"Blocked","Female","ball","4","F_ball.wav","None","720.595541759","222","331456.595638","323722.847869","324489.875969","325239.21287","326005.596653","326772.519326","327539.371816","328305.822071","332223.119477","318356.233071","319122.956945","319889.641863","320655.754192","321422.652749","322189.895107","322956.170989","331466.619652","Mapping"
"Blocked","Female","ball","4","F_priest.wav","space","530.188753328","222","331456.595638","323722.847869","324489.875969","325239.21287","326005.596653","326772.519326","327539.371816","328305.822071","332223.119477","332972.516667","319122.956945","319889.641863","320655.754192","321422.652749","322189.895107","322956.170989","332227.635261","Mapping"
"Blocked","Female","ball","4","F_cling.wav","None","734.931903018","222","331456.595638","323722.847869","324489.875969","325239.21287","326005.596653","326772.519326","327539.371816","328305.822071","332223.119477","332972.516667","333739.347515","319889.641863","320655.754192","321422.652749","322189.895107","322956.170989","332982.366616","Mapping"
"Blocked","Female","ball","4","F_cling.wav","None","733.296995226","222","331456.595638","323722.847869","324489.875969","325239.21287","326005.596653","326772.519326","327539.371816","328305.822071","332223.119477","332972.516667","333739.347515","334505.948338","320655.754192","321422.652749","322189.895107","322956.170989","333748.681144","Mapping"
"Blocked","Female","ball","4","F_priest.wav","None","732.153054327","222","331456.595638","323722.847869","324489.875969","325239.21287","326005.596653","326772.519326","327539.371816","328305.822071","332223.119477","332972.516667","333739.347515","334505.948338","335272.731264","321422.652749","322189.895107","322956.170989","334515.175921","Mapping"
"Blocked","Female","ball","4","F_priest.wav","None","730.094888364","222","331456.595638","323722.847869","324489.875969","325239.21287","326005.596653","326772.519326","327539.371816","328305.822071","332223.119477","332972.516667","333739.347515","334505.948338","335272.731264","336039.381864","322189.895107","322956.170989","335282.194128","Mapping"
"Blocked","Female","ball","4","F_jolt.wav","None","727.952936431","222","331456.595638","323722.847869","324489.875969","325239.21287","326005.596653","326772.519326","327539.371816","328305.822071","332223.119477","332972.516667","333739.347515","334505.948338","335272.731264","336039.381864","336805.791309","322956.170989","336049.239851","Mapping"
"Blocked","Female","ball","4","F_ball.wav","None","726.314936823","222","331456.595638","323722.847869","324489.875969","325239.21287","326005.596653","326772.519326","327539.371816","328305.822071","332223.119477","332972.516667","333739.347515","334505.948338","335272.731264","336039.381864","336805.791309","337572.6472","336815.481724","Mapping"
"Blocked","Female","ball","4","F_greet.wav","space","471.413073014","222","331456.595638","338339.896359","324489.875969","325239.21287","326005.596653","326772.519326","327539.371816","328305.822071","332223.119477","332972.516667","333739.347515","334505.948338","335272.731264","336039.381864","336805.791309","337572.6472","337582.289075","Mapping"
"Blocked","Female","ball","4","F_ball.wav","None","721.323644684","222","331456.595638","338339.896359","339106.254172","325239.21287","326005.596653","326772.519326","327539.371816","328305.822071","332223.119477","332972.516667","333739.347515","334505.948338","335272.731264","336039.381864","336805.791309","337572.6472","338350.062283","Mapping"
"Blocked","Female","ball","4","F_done.wav","space","657.402703946","222","331456.595638","338339.896359","339106.254172","339855.625082","326005.596653","326772.519326","327539.371816","328305.822071","332223.119477","332972.516667","333739.347515","334505.948338","335272.731264","336039.381864","336805.791309","337572.6472","339116.243249","Mapping"
"Blocked","Female","ball","4","F_done.wav","None","734.497823869","222","331456.595638","338339.896359","339106.254172","339855.625082","340622.168089","326772.519326","327539.371816","328305.822071","332223.119477","332972.516667","333739.347515","334505.948338","335272.731264","336039.381864","336805.791309","337572.6472","339866.100797","Mapping"
"Blocked","Female","ball","4","F_ball.wav","None","734.201635933","222","331456.595638","338339.896359","339106.254172","339855.625082","340622.168089","341388.800448","327539.371816","328305.822071","332223.119477","332972.516667","333739.347515","334505.948338","335272.731264","336039.381864","336805.791309","337572.6472","340631.265202","Mapping"
"Blocked","Female","ball","4","F_bluff.wav","space","463.687143929","222","331456.595638","338339.896359","339106.254172","339855.625082","340622.168089","341388.800448","342155.644281","328305.822071","332223.119477","332972.516667","333739.347515","334505.948338","335272.731264","336039.381864","336805.791309","337572.6472","341397.96496","Mapping"
"Blocked","Female","ball","4","F_lash.wav","None","730.984688853","222","331456.595638","338339.896359","339106.254172","339855.625082","340622.168089","341388.800448","342155.644281","342922.285606","332223.119477","332972.516667","333739.347515","334505.948338","335272.731264","336039.381864","336805.791309","337572.6472","342165.010993","Mapping"
"Blocked","Female","tile","18","F_greet.wav","None","728.936107189","222","346056.384535","338339.896359","339106.254172","339855.625082","340622.168089","341388.800448","342155.644281","342922.285606","332223.119477","332972.516667","333739.347515","334505.948338","335272.731264","336039.381864","336805.791309","337572.6472","342931.757127","Mapping"
"Blocked","Female","tile","18","F_cad.wav","None","720.944598317","222","346056.384535","338339.896359","339106.254172","339855.625082","340622.168089","341388.800448","342155.644281","342922.285606","346822.619606","332972.516667","333739.347515","334505.948338","335272.731264","336039.381864","336805.791309","337572.6472","346066.039395","Mapping"
"Blocked","Female","tile","18","F_tile.wav","None","719.311545487","222","346056.384535","338339.896359","339106.254172","339855.625082","340622.168089","341388.800448","342155.644281","342922.285606","346822.619606","347572.366161","333739.347515","334505.948338","335272.731264","336039.381864","336805.791309","337572.6472","346832.483159","Mapping"
"Blocked","Female","tile","18","F_greet.wav","space","479.13405532","222","346056.384535","338339.896359","339106.254172","339855.625082","340622.168089","341388.800448","342155.644281","342922.285606","346822.619606","347572.366161","348339.171966","334505.948338","335272.731264","336039.381864","336805.791309","337572.6472","347582.408107","Mapping"
"Blocked","Female","tile","18","F_ball.wav","None","732.303003315","222","346056.384535","338339.896359","339106.254172","339855.625082","340622.168089","341388.800448","342155.644281","342922.285606","346822.619606","347572.366161","348339.171966","349105.790721","335272.731264","336039.381864","336805.791309","337572.6472","348348.98636","Mapping"
"Blocked","Female","tile","18","F_jolt.wav","None","730.623883719","222","346056.384535","338339.896359","339106.254172","339855.625082","340622.168089","341388.800448","342155.644281","342922.285606","346822.619606","347572.366161","348339.171966","349105.790721","349872.378868","336039.381864","336805.791309","337572.6472","349115.518856","Mapping"
"Blocked","Female","tile","18","F_depth.wav","None","728.911682498","222","346056.384535","338339.896359","339106.254172","339855.625082","340622.168089","341388.800448","342155.644281","342922.285606","346822.619606","347572.366161","348339.171966","349105.790721","349872.378868","350639.120056","336805.791309","337572.6472","349882.111022","Mapping"
"Blocked","Female","tile","18","F_gnash.wav","None","726.921225432","222","346056.384535","338339.896359","339106.254172","339855.625082","340622.168089","341388.800448","342155.644281","342922.285606","346822.619606","347572.366161","348339.171966","349105.790721","349872.378868","350639.120056","351405.801573","337572.6472","350649.030603","Mapping"
"Blocked","Female","tile","18","F_tile.wav","None","725.726580189","222","346056.384535","338339.896359","339106.254172","339855.625082","340622.168089","341388.800448","342155.644281","342922.285606","346822.619606","347572.366161","348339.171966","349105.790721","349872.378868","350639.120056","351405.801573","352172.757018","351415.437884","Mapping"
"Blocked","Female","tile","18","F_greet.wav","space","542.495701753","222","346056.384535","352939.592194","339106.254172","339855.625082","340622.168089","341388.800448","342155.644281","342922.285606","346822.619606","347572.366161","348339.171966","349105.790721","349872.378868","350639.120056","351405.801573","352172.757018","352182.952313","Mapping"
"Blocked","Female","tile","18","F_tile.wav","None","721.146488446","222","346056.384535","352939.592194","353706.081097","339855.625082","340622.168089","341388.800448","342155.644281","342922.285606","346822.619606","347572.366161","348339.171966","349105.790721","349872.378868","350639.120056","351405.801573","352172.757018","352949.472751","Mapping"
"Blocked","Female","tile","18","F_dime.wav","space","681.230991671","222","346056.384535","352939.592194","353706.081097","354455.110061","340622.168089","341388.800448","342155.644281","342922.285606","346822.619606","347572.366161","348339.171966","349105.790721","349872.378868","350639.120056","351405.801573","352172.757018","353716.227543","Mapping"
"Blocked","Female","tile","18","F_jaw.wav","None","735.319915402","222","346056.384535","352939.592194","353706.081097","354455.110061","355221.965643","341388.800448","342155.644281","342922.285606","346822.619606","347572.366161","348339.171966","349105.790721","349872.378868","350639.120056","351405.801573","352172.757018","354464.910851","Mapping"
"Blocked","Female","tile","18","F_dime.wav","None","733.978412929","222","346056.384535","352939.592194","353706.081097","354455.110061","355221.965643","355989.022187","342155.644281","342922.285606","346822.619606","347572.366161","348339.171966","349105.790721","349872.378868","350639.120056","351405.801573","352172.757018","355231.407174","Mapping"
"Blocked","Female","tile","18","F_tile.wav","None","731.134019501","222","346056.384535","352939.592194","353706.081097","354455.110061","355221.965643","355989.022187","356755.660729","342922.285606","346822.619606","347572.366161","348339.171966","349105.790721","349872.378868","350639.120056","351405.801573","352172.757018","355999.026104","Mapping"
"Blocked","Female","tile","18","F_reek.wav","space","488.237969403","222","346056.384535","352939.592194","353706.081097","354455.110061","355221.965643","355989.022187","356755.660729","357522.28134","346822.619606","347572.366161","348339.171966","349105.790721","349872.378868","350639.120056","351405.801573","352172.757018","356765.161003","Mapping"
"Blocked","Female","cave","9","F_reek.wav","None","727.551320451","222","360656.021009","352939.592194","353706.081097","354455.110061","355221.965643","355989.022187","356755.660729","357522.28134","346822.619606","347572.366161","348339.171966","349105.790721","349872.378868","350639.120056","351405.801573","352172.757018","357532.11583","Mapping"
"Blocked","Female","cave","9","F_ball.wav","None","720.882145339","222","360656.021009","352939.592194","353706.081097","354455.110061","355221.965643","355989.022187","356755.660729","357522.28134","361422.268447","347572.366161","348339.171966","349105.790721","349872.378868","350639.120056","351405.801573","352172.757018","360665.842823","Mapping"
"Blocked","Female","cave","9","F_cave.wav","None","719.950606464","222","360656.021009","352939.592194","353706.081097","354455.110061","355221.965643","355989.022187","356755.660729","357522.28134","361422.268447","362172.198033","348339.171966","349105.790721","349872.378868","350639.120056","351405.801573","352172.757018","361431.662984","Mapping"
"Blocked","Female","cave","9","F_bluff.wav","space","551.043722371","222","360656.021009","352939.592194","353706.081097","354455.110061","355221.965643","355989.022187","356755.660729","357522.28134","361422.268447","362172.198033","362938.45722","349105.790721","349872.378868","350639.120056","351405.801573","352172.757018","362182.231631","Mapping"
"Blocked","Female","cave","9","F_cave.wav","None","733.17610845","222","360656.021009","352939.592194","353706.081097","354455.110061","355221.965643","355989.022187","356755.660729","357522.28134","361422.268447","362172.198033","362938.45722","363705.092052","349872.378868","350639.120056","351405.801573","352172.757018","362947.729015","Mapping"
"Blocked","Female","cave","9","F_greet.wav","space","610.66839227","222","360656.021009","352939.592194","353706.081097","354455.110061","355221.965643","355989.022187","356755.660729","357522.28134","361422.268447","362172.198033","362938.45722","363705.092052","364472.112732","350639.120056","351405.801573","352172.757018","363714.566974","Mapping"
"Blocked","Female","cave","9","F_knife.wav","None","697.937783843","222","360656.021009","352939.592194","353706.081097","354455.110061","355221.965643","355989.022187","356755.660729","357522.28134","361422.268447","362172.198033","362938.45722","363705.092052","364472.112732","365238.802597","351405.801573","352172.757018","364512.375121","Mapping"
"Blocked","Female","cave","9","F_reek.wav","None","724.091981479","222","360656.021009","352939.592194","353706.081097","354455.110061","355221.965643","355989.022187","356755.660729","357522.28134","361422.268447","362172.198033","362938.45722","363705.092052","364472.112732","365238.802597","366004.875971","352172.757018","365251.099343","Mapping"
"Blocked","Female","cave","9","F_cave.wav","None","725.931252877","222","360656.021009","352939.592194","353706.081097","354455.110061","355221.965643","355989.022187","356755.660729","357522.28134","361422.268447","362172.198033","362938.45722","363705.092052","364472.112732","365238.802597","366004.875971","366771.951684","366014.221349","Mapping"
"Blocked","Female","cave","9","F_gnash.wav","space","512.155608099","222","360656.021009","367539.562266","353706.081097","354455.110061","355221.965643","355989.022187","356755.660729","357522.28134","361422.268447","362172.198033","362938.45722","363705.092052","364472.112732","365238.802597","366004.875971","366771.951684","366781.048796","Mapping"
"Blocked","Female","cave","9","F_jolt.wav","None","720.429824956","222","360656.021009","367539.562266","368305.199397","354455.110061","355221.965643","355989.022187","356755.660729","357522.28134","361422.268447","362172.198033","362938.45722","363705.092052","364472.112732","365238.802597","366004.875971","366771.951684","367549.206306","Mapping"
"Blocked","Female","cave","9","F_cave.wav","None","719.850743539","222","360656.021009","367539.562266","368305.199397","369055.229773","355221.965643","355989.022187","356755.660729","357522.28134","361422.268447","362172.198033","362938.45722","363705.092052","364472.112732","365238.802597","366004.875971","366771.951684","368314.614339","Mapping"
"Blocked","Female","cave","9","F_dime.wav","space","588.51087658","222","360656.021009","367539.562266","368305.199397","369055.229773","369822.028776","355989.022187","356755.660729","357522.28134","361422.268447","362172.198033","362938.45722","363705.092052","364472.112732","365238.802597","366004.875971","366771.951684","369064.639459","Mapping"
"Blocked","Female","cave","9","F_jolt.wav","None","732.28785384","222","360656.021009","367539.562266","368305.199397","369055.229773","369822.028776","370588.768727","356755.660729","357522.28134","361422.268447","362172.198033","362938.45722","363705.092052","364472.112732","365238.802597","366004.875971","366771.951684","369831.589339","Mapping"
"Blocked","Female","cave","9","F_tile.wav","None","730.782180384","222","360656.021009","367539.562266","368305.199397","369055.229773","369822.028776","370588.768727","371355.14138","357522.28134","361422.268447","362172.198033","362938.45722","363705.092052","364472.112732","365238.802597","366004.875971","366771.951684","370598.175012","Mapping"
"Blocked","Female","cave","9","F_ball.wav","None","729.771493177","222","360656.021009","367539.562266","368305.199397","369055.229773","369822.028776","370588.768727","371355.14138","372121.949968","361422.268447","362172.198033","362938.45722","363705.092052","364472.112732","365238.802597","366004.875971","366771.951684","371364.365253","Mapping"
"Blocked","Female","cave","8","F_depth.wav","None","727.331498289","222","375255.562567","367539.562266","368305.199397","369055.229773","369822.028776","370588.768727","371355.14138","372121.949968","361422.268447","362172.198033","362938.45722","363705.092052","364472.112732","365238.802597","366004.875971","366771.951684","372131.693252","Mapping"
"Blocked","Female","cave","8","F_reek.wav","None","721.443294722","222","375255.562567","367539.562266","368305.199397","369055.229773","369822.028776","370588.768727","371355.14138","372121.949968","376022.394342","362172.198033","362938.45722","363705.092052","364472.112732","365238.802597","366004.875971","366771.951684","375265.022958","Mapping"
"Blocked","Female","cave","8","F_ball.wav","None","719.821990468","222","375255.562567","367539.562266","368305.199397","369055.229773","369822.028776","370588.768727","371355.14138","372121.949968","376022.394342","376771.637564","362938.45722","363705.092052","364472.112732","365238.802597","366004.875971","366771.951684","376032.145356","Mapping"
"Blocked","Female","cave","8","F_depth.wav","None","735.860040993","222","375255.562567","367539.562266","368305.199397","369055.229773","369822.028776","370588.768727","371355.14138","372121.949968","376022.394342","376771.637564","377538.597955","363705.092052","364472.112732","365238.802597","366004.875971","366771.951684","376781.064873","Mapping"
"Blocked","Female","cave","8","F_cave.wav","None","733.996963303","222","375255.562567","367539.562266","368305.199397","369055.229773","369822.028776","370588.768727","371355.14138","372121.949968","376022.394342","376771.637564","377538.597955","378305.490019","364472.112732","365238.802597","366004.875971","366771.951684","377547.967449","Mapping"
"Blocked","Female","cave","8","F_romp.wav","space","543.971385399","222","375255.562567","367539.562266","368305.199397","369055.229773","369822.028776","370588.768727","371355.14138","372121.949968","376022.394342","376771.637564","377538.597955","378305.490019","379071.817224","365238.802597","366004.875971","366771.951684","378309.000681","Mapping"
"Blocked","Female","cave","8","F_done.wav","None","729.93566416","222","375255.562567","367539.562266","368305.199397","369055.229773","369822.028776","370588.768727","371355.14138","372121.949968","376022.394342","376771.637564","377538.597955","378305.490019","379071.817224","379838.564905","366004.875971","366771.951684","379081.302349","Mapping"
"Blocked","Female","cave","8","F_cave.wav","None","727.914289746","222","375255.562567","367539.562266","368305.199397","369055.229773","369822.028776","370588.768727","371355.14138","372121.949968","376022.394342","376771.637564","377538.597955","378305.490019","379071.817224","379838.564905","380604.776479","366771.951684","379848.231823","Mapping"
"Blocked","Female","cave","8","F_reek.wav","space","527.332920523","222","375255.562567","367539.562266","368305.199397","369055.229773","369822.028776","370588.768727","371355.14138","372121.949968","376022.394342","376771.637564","377538.597955","378305.490019","379071.817224","379838.564905","380604.776479","381372.343468","380613.593789","Mapping"
"Blocked","Female","cave","8","F_cling.wav","None","723.565459542","222","375255.562567","382139.386409","368305.199397","369055.229773","369822.028776","370588.768727","371355.14138","372121.949968","376022.394342","376771.637564","377538.597955","378305.490019","379071.817224","379838.564905","380604.776479","381372.343468","381381.958445","Mapping"
"Blocked","Female","cave","8","F_cave.wav","None","721.797607199","222","375255.562567","382139.386409","382905.476787","369055.229773","369822.028776","370588.768727","371355.14138","372121.949968","376022.394342","376771.637564","377538.597955","378305.490019","379071.817224","379838.564905","380604.776479","381372.343468","382148.842471","Mapping"
"Blocked","Female","cave","8","F_lash.wav","space","617.559553706","222","375255.562567","382139.386409","382905.476787","383654.840895","369822.028776","370588.768727","371355.14138","372121.949968","376022.394342","376771.637564","377538.597955","378305.490019","379071.817224","379838.564905","380604.776479","381372.343468","382915.34003","Mapping"
"Blocked","Female","cave","8","F_bluff.wav","None","736.146335432","222","375255.562567","382139.386409","382905.476787","383654.840895","384421.933922","370588.768727","371355.14138","372121.949968","376022.394342","376771.637564","377538.597955","378305.490019","379071.817224","379838.564905","380604.776479","381372.343468","383663.949137","Mapping"
"Blocked","Female","cave","8","F_bluff.wav","None","733.654708543","222","375255.562567","382139.386409","382905.476787","383654.840895","384421.933922","385188.479712","371355.14138","372121.949968","376022.394342","376771.637564","377538.597955","378305.490019","379071.817224","379838.564905","380604.776479","381372.343468","384431.461403","Mapping"
"Blocked","Female","cave","8","F_cave.wav","None","732.438730367","222","375255.562567","382139.386409","382905.476787","383654.840895","384421.933922","385188.479712","385955.140205","372121.949968","376022.394342","376771.637564","377538.597955","378305.490019","379071.817224","379838.564905","380604.776479","381372.343468","385197.781806","Mapping"
"Blocked","Female","cave","8","F_depth.wav","space","592.087082972","222","375255.562567","382139.386409","382905.476787","383654.840895","384421.933922","385188.479712","385955.140205","386721.773801","376022.394342","376771.637564","377538.597955","378305.490019","379071.817224","379838.564905","380604.776479","381372.343468","385964.744053","Mapping"
"Blocked","Female","done","20","F_ball.wav","None","729.107079969","222","389855.523055","382139.386409","382905.476787","383654.840895","384421.933922","385188.479712","385955.140205","386721.773801","376022.394342","376771.637564","377538.597955","378305.490019","379071.817224","379838.564905","380604.776479","381372.343468","386730.933057","Mapping"
"Blocked","Female","done","20","F_cad.wav","None","721.42536263","222","389855.523055","382139.386409","382905.476787","383654.840895","384421.933922","385188.479712","385955.140205","386721.773801","390621.97702","376771.637564","377538.597955","378305.490019","379071.817224","379838.564905","380604.776479","381372.343468","389864.799178","Mapping"
"Blocked","Female","done","20","F_done.wav","None","719.686263357","222","389855.523055","382139.386409","382905.476787","383654.840895","384421.933922","385188.479712","385955.140205","386721.773801","390621.97702","391371.555076","377538.597955","378305.490019","379071.817224","379838.564905","380604.776479","381372.343468","390631.537583","Mapping"
"Blocked","Female","done","20","F_park.wav","space","631.582722533","222","389855.523055","382139.386409","382905.476787","383654.840895","384421.933922","385188.479712","385955.140205","386721.773801","390621.97702","391371.555076","392138.370156","378305.490019","379071.817224","379838.564905","380604.776479","381372.343468","391381.181493","Mapping"
"Blocked","Female","done","20","F_done.wav","None","732.631963619","222","389855.523055","382139.386409","382905.476787","383654.840895","384421.933922","385188.479712","385955.140205","386721.773801","390621.97702","391371.555076","392138.370156","392905.153082","379071.817224","379838.564905","380604.776479","381372.343468","392148.291524","Mapping"
"Blocked","Female","done","20","F_priest.wav","space","474.134415505","222","389855.523055","382139.386409","382905.476787","383654.840895","384421.933922","385188.479712","385955.140205","386721.773801","390621.97702","391371.555076","392138.370156","392905.153082","393671.622816","379838.564905","380604.776479","381372.343468","392914.597087","Mapping"
"Blocked","Female","done","20","F_jaw.wav","None","729.5359032","222","389855.523055","382139.386409","382905.476787","383654.840895","384421.933922","385188.479712","385955.140205","386721.773801","390621.97702","391371.555076","392138.370156","392905.153082","393671.622816","394438.029788","380604.776479","381372.343468","393680.679117","Mapping"
"Blocked","Female","done","20","F_romp.wav","None","727.939023636","222","389855.523055","382139.386409","382905.476787","383654.840895","384421.933922","385188.479712","385955.140205","386721.773801","390621.97702","391371.555076","392138.370156","392905.153082","393671.622816","394438.029788","395204.515907","381372.343468","394447.246241","Mapping"
"Blocked","Female","done","20","F_reek.wav","None","726.925863011","222","389855.523055","382139.386409","382905.476787","383654.840895","384421.933922","385188.479712","385955.140205","386721.773801","390621.97702","391371.555076","392138.370156","392905.153082","393671.622816","394438.029788","395204.515907","395971.230506","395213.361971","Mapping"
"Blocked","Female","done","20","F_done.wav","None","724.92056567","222","389855.523055","396738.118551","382905.476787","383654.840895","384421.933922","385188.479712","385955.140205","386721.773801","390621.97702","391371.555076","392138.370156","392905.153082","393671.622816","394438.029788","395204.515907","395971.230506","395980.316797","Mapping"
"Blocked","Female","done","20","F_ball.wav","space","433.465772774","222","389855.523055","396738.118551","397505.289799","383654.840895","384421.933922","385188.479712","385955.140205","386721.773801","390621.97702","391371.555076","392138.370156","392905.153082","393671.622816","394438.029788","395204.515907","395971.230506","396747.237615","Mapping"
"Blocked","Female","done","20","F_greet.wav","None","719.745315495","222","389855.523055","396738.118551","397505.289799","398254.678332","384421.933922","385188.479712","385955.140205","386721.773801","390621.97702","391371.555076","392138.370156","392905.153082","393671.622816","394438.029788","395204.515907","395971.230506","397515.136347","Mapping"
"Blocked","Female","done","20","F_done.wav","None","735.874262988","222","389855.523055","396738.118551","397505.289799","398254.678332","399021.467132","385188.479712","385955.140205","386721.773801","390621.97702","391371.555076","392138.370156","392905.153082","393671.622816","394438.029788","395204.515907","395971.230506","398264.198084","Mapping"
"Blocked","Female","done","20","F_jolt.wav","space","485.750670952","222","389855.523055","396738.118551","397505.289799","398254.678332","399021.467132","399788.234909","385955.140205","386721.773801","390621.97702","391371.555076","392138.370156","392905.153082","393671.622816","394438.029788","395204.515907","395971.230506","399030.855176","Mapping"
"Blocked","Female","done","20","F_park.wav","None","732.045771263","222","389855.523055","396738.118551","397505.289799","398254.678332","399021.467132","399788.234909","400554.866031","386721.773801","390621.97702","391371.555076","392138.370156","392905.153082","393671.622816","394438.029788","395204.515907","395971.230506","399797.721888","Mapping"
"Blocked","Female","done","20","F_jolt.wav","None","730.430959607","222","389855.523055","396738.118551","397505.289799","398254.678332","399021.467132","399788.234909","400554.866031","401321.501172","390621.97702","391371.555076","392138.370156","392905.153082","393671.622816","394438.029788","395204.515907","395971.230506","400564.488737","Mapping"
"Blocked","Female","cave","12","F_cling.wav","None","728.667126503","222","404454.848191","396738.118551","397505.289799","398254.678332","399021.467132","399788.234909","400554.866031","401321.501172","390621.97702","391371.555076","392138.370156","392905.153082","393671.622816","394438.029788","395204.515907","395971.230506","401331.336281","Mapping"
"Blocked","Female","cave","12","F_cave.wav","None","721.248515591","222","404454.848191","396738.118551","397505.289799","398254.678332","399021.467132","399788.234909","400554.866031","401321.501172","405221.859906","391371.555076","392138.370156","392905.153082","393671.622816","394438.029788","395204.515907","395971.230506","404464.678044","Mapping"
"Blocked","Female","cave","12","F_lash.wav","space","540.73125025","222","404454.848191","396738.118551","397505.289799","398254.678332","399021.467132","399788.234909","400554.866031","401321.501172","405221.859906","405971.340263","392138.370156","392905.153082","393671.622816","394438.029788","395204.515907","395971.230506","405231.781274","Mapping"
"Blocked","Female","cave","12","F_cling.wav","None","734.518229321","222","404454.848191","396738.118551","397505.289799","398254.678332","399021.467132","399788.234909","400554.866031","401321.501172","405221.859906","405971.340263","406738.082996","392905.153082","393671.622816","394438.029788","395204.515907","395971.230506","405981.062214","Mapping"
"Blocked","Female","cave","12","F_cave.wav","None","733.142717741","222","404454.848191","396738.118551","397505.289799","398254.678332","399021.467132","399788.234909","400554.866031","401321.501172","405221.859906","405971.340263","406738.082996","407504.434626","393671.622816","394438.029788","395204.515907","395971.230506","406747.518653","Mapping"
"Blocked","Female","cave","12","F_bluff.wav","space","522.625140205","222","404454.848191","396738.118551","397505.289799","398254.678332","399021.467132","399788.234909","400554.866031","401321.501172","405221.859906","405971.340263","406738.082996","407504.434626","408270.976397","394438.029788","395204.515907","395971.230506","407513.839984","Mapping"
"Blocked","Female","cave","12","F_cave.wav","None","730.190113711","222","404454.848191","396738.118551","397505.289799","398254.678332","399021.467132","399788.234909","400554.866031","401321.501172","405221.859906","405971.340263","406738.082996","407504.434626","408270.976397","409037.628543","395204.515907","395971.230506","408280.136889","Mapping"
"Blocked","Female","cave","12","F_reek.wav","space","595.111415198","222","404454.848191","396738.118551","397505.289799","398254.678332","399021.467132","399788.234909","400554.866031","401321.501172","405221.859906","405971.340263","406738.082996","407504.434626","408270.976397","409037.628543","409804.255336","395971.230506","409041.327491","Mapping"
"Blocked","Female","cave","12","F_jaw.wav","None","727.056643344","222","404454.848191","396738.118551","397505.289799","398254.678332","399021.467132","399788.234909","400554.866031","401321.501172","405221.859906","405971.340263","406738.082996","407504.434626","408270.976397","409037.628543","409804.255336","410571.011673","409813.341937","Mapping"
"Blocked","Female","cave","12","F_reek.wav","None","725.2340673","222","404454.848191","411337.969282","397505.289799","398254.678332","399021.467132","399788.234909","400554.866031","401321.501172","405221.859906","405971.340263","406738.082996","407504.434626","408270.976397","409037.628543","409804.255336","410571.011673","410580.240184","Mapping"
"Blocked","Female","cave","12","F_romp.wav","None","722.919596708","222","404454.848191","411337.969282","412105.079932","398254.678332","399021.467132","399788.234909","400554.866031","401321.501172","405221.859906","405971.340263","406738.082996","407504.434626","408270.976397","409037.628543","409804.255336","410571.011673","411347.817376","Mapping"
"Blocked","Female","cave","12","F_knife.wav","None","720.673762611","222","404454.848191","411337.969282","412105.079932","412872.252726","399021.467132","399788.234909","400554.866031","401321.501172","405221.859906","405971.340263","406738.082996","407504.434626","408270.976397","409037.628543","409804.255336","410571.011673","412115.069318","Mapping"
"Blocked","Female","cave","12","F_lash.wav","None","718.552216073","222","404454.848191","411337.969282","412105.079932","412872.252726","413620.901407","399788.234909","400554.866031","401321.501172","405221.859906","405971.340263","406738.082996","407504.434626","408270.976397","409037.628543","409804.255336","410571.011673","412882.41463","Mapping"
"Blocked","Female","cave","12","F_cad.wav","None","735.677319637","222","404454.848191","411337.969282","412105.079932","412872.252726","413620.901407","414387.486462","400554.866031","401321.501172","405221.859906","405971.340263","406738.082996","407504.434626","408270.976397","409037.628543","409804.255336","410571.011673","413630.401372","Mapping"
"Blocked","Female","cave","12","F_cave.wav","None","734.994974395","222","404454.848191","411337.969282","412105.079932","412872.252726","413620.901407","414387.486462","415154.486119","401321.501172","405221.859906","405971.340263","406738.082996","407504.434626","408270.976397","409037.628543","409804.255336","410571.011673","414396.363134","Mapping"
"Blocked","Female","cave","12","F_cad.wav","space","608.114930801","222","404454.848191","411337.969282","412105.079932","412872.252726","413620.901407","414387.486462","415154.486119","415921.140738","405221.859906","405971.340263","406738.082996","407504.434626","408270.976397","409037.628543","409804.255336","410571.011673","415164.234968","Mapping"
"Blocked","Female","ball","3","F_cad.wav","None","730.523402395","222","419054.754574","411337.969282","412105.079932","412872.252726","413620.901407","414387.486462","415154.486119","415921.140738","405221.859906","405971.340263","406738.082996","407504.434626","408270.976397","409037.628543","409804.255336","410571.011673","415930.346061","Mapping"
"Blocked","Female","ball","3","F_ball.wav","None","721.542539308","222","419054.754574","411337.969282","412105.079932","412872.252726","413620.901407","414387.486462","415154.486119","415921.140738","419821.617885","405971.340263","406738.082996","407504.434626","408270.976397","409037.628543","409804.255336","410571.011673","419064.276181","Mapping"
"Blocked","Female","ball","3","F_romp.wav","space","508.643709763","222","419054.754574","411337.969282","412105.079932","412872.252726","413620.901407","414387.486462","415154.486119","415921.140738","419821.617885","420570.916139","406738.082996","407504.434626","408270.976397","409037.628543","409804.255336","410571.011673","419831.589648","Mapping"
"Blocked","Female","ball","3","F_greet.wav","None","734.69507636","222","419054.754574","411337.969282","412105.079932","412872.252726","413620.901407","414387.486462","415154.486119","415921.140738","419821.617885","420570.916139","421354.084626","407504.434626","408270.976397","409037.628543","409804.255336","410571.011673","420580.85142","Mapping"
"Blocked","Female","ball","3","F_ball.wav","None","720.255142078","222","419054.754574","411337.969282","412105.079932","412872.252726","413620.901407","414387.486462","415154.486119","415921.140738","419821.617885","420570.916139","421354.084626","422104.182093","408270.976397","409037.628543","409804.255336","410571.011673","421362.921105","Mapping"
"Blocked","Female","ball","3","F_cave.wav","space","514.673205442","222","419054.754574","411337.969282","412105.079932","412872.252726","413620.901407","414387.486462","415154.486119","415921.140738","419821.617885","420570.916139","421354.084626","422104.182093","422870.773023","409037.628543","409804.255336","410571.011673","422113.55035","Mapping"
"Blocked","Female","ball","3","F_cling.wav","None","732.789023663","222","419054.754574","411337.969282","412105.079932","412872.252726","413620.901407","414387.486462","415154.486119","415921.140738","419821.617885","420570.916139","421354.084626","422104.182093","422870.773023","423637.38343","409804.255336","410571.011673","422879.985147","Mapping"
"Blocked","Female","ball","3","F_priest.wav","None","731.205438497","222","419054.754574","411337.969282","412105.079932","412872.252726","413620.901407","414387.486462","415154.486119","415921.140738","419821.617885","420570.916139","421354.084626","422104.182093","422870.773023","423637.38343","424404.385251","410571.011673","423646.701601","Mapping"
"Blocked","Female","ball","3","F_romp.wav","None","729.439132032","222","419054.754574","411337.969282","412105.079932","412872.252726","413620.901407","414387.486462","415154.486119","415921.140738","419821.617885","420570.916139","421354.084626","422104.182093","422870.773023","423637.38343","424404.385251","425171.16694","424413.77886","Mapping"
"Blocked","Female","ball","3","F_ball.wav","None","728.488733526","222","419054.754574","425937.77271","412105.079932","412872.252726","413620.901407","414387.486462","415154.486119","415921.140738","419821.617885","420570.916139","421354.084626","422104.182093","422870.773023","423637.38343","424404.385251","425171.16694","425180.145948","Mapping"
"Blocked","Female","ball","3","F_jaw.wav","space","504.856028885","222","419054.754574","425937.77271","426704.248318","412872.252726","413620.901407","414387.486462","415154.486119","415921.140738","419821.617885","420570.916139","421354.084626","422104.182093","422870.773023","423637.38343","424404.385251","425171.16694","425947.265564","Mapping"
"Blocked","Female","ball","3","F_ball.wav","None","724.705690343","222","419054.754574","425937.77271","426704.248318","427471.298988","413620.901407","414387.486462","415154.486119","415921.140738","419821.617885","420570.916139","421354.084626","422104.182093","422870.773023","423637.38343","424404.385251","425171.16694","426713.58102","Mapping"
"Blocked","Female","ball","3","F_knife.wav","space","546.636149229","222","419054.754574","425937.77271","426704.248318","427471.298988","428238.409329","414387.486462","415154.486119","415921.140738","419821.617885","420570.916139","421354.084626","422104.182093","422870.773023","423637.38343","424404.385251","425171.16694","427481.461202","Mapping"
"Blocked","Female","ball","3","F_depth.wav","None","719.529203372","222","419054.754574","425937.77271","426704.248318","427471.298988","428238.409329","429004.116641","415154.486119","415921.140738","419821.617885","420570.916139","421354.084626","422104.182093","422870.773023","423637.38343","424404.385251","425171.16694","428248.515582","Mapping"
"Blocked","Female","ball","3","F_reek.wav","None","719.719344925","222","419054.754574","425937.77271","426704.248318","427471.298988","428238.409329","429004.116641","429754.051483","415921.140738","419821.617885","420570.916139","421354.084626","422104.182093","422870.773023","423637.38343","424404.385251","425171.16694","429013.576723","Mapping"
"Blocked","Female","ball","3","F_done.wav","None","735.03300274","222","419054.754574","425937.77271","426704.248318","427471.298988","428238.409329","429004.116641","429754.051483","430520.710431","419821.617885","420570.916139","421354.084626","422104.182093","422870.773023","423637.38343","424404.385251","425171.16694","429763.509709","Mapping"
"Blocked","Female","done","22","F_jaw.wav","None","733.725818398","222","433654.40527","425937.77271","426704.248318","427471.298988","428238.409329","429004.116641","429754.051483","430520.710431","419821.617885","420570.916139","421354.084626","422104.182093","422870.773023","423637.38343","424404.385251","425171.16694","430530.071886","Mapping"
"Blocked","Female","done","22","F_tile.wav","None","721.260573366","222","433654.40527","425937.77271","426704.248318","427471.298988","428238.409329","429004.116641","429754.051483","430520.710431","434421.270436","420570.916139","421354.084626","422104.182093","422870.773023","423637.38343","424404.385251","425171.16694","433664.010972","Mapping"
"Blocked","Female","done","22","F_done.wav","None","719.540024467","222","433654.40527","425937.77271","426704.248318","427471.298988","428238.409329","429004.116641","429754.051483","430520.710431","434421.270436","435170.422451","421354.084626","422104.182093","422870.773023","423637.38343","424404.385251","425171.16694","434430.990841","Mapping"
"Blocked","Female","done","22","F_jaw.wav","space","528.660510201","222","433654.40527","425937.77271","426704.248318","427471.298988","428238.409329","429004.116641","429754.051483","430520.710431","434421.270436","435170.422451","435937.15962","422104.182093","422870.773023","423637.38343","424404.385251","425171.16694","435179.333441","Mapping"
"Blocked","Female","done","22","F_done.wav","None","733.785179676","222","433654.40527","425937.77271","426704.248318","427471.298988","428238.409329","429004.116641","429754.051483","430520.710431","434421.270436","435170.422451","435937.15962","436703.647285","422870.773023","423637.38343","424404.385251","425171.16694","435946.348247","Mapping"
"Blocked","Female","done","22","F_knife.wav","space","531.160793849","222","433654.40527","425937.77271","426704.248318","427471.298988","428238.409329","429004.116641","429754.051483","430520.710431","434421.270436","435170.422451","435937.15962","436703.647285","437470.484317","423637.38343","424404.385251","425171.16694","436712.757383","Mapping"
"Blocked","Female","done","22","F_tile.wav","None","730.19165959","222","433654.40527","425937.77271","426704.248318","427471.298988","428238.409329","429004.116641","429754.051483","430520.710431","434421.270436","435170.422451","435937.15962","436703.647285","437470.484317","438237.650927","424404.385251","425171.16694","437479.593178","Mapping"
"Blocked","Female","done","22","F_done.wav","None","727.648091677","222","433654.40527","425937.77271","426704.248318","427471.298988","428238.409329","429004.116641","429754.051483","430520.710431","434421.270436","435170.422451","435937.15962","436703.647285","437470.484317","438237.650927","439003.603104","425171.16694","438247.380298","Mapping"
"Blocked","Female","done","22","F_lash.wav","space","502.979347541","222","433654.40527","425937.77271","426704.248318","427471.298988","428238.409329","429004.116641","429754.051483","430520.710431","434421.270436","435170.422451","435937.15962","436703.647285","437470.484317","438237.650927","439003.603104","439770.835878","439012.909836","Mapping"
"Blocked","Female","done","22","F_jolt.wav","None","724.216578295","222","433654.40527","440538.033714","426704.248318","427471.298988","428238.409329","429004.116641","429754.051483","430520.710431","434421.270436","435170.422451","435937.15962","436703.647285","437470.484317","438237.650927","439003.603104","439770.835878","439780.638523","Mapping"
"Blocked","Female","done","22","F_gnash.wav","None","722.24961844","222","433654.40527","440538.033714","441304.116981","427471.298988","428238.409329","429004.116641","429754.051483","430520.710431","434421.270436","435170.422451","435937.15962","436703.647285","437470.484317","438237.650927","439003.603104","439770.835878","440547.855837","Mapping"
"Blocked","Female","done","22","F_dime.wav","None","722.389364673","222","433654.40527","440538.033714","441304.116981","442071.026359","428238.409329","429004.116641","429754.051483","430520.710431","434421.270436","435170.422451","435937.15962","436703.647285","437470.484317","438237.650927","439003.603104","439770.835878","441312.993344","Mapping"
"Blocked","Female","done","22","F_tile.wav","space","490.776281338","222","433654.40527","440538.033714","441304.116981","442071.026359","442820.469616","429004.116641","429754.051483","430520.710431","434421.270436","435170.422451","435937.15962","436703.647285","437470.484317","438237.650927","439003.603104","439770.835878","442081.015745","Mapping"
"Blocked","Female","done","22","F_done.wav","None","735.105967557","222","433654.40527","440538.033714","441304.116981","442071.026359","442820.469616","443587.37281","429754.051483","430520.710431","434421.270436","435170.422451","435937.15962","436703.647285","437470.484317","438237.650927","439003.603104","439770.835878","442830.160959","Mapping"
"Blocked","Female","done","22","F_jaw.wav","space","510.928499687","222","433654.40527","440538.033714","441304.116981","442071.026359","442820.469616","443587.37281","444354.30383","430520.710431","434421.270436","435170.422451","435937.15962","436703.647285","437470.484317","438237.650927","439003.603104","439770.835878","443596.878958","Mapping"
"Blocked","Female","done","22","F_knife.wav","None","731.327871035","222","433654.40527","440538.033714","441304.116981","442071.026359","442820.469616","443587.37281","444354.30383","445120.721004","434421.270436","435170.422451","435937.15962","436703.647285","437470.484317","438237.650927","439003.603104","439770.835878","444363.838113","Mapping"
"Blocked","Female","ball","1","F_park.wav","None","730.219794321","222","448254.583725","440538.033714","441304.116981","442071.026359","442820.469616","443587.37281","444354.30383","445120.721004","434421.270436","435170.422451","435937.15962","436703.647285","437470.484317","438237.650927","439003.603104","439770.835878","445130.352986","Mapping"
"Blocked","Female","ball","1","F_jaw.wav","None","721.362909651","222","448254.583725","440538.033714","441304.116981","442071.026359","442820.469616","443587.37281","444354.30383","445120.721004","449020.966581","435170.422451","435937.15962","436703.647285","437470.484317","438237.650927","439003.603104","439770.835878","448263.915808","Mapping"
"Blocked","Female","ball","1","F_cad.wav","None","720.518866787","222","448254.583725","440538.033714","441304.116981","442071.026359","442820.469616","443587.37281","444354.30383","445120.721004","449020.966581","449787.758782","435937.15962","436703.647285","437470.484317","438237.650927","439003.603104","439770.835878","449030.714193","Mapping"
"Blocked","Female","ball","1","F_ball.wav","None","718.583751761","222","448254.583725","440538.033714","441304.116981","442071.026359","442820.469616","443587.37281","444354.30383","445120.721004","449020.966581","449787.758782","450537.057036","436703.647285","437470.484317","438237.650927","439003.603104","439770.835878","449798.091041","Mapping"
"Blocked","Female","ball","1","F_knife.wav","space","497.056516528","222","448254.583725","440538.033714","441304.116981","442071.026359","442820.469616","443587.37281","444354.30383","445120.721004","449020.966581","449787.758782","450537.057036","451303.847073","437470.484317","438237.650927","439003.603104","439770.835878","450546.662429","Mapping"
"Blocked","Female","ball","1","F_jaw.wav","None","733.726745937","222","448254.583725","440538.033714","441304.116981","442071.026359","442820.469616","443587.37281","444354.30383","445120.721004","449020.966581","449787.758782","450537.057036","451303.847073","452070.196229","438237.650927","439003.603104","439770.835878","451313.147312","Mapping"
"Blocked","Female","ball","1","F_jaw.wav","None","732.908982784","222","448254.583725","440538.033714","441304.116981","442071.026359","442820.469616","443587.37281","444354.30383","445120.721004","449020.966581","449787.758782","450537.057036","451303.847073","452070.196229","452836.561462","439003.603104","439770.835878","452079.612099","Mapping"
"Blocked","Female","ball","1","F_ball.wav","None","735.688140674","222","448254.583725","440538.033714","441304.116981","442071.026359","442820.469616","443587.37281","444354.30383","445120.721004","449020.966581","449787.758782","450537.057036","451303.847073","452070.196229","452836.561462","453603.635939","439770.835878","452845.320648","Mapping"
"Blocked","Female","ball","1","F_priest.wav","space","606.447559781","222","448254.583725","440538.033714","441304.116981","442071.026359","442820.469616","443587.37281","444354.30383","445120.721004","449020.966581","449787.758782","450537.057036","451303.847073","452070.196229","452836.561462","453603.635939","454370.807186","453613.221854","Mapping"
"Blocked","Female","ball","1","F_dime.wav","None","730.843087484","222","448254.583725","455136.827382","441304.116981","442071.026359","442820.469616","443587.37281","444354.30383","445120.721004","449020.966581","449787.758782","450537.057036","451303.847073","452070.196229","452836.561462","453603.635939","454370.807186","454380.203578","Mapping"
"Blocked","Female","ball","1","F_lash.wav","None","730.385511124","222","448254.583725","455136.827382","455903.891965","442071.026359","442820.469616","443587.37281","444354.30383","445120.721004","449020.966581","449787.758782","450537.057036","451303.847073","452070.196229","452836.561462","453603.635939","454370.807186","455146.051255","Mapping"
"Blocked","Female","ball","1","F_ball.wav","None","728.501718841","222","448254.583725","455136.827382","455903.891965","456670.507628","442820.469616","443587.37281","444354.30383","445120.721004","449020.966581","449787.758782","450537.057036","451303.847073","452070.196229","452836.561462","453603.635939","454370.807186","455913.370906","Mapping"
"Blocked","Female","ball","1","F_bluff.wav","space","627.818229608","222","448254.583725","455136.827382","455903.891965","456670.507628","457437.199967","443587.37281","444354.30383","445120.721004","449020.966581","449787.758782","450537.057036","451303.847073","452070.196229","452836.561462","453603.635939","454370.807186","456679.749743","Mapping"
"Blocked","Female","ball","1","F_done.wav","None","725.295283599","222","448254.583725","455136.827382","455903.891965","456670.507628","457437.199967","458203.605702","444354.30383","445120.721004","449020.966581","449787.758782","450537.057036","451303.847073","452070.196229","452836.561462","453603.635939","454370.807186","457447.057645","Mapping"
"Blocked","Female","ball","1","F_ball.wav","None","724.958903156","222","448254.583725","455136.827382","455903.891965","456670.507628","457437.199967","458203.605702","458970.906493","445120.721004","449020.966581","449787.758782","450537.057036","451303.847073","452070.196229","452836.561462","453603.635939","454370.807186","458212.985707","Mapping"
"Blocked","Female","ball","1","F_knife.wav","space","662.837659649","222","448254.583725","455136.827382","455903.891965","456670.507628","457437.199967","458203.605702","458970.906493","459736.915249","449020.966581","449787.758782","450537.057036","451303.847073","452070.196229","452836.561462","453603.635939","454370.807186","458980.684404","Mapping"
"Blocked","Female","tile","17","F_park.wav","None","722.000734007","222","462853.851973","455136.827382","455903.891965","456670.507628","457437.199967","458203.605702","458970.906493","459736.915249","449020.966581","449787.758782","450537.057036","451303.847073","452070.196229","452836.561462","453603.635939","454370.807186","459745.88962","Mapping"
"Blocked","Female","tile","17","F_greet.wav","None","722.177890246","222","462853.851973","455136.827382","455903.891965","456670.507628","457437.199967","458203.605702","458970.906493","459736.915249","463620.768772","449787.758782","450537.057036","451303.847073","452070.196229","452836.561462","453603.635939","454370.807186","462863.219303","Mapping"
"Blocked","Female","tile","17","F_greet.wav","None","720.530306222","222","462853.851973","455136.827382","455903.891965","456670.507628","457437.199967","458203.605702","458970.906493","459736.915249","463620.768772","464387.594673","450537.057036","451303.847073","452070.196229","452836.561462","453603.635939","454370.807186","463630.519167","Mapping"
"Blocked","Female","tile","17","F_tile.wav","None","719.477571547","222","462853.851973","455136.827382","455903.891965","456670.507628","457437.199967","458203.605702","458970.906493","459736.915249","463620.768772","464387.594673","465137.124188","451303.847073","452070.196229","452836.561462","453603.635939","454370.807186","464397.251698","Mapping"
"Blocked","Female","tile","17","F_depth.wav","space","544.77461736","222","462853.851973","455136.827382","455903.891965","456670.507628","457437.199967","458203.605702","458970.906493","459736.915249","463620.768772","464387.594673","465137.124188","465903.364825","452070.196229","452836.561462","453603.635939","454370.807186","465146.613951","Mapping"
"Blocked","Female","tile","17","F_greet.wav","None","734.454230464","222","462853.851973","455136.827382","455903.891965","456670.507628","457437.199967","458203.605702","458970.906493","459736.915249","463620.768772","464387.594673","465137.124188","465903.364825","466670.251633","452836.561462","453603.635939","454370.807186","465912.631982","Mapping"
"Blocked","Female","tile","17","F_cling.wav","None","733.356047247","222","462853.851973","455136.827382","455903.891965","456670.507628","457437.199967","458203.605702","458970.906493","459736.915249","463620.768772","464387.594673","465137.124188","465903.364825","466670.251633","467437.01539","453603.635939","454370.807186","466679.342871","Mapping"
"Blocked","Female","tile","17","F_bluff.wav","None","732.253226452","222","462853.851973","455136.827382","455903.891965","456670.507628","457437.199967","458203.605702","458970.906493","459736.915249","463620.768772","464387.594673","465137.124188","465903.364825","466670.251633","467437.01539","468203.132976","454370.807186","467446.401889","Mapping"
"Blocked","Female","tile","17","F_tile.wav","None","732.354326115","222","462853.851973","455136.827382","455903.891965","456670.507628","457437.199967","458203.605702","458970.906493","459736.915249","463620.768772","464387.594673","465137.124188","465903.364825","466670.251633","467437.01539","468203.132976","468970.257538","468211.980585","Mapping"
"Blocked","Female","tile","17","F_knife.wav","space","543.117139838","222","462853.851973","469736.969045","455903.891965","456670.507628","457437.199967","458203.605702","458970.906493","459736.915249","463620.768772","464387.594673","465137.124188","465903.364825","466670.251633","467437.01539","468203.132976","468970.257538","468980.25589","Mapping"
"Blocked","Female","tile","17","F_tile.wav","None","728.097320301","222","462853.851973","469736.969045","470503.542043","456670.507628","457437.199967","458203.605702","458970.906493","459736.915249","463620.768772","464387.594673","465137.124188","465903.364825","466670.251633","467437.01539","468203.132976","468970.257538","469746.455407","Mapping"
"Blocked","Female","tile","17","F_romp.wav","space","615.650409192","222","462853.851973","469736.969045","470503.542043","471270.278593","457437.199967","458203.605702","458970.906493","459736.915249","463620.768772","464387.594673","465137.124188","465903.364825","466670.251633","467437.01539","468203.132976","468970.257538","470507.680017","Mapping"
"Blocked","Female","tile","17","F_depth.wav","None","725.171305123","222","462853.851973","469736.969045","470503.542043","471270.278593","472037.365745","458203.605702","458970.906493","459736.915249","463620.768772","464387.594673","465137.124188","465903.364825","466670.251633","467437.01539","468203.132976","468970.257538","471279.844103","Mapping"
"Blocked","Female","tile","17","F_tile.wav","None","723.320285208","222","462853.851973","469736.969045","470503.542043","471270.278593","472037.365745","472803.7418","458970.906493","459736.915249","463620.768772","464387.594673","465137.124188","465903.364825","466670.251633","467437.01539","468203.132976","468970.257538","472047.239501","Mapping"
"Blocked","Female","tile","17","F_cling.wav","space","581.688660779","222","462853.851973","469736.969045","470503.542043","471270.278593","472037.365745","472803.7418","473570.716722","459736.915249","463620.768772","464387.594673","465137.124188","465903.364825","466670.251633","467437.01539","468203.132976","468970.257538","472813.618337","Mapping"
"Blocked","Female","tile","17","F_lash.wav","None","720.699423982","222","462853.851973","469736.969045","470503.542043","471270.278593","472037.365745","472803.7418","473570.716722","474337.236542","463620.768772","464387.594673","465137.124188","465903.364825","466670.251633","467437.01539","468203.132976","468970.257538","473580.061173","Mapping"
"Blocked","Female","tile","14","F_knife.wav","None","719.430886325","222","477453.979105","469736.969045","470503.542043","471270.278593","472037.365745","472803.7418","473570.716722","474337.236542","463620.768772","464387.594673","465137.124188","465903.364825","466670.251633","467437.01539","468203.132976","468970.257538","474347.263029","Mapping"
"Blocked","Female","tile","14","F_lash.wav","None","721.273867763","222","477453.979105","469736.969045","470503.542043","471270.278593","472037.365745","472803.7418","473570.716722","474337.236542","478220.340319","464387.594673","465137.124188","465903.364825","466670.251633","467437.01539","468203.132976","468970.257538","477463.354164","Mapping"
"Blocked","Female","tile","14","F_lash.wav","None","720.040575892","222","477453.979105","469736.969045","470503.542043","471270.278593","472037.365745","472803.7418","473570.716722","474337.236542","478220.340319","478987.199611","465137.124188","465903.364825","466670.251633","467437.01539","468203.132976","468970.257538","478230.462031","Mapping"
"Blocked","Female","tile","14","F_greet.wav","None","719.031743763","222","477453.979105","469736.969045","470503.542043","471270.278593","472037.365745","472803.7418","473570.716722","474337.236542","478220.340319","478987.199611","479736.371104","465903.364825","466670.251633","467437.01539","468203.132976","468970.257538","478997.200437","Mapping"
"Blocked","Female","tile","14","F_park.wav","None","736.747368122","222","477453.979105","469736.969045","470503.542043","471270.278593","472037.365745","472803.7418","473570.716722","474337.236542","478220.340319","478987.199611","479736.371104","480503.099925","466670.251633","467437.01539","468203.132976","468970.257538","479745.147295","Mapping"
"Blocked","Female","tile","14","F_jaw.wav","None","734.700332338","222","477453.979105","469736.969045","470503.542043","471270.278593","472037.365745","472803.7418","473570.716722","474337.236542","478220.340319","478987.199611","479736.371104","480503.099925","481269.986733","467437.01539","468203.132976","468970.257538","480512.996559","Mapping"
"Blocked","Female","tile","14","F_tile.wav","None","734.252958675","222","477453.979105","469736.969045","470503.542043","471270.278593","472037.365745","472803.7418","473570.716722","474337.236542","478220.340319","478987.199611","479736.371104","480503.099925","481269.986733","482036.749563","468203.132976","468970.257538","481279.274296","Mapping"
"Blocked","Female","tile","14","F_park.wav","space","548.693387653","222","477453.979105","469736.969045","470503.542043","471270.278593","472037.365745","472803.7418","473570.716722","474337.236542","478220.340319","478987.199611","479736.371104","480503.099925","481269.986733","482036.749563","482803.176322","468970.257538","482046.442143","Mapping"
"Blocked","Female","tile","14","F_tile.wav","None","731.173902808","222","477453.979105","469736.969045","470503.542043","471270.278593","472037.365745","472803.7418","473570.716722","474337.236542","478220.340319","478987.199611","479736.371104","480503.099925","481269.986733","482036.749563","482803.176322","483570.011807","482812.633312","Mapping"
"Blocked","Female","tile","14","F_romp.wav","space","583.221850626","222","477453.979105","484336.732899","470503.542043","471270.278593","472037.365745","472803.7418","473570.716722","474337.236542","478220.340319","478987.199611","479736.371104","480503.099925","481269.986733","482036.749563","482803.176322","483570.011807","483579.879997","Mapping"
"Blocked","Female","tile","14","F_bluff.wav","None","728.331673541","222","477453.979105","484336.732899","485103.355982","471270.278593","472037.365745","472803.7418","473570.716722","474337.236542","478220.340319","478987.199611","479736.371104","480503.099925","481269.986733","482036.749563","482803.176322","483570.011807","484346.143513","Mapping"
"Blocked","Female","tile","14","F_jaw.wav","None","727.496287611","222","477453.979105","484336.732899","485103.355982","485869.977829","472037.365745","472803.7418","473570.716722","474337.236542","478220.340319","478987.199611","479736.371104","480503.099925","481269.986733","482036.749563","482803.176322","483570.011807","485112.677245","Mapping"
"Blocked","Female","tile","14","F_tile.wav","None","726.704495028","222","477453.979105","484336.732899","485103.355982","485869.977829","486636.656255","472803.7418","473570.716722","474337.236542","478220.340319","478987.199611","479736.371104","480503.099925","481269.986733","482036.749563","482803.176322","483570.011807","485879.772127","Mapping"
"Blocked","Female","tile","14","F_dime.wav","space","524.984750024","222","477453.979105","484336.732899","485103.355982","485869.977829","486636.656255","487403.130317","473570.716722","474337.236542","478220.340319","478987.199611","479736.371104","480503.099925","481269.986733","482036.749563","482803.176322","483570.011807","486646.085728","Mapping"
"Blocked","Female","tile","14","F_tile.wav","None","724.484013102","222","477453.979105","484336.732899","485103.355982","485869.977829","486636.656255","487403.130317","488170.405756","474337.236542","478220.340319","478987.199611","479736.371104","480503.099925","481269.986733","482036.749563","482803.176322","483570.011807","487412.638939","Mapping"
"Blocked","Female","tile","14","F_ball.wav","space","638.952484122","222","477453.979105","484336.732899","485103.355982","485869.977829","486636.656255","487403.130317","488170.405756","488937.205686","478220.340319","478987.199611","479736.371104","480503.099925","481269.986733","482036.749563","482803.176322","483570.011807","488180.098026","Mapping"
"Blocked","Female","tile","15","F_knife.wav","None","720.349749085","222","492053.404105","484336.732899","485103.355982","485869.977829","486636.656255","487403.130317","488170.405756","488937.205686","478220.340319","478987.199611","479736.371104","480503.099925","481269.986733","482036.749563","482803.176322","483570.011807","488947.134475","Mapping"
"Blocked","Female","tile","15","F_jolt.wav","None","721.602209727","222","492053.404105","484336.732899","485103.355982","485869.977829","486636.656255","487403.130317","488170.405756","488937.205686","492820.367588","478987.199611","479736.371104","480503.099925","481269.986733","482036.749563","482803.176322","483570.011807","492062.879645","Mapping"
"Blocked","Female","tile","15","F_romp.wav","None","719.919998373","222","492053.404105","484336.732899","485103.355982","485869.977829","486636.656255","487403.130317","488170.405756","488937.205686","492820.367588","493586.986034","479736.371104","480503.099925","481269.986733","482036.749563","482803.176322","483570.011807","492830.356047","Mapping"
"Blocked","Female","tile","15","F_cling.wav","None","719.351428794","222","492053.404105","484336.732899","485103.355982","485869.977829","486636.656255","487403.130317","488170.405756","488937.205686","492820.367588","493586.986034","494336.671373","480503.099925","481269.986733","482036.749563","482803.176322","483570.011807","493596.664701","Mapping"
"Blocked","Female","tile","15","F_cad.wav","None","735.363818065","222","492053.404105","484336.732899","485103.355982","485869.977829","486636.656255","487403.130317","488170.405756","488937.205686","492820.367588","493586.986034","494336.671373","495102.472675","481269.986733","482036.749563","482803.176322","483570.011807","494346.484221","Mapping"
"Blocked","Female","tile","15","F_tile.wav","None","736.305868777","222","492053.404105","484336.732899","485103.355982","485869.977829","486636.656255","487403.130317","488170.405756","488937.205686","492820.367588","493586.986034","494336.671373","495102.472675","495869.425646","482036.749563","482803.176322","483570.011807","495111.419219","Mapping"
"Blocked","Female","tile","15","F_cad.wav","space","620.364063769","222","492053.404105","484336.732899","485103.355982","485869.977829","486636.656255","487403.130317","488170.405756","488937.205686","492820.367588","493586.986034","494336.671373","495102.472675","495869.425646","496636.034817","482803.176322","483570.011807","495878.545019","Mapping"
"Blocked","Female","tile","15","F_tile.wav","None","733.304724505","222","492053.404105","484336.732899","485103.355982","485869.977829","486636.656255","487403.130317","488170.405756","488937.205686","492820.367588","493586.986034","494336.671373","495102.472675","495869.425646","496636.034817","497402.745396","483570.011807","496644.82492","Mapping"
"Blocked","Female","tile","15","F_done.wav","space","646.245879878","222","492053.404105","484336.732899","485103.355982","485869.977829","486636.656255","487403.130317","488170.405756","488937.205686","492820.367588","493586.986034","494336.671373","495102.472675","495869.425646","496636.034817","497402.745396","498169.822037","497412.583287","Mapping"
"Blocked","Female","tile","15","F_tile.wav","None","728.830988344","222","492053.404105","498936.444502","485103.355982","485869.977829","486636.656255","487403.130317","488170.405756","488937.205686","492820.367588","493586.986034","494336.671373","495102.472675","495869.425646","496636.034817","497402.745396","498169.822037","498179.637977","Mapping"
"Blocked","Female","tile","15","F_dime.wav","space","640.726210724","222","492053.404105","498936.444502","499702.849309","485869.977829","486636.656255","487403.130317","488170.405756","488937.205686","492820.367588","493586.986034","494336.671373","495102.472675","495869.425646","496636.034817","497402.745396","498169.822037","498946.071846","Mapping"
"Blocked","Female","tile","15","F_depth.wav","None","726.744687534","222","492053.404105","498936.444502","499702.849309","500469.743538","486636.656255","487403.130317","488170.405756","488937.205686","492820.367588","493586.986034","494336.671373","495102.472675","495869.425646","496636.034817","497402.745396","498169.822037","499711.829245","Mapping"
"Blocked","Female","tile","15","F_jolt.wav","None","724.979308608","222","492053.404105","498936.444502","499702.849309","500469.743538","501236.40836","487403.130317","488170.405756","488937.205686","492820.367588","493586.986034","494336.671373","495102.472675","495869.425646","496636.034817","497402.745396","498169.822037","500479.40149","Mapping"
"Blocked","Female","tile","15","F_tile.wav","None","724.513384572","222","492053.404105","498936.444502","499702.849309","500469.743538","501236.40836","502002.824916","488170.405756","488937.205686","492820.367588","493586.986034","494336.671373","495102.472675","495869.425646","496636.034817","497402.745396","498169.822037","501245.833505","Mapping"
"Blocked","Female","tile","15","F_jolt.wav","space","606.064803316","222","492053.404105","498936.444502","499702.849309","500469.743538","501236.40836","502002.824916","502769.696265","488937.205686","492820.367588","493586.986034","494336.671373","495102.472675","495869.425646","496636.034817","497402.745396","498169.822037","502012.708564","Mapping"
"Blocked","Female","tile","15","F_gnash.wav","None","721.248824731","222","492053.404105","498936.444502","499702.849309","500469.743538","501236.40836","502002.824916","502769.696265","503536.759611","492820.367588","493586.986034","494336.671373","495102.472675","495869.425646","496636.034817","497402.745396","498169.822037","502779.544359","Mapping"
"Blocked","Female","cave","7","F_lash.wav","None","719.898356241","222","506653.095921","498936.444502","499702.849309","500469.743538","501236.40836","502002.824916","502769.696265","503536.759611","492820.367588","493586.986034","494336.671373","495102.472675","495869.425646","496636.034817","497402.745396","498169.822037","503546.716225","Mapping"
"Blocked","Female","cave","7","F_jaw.wav","None","721.719695546","222","506653.095921","498936.444502","499702.849309","500469.743538","501236.40836","502002.824916","502769.696265","503536.759611","507419.525462","493586.986034","494336.671373","495102.472675","495869.425646","496636.034817","497402.745396","498169.822037","506662.423058","Mapping"
"Blocked","Female","cave","7","F_gnash.wav","None","721.485651447","222","506653.095921","498936.444502","499702.849309","500469.743538","501236.40836","502002.824916","502769.696265","503536.759611","507419.525462","508186.189048","494336.671373","495102.472675","495869.425646","496636.034817","497402.745396","498169.822037","507428.428414","Mapping"
"Blocked","Female","cave","7","F_cave.wav","None","720.36675358","222","506653.095921","498936.444502","499702.849309","500469.743538","501236.40836","502002.824916","502769.696265","503536.759611","507419.525462","508186.189048","508935.676516","495102.472675","495869.425646","496636.034817","497402.745396","498169.822037","508195.161254","Mapping"
"Blocked","Female","cave","7","F_dime.wav","space","657.925206702","222","506653.095921","498936.444502","499702.849309","500469.743538","501236.40836","502002.824916","502769.696265","503536.759611","507419.525462","508186.189048","508935.676516","509702.576619","495869.425646","496636.034817","497402.745396","498169.822037","508944.717668","Mapping"
"Blocked","Female","cave","7","F_cave.wav","None","733.742204553","222","506653.095921","498936.444502","499702.849309","500469.743538","501236.40836","502002.824916","502769.696265","503536.759611","507419.525462","508186.189048","508935.676516","509702.576619","510469.639037","496636.034817","497402.745396","498169.822037","509711.944257","Mapping"
"Blocked","Female","cave","7","F_jaw.wav","space","691.602206614","222","506653.095921","498936.444502","499702.849309","500469.743538","501236.40836","502002.824916","502769.696265","503536.759611","507419.525462","508186.189048","508935.676516","509702.576619","510469.639037","511236.169987","497402.745396","498169.822037","510479.022753","Mapping"
"Blocked","Female","cave","7","F_greet.wav","None","730.039237184","222","506653.095921","498936.444502","499702.849309","500469.743538","501236.40836","502002.824916","502769.696265","503536.759611","507419.525462","508186.189048","508935.676516","509702.576619","510469.639037","511236.169987","512002.240269","498169.822037","511245.634397","Mapping"
"Blocked","Female","cave","7","F_reek.wav","None","729.741503368","222","506653.095921","498936.444502","499702.849309","500469.743538","501236.40836","502002.824916","502769.696265","503536.759611","507419.525462","508186.189048","508935.676516","509702.576619","510469.639037","511236.169987","512002.240269","512769.48139","512011.611927","Mapping"
"Blocked","Female","cave","7","F_cave.wav","None","728.060837893","222","506653.095921","513536.393241","499702.849309","500469.743538","501236.40836","502002.824916","502769.696265","503536.759611","507419.525462","508186.189048","508935.676516","509702.576619","510469.639037","511236.169987","512002.240269","512769.48139","512778.943636","Mapping"
"Blocked","Female","cave","7","F_tile.wav","space","608.80562372","222","506653.095921","513536.393241","514302.331815","500469.743538","501236.40836","502002.824916","502769.696265","503536.759611","507419.525462","508186.189048","508935.676516","509702.576619","510469.639037","511236.169987","512002.240269","512769.48139","513545.759334","Mapping"
"Blocked","Female","cave","7","F_jaw.wav","None","726.06481571","222","506653.095921","513536.393241","514302.331815","515069.859849","501236.40836","502002.824916","502769.696265","503536.759611","507419.525462","508186.189048","508935.676516","509702.576619","510469.639037","511236.169987","512002.240269","512769.48139","514311.082653","Mapping"
"Blocked","Female","cave","7","F_cave.wav","None","723.247629474","222","506653.095921","513536.393241","514302.331815","515069.859849","515836.486024","502002.824916","502769.696265","503536.759611","507419.525462","508186.189048","508935.676516","509702.576619","510469.639037","511236.169987","512002.240269","512769.48139","515079.625393","Mapping"
"Blocked","Female","cave","7","F_depth.wav","space","603.8743112","222","506653.095921","513536.393241","514302.331815","515069.859849","515836.486024","516602.79035","502769.696265","503536.759611","507419.525462","508186.189048","508935.676516","509702.576619","510469.639037","511236.169987","512002.240269","512769.48139","515846.644528","Mapping"
"Blocked","Female","cave","7","F_lash.wav","None","720.972114766","222","506653.095921","513536.393241","514302.331815","515069.859849","515836.486024","516602.79035","517369.857097","503536.759611","507419.525462","508186.189048","508935.676516","509702.576619","510469.639037","511236.169987","512002.240269","512769.48139","516611.988253","Mapping"
"Blocked","Female","cave","7","F_romp.wav","None","719.236416393","222","506653.095921","513536.393241","514302.331815","515069.859849","515836.486024","516602.79035","517369.857097","518119.566552","507419.525462","508186.189048","508935.676516","509702.576619","510469.639037","511236.169987","512002.240269","512769.48139","517379.561735","Mapping"
"Blocked","Female","cave","10","F_park.wav","None","735.32486218","222","521253.213778","513536.393241","514302.331815","515069.859849","515836.486024","516602.79035","517369.857097","518119.566552","507419.525462","508186.189048","508935.676516","509702.576619","510469.639037","511236.169987","512002.240269","512769.48139","518129.368579","Mapping"
"Blocked","Female","cave","10","F_cave.wav","None","721.065794234","222","521253.213778","513536.393241","514302.331815","515069.859849","515836.486024","516602.79035","517369.857097","518119.566552","522019.141222","508186.189048","508935.676516","509702.576619","510469.639037","511236.169987","512002.240269","512769.48139","521262.779597","Mapping"
"Blocked","Female","cave","10","F_reek.wav","space","558.051442087","222","521253.213778","513536.393241","514302.331815","515069.859849","515836.486024","516602.79035","517369.857097","518119.566552","522019.141222","522769.281355","508935.676516","509702.576619","510469.639037","511236.169987","512002.240269","512769.48139","522028.340361","Mapping"
"Blocked","Female","cave","10","F_romp.wav","None","736.688934325","222","521253.213778","513536.393241","514302.331815","515069.859849","515836.486024","516602.79035","517369.857097","518119.566552","522019.141222","522769.281355","523535.737176","509702.576619","510469.639037","511236.169987","512002.240269","512769.48139","522778.108559","Mapping"
"Blocked","Female","cave","10","F_cave.wav","None","735.580857552","222","521253.213778","513536.393241","514302.331815","515069.859849","515836.486024","516602.79035","517369.857097","518119.566552","522019.141222","522769.281355","523535.737176","524302.329342","510469.639037","511236.169987","512002.240269","512769.48139","523545.291246","Mapping"
"Blocked","Female","cave","10","F_priest.wav","space","562.894021918","222","521253.213778","513536.393241","514302.331815","515069.859849","515836.486024","516602.79035","517369.857097","518119.566552","522019.141222","522769.281355","523535.737176","524302.329342","525069.288806","511236.169987","512002.240269","512769.48139","524311.504366","Mapping"
"Blocked","Female","cave","10","F_jaw.wav","None","731.905715773","222","521253.213778","513536.393241","514302.331815","515069.859849","515836.486024","516602.79035","517369.857097","518119.566552","522019.141222","522769.281355","523535.737176","524302.329342","525069.288806","525835.453695","512002.240269","512769.48139","525079.107219","Mapping"
"Blocked","Female","cave","10","F_cling.wav","None","732.43223771","222","521253.213778","513536.393241","514302.331815","515069.859849","515836.486024","516602.79035","517369.857097","518119.566552","522019.141222","522769.281355","523535.737176","524302.329342","525069.288806","525835.453695","526602.093474","512769.48139","525844.414152","Mapping"
"Blocked","Female","cave","10","F_cave.wav","None","736.954823253","222","521253.213778","513536.393241","514302.331815","515069.859849","515836.486024","516602.79035","517369.857097","518119.566552","522019.141222","522769.281355","523535.737176","524302.329342","525069.288806","525835.453695","526602.093474","527369.286363","526605.917637","Mapping"
"Blocked","Female","cave","10","F_tile.wav","space","494.92291233","222","521253.213778","528135.873274","514302.331815","515069.859849","515836.486024","516602.79035","517369.857097","518119.566552","522019.141222","522769.281355","523535.737176","524302.329342","525069.288806","525835.453695","526602.093474","527369.286363","527379.359844","Mapping"
"Blocked","Female","cave","10","F_jolt.wav","None","727.898212732","222","521253.213778","528135.873274","528902.253656","515069.859849","515836.486024","516602.79035","517369.857097","518119.566552","522019.141222","522769.281355","523535.737176","524302.329342","525069.288806","525835.453695","526602.093474","527369.286363","528145.628616","Mapping"
"Blocked","Female","cave","10","F_greet.wav","None","727.999312454","222","521253.213778","528135.873274","528902.253656","529668.882923","515836.486024","516602.79035","517369.857097","518119.566552","522019.141222","522769.281355","523535.737176","524302.329342","525069.288806","525835.453695","526602.093474","527369.286363","528911.333146","Mapping"
"Blocked","Female","cave","10","F_tile.wav","None","728.075987368","222","521253.213778","528135.873274","528902.253656","529668.882923","530435.843624","516602.79035","517369.857097","518119.566552","522019.141222","522769.281355","523535.737176","524302.329342","525069.288806","525835.453695","526602.093474","527369.286363","529677.906452","Mapping"
"Blocked","Female","cave","10","F_romp.wav","None","726.281855255","222","521253.213778","528135.873274","528902.253656","529668.882923","530435.843624","531202.00202","517369.857097","518119.566552","522019.141222","522769.281355","523535.737176","524302.329342","525069.288806","525835.453695","526602.093474","527369.286363","530445.585053","Mapping"
"Blocked","Female","cave","10","F_cave.wav","None","726.795701135","222","521253.213778","528135.873274","528902.253656","529668.882923","530435.843624","531202.00202","531968.765159","518119.566552","522019.141222","522769.281355","523535.737176","524302.329342","525069.288806","525835.453695","526602.093474","527369.286363","531211.168078","Mapping"
"Blocked","Female","cave","10","F_tile.wav","space","608.375873009","222","521253.213778","528135.873274","528902.253656","529668.882923","530435.843624","531202.00202","531968.765159","532735.997005","522019.141222","522769.281355","523535.737176","524302.329342","525069.288806","525835.453695","526602.093474","527369.286363","531977.845576","Mapping"
"Blocked","Female","done","19","F_greet.wav","None","722.690808587","222","535852.695666","528135.873274","528902.253656","529668.882923","530435.843624","531202.00202","531968.765159","532735.997005","522019.141222","522769.281355","523535.737176","524302.329342","525069.288806","525835.453695","526602.093474","527369.286363","532745.330944","Mapping"
"Blocked","Female","done","19","F_done.wav","None","721.120208735","222","535852.695666","528135.873274","528902.253656","529668.882923","530435.843624","531202.00202","531968.765159","532735.997005","536619.51662","522769.281355","523535.737176","524302.329342","525069.288806","525835.453695","526602.093474","527369.286363","535862.652898","Mapping"
"Blocked","Female","done","19","F_romp.wav","space","508.149032597","222","535852.695666","528135.873274","528902.253656","529668.882923","530435.843624","531202.00202","531968.765159","532735.997005","536619.51662","537369.248026","523535.737176","524302.329342","525069.288806","525835.453695","526602.093474","527369.286363","536629.997592","Mapping"
"Blocked","Female","done","19","F_done.wav","None","735.559215478","222","535852.695666","528135.873274","528902.253656","529668.882923","530435.843624","531202.00202","531968.765159","532735.997005","536619.51662","537369.248026","538135.09292","524302.329342","525069.288806","525835.453695","526602.093474","527369.286363","537378.739334","Mapping"
"Blocked","Female","done","19","F_jaw.wav","space","490.0256088","222","535852.695666","528135.873274","528902.253656","529668.882923","530435.843624","531202.00202","531968.765159","532735.997005","536619.51662","537369.248026","538135.09292","538902.232632","525069.288806","525835.453695","526602.093474","527369.286363","538144.099754","Mapping"
"Blocked","Female","done","19","F_romp.wav","None","732.735536643","222","535852.695666","528135.873274","528902.253656","529668.882923","530435.843624","531202.00202","531968.765159","532735.997005","536619.51662","537369.248026","538135.09292","538902.232632","539668.885706","525835.453695","526602.093474","527369.286363","538911.865233","Mapping"
"Blocked","Female","done","19","F_done.wav","None","733.312762983","222","535852.695666","528135.873274","528902.253656","529668.882923","530435.843624","531202.00202","531968.765159","532735.997005","536619.51662","537369.248026","538135.09292","538902.232632","539668.885706","540435.674197","526602.093474","527369.286363","539678.294465","Mapping"
"Blocked","Female","done","19","F_dime.wav","space","492.758390727","222","535852.695666","528135.873274","528902.253656","529668.882923","530435.843624","531202.00202","531968.765159","532735.997005","536619.51662","537369.248026","538135.09292","538902.232632","539668.885706","540435.674197","541201.93864","527369.286363","540445.298449","Mapping"
"Blocked","Female","done","19","F_park.wav","None","731.122270925","222","535852.695666","528135.873274","528902.253656","529668.882923","530435.843624","531202.00202","531968.765159","532735.997005","536619.51662","537369.248026","538135.09292","538902.232632","539668.885706","540435.674197","541201.93864","541968.96303","541211.004216","Mapping"
"Blocked","Female","done","19","F_tile.wav","None","729.263830814","222","535852.695666","542735.559215","528902.253656","529668.882923","530435.843624","531202.00202","531968.765159","532735.997005","536619.51662","537369.248026","538135.09292","538902.232632","539668.885706","540435.674197","541201.93864","541968.96303","541978.530704","Mapping"
"Blocked","Female","done","19","F_depth.wav","None","728.924049414","222","535852.695666","542735.559215","543501.973298","529668.882923","530435.843624","531202.00202","531968.765159","532735.997005","536619.51662","537369.248026","538135.09292","538902.232632","539668.885706","540435.674197","541201.93864","541968.96303","542745.522322","Mapping"
"Blocked","Female","done","19","F_reek.wav","None","728.983719833","222","535852.695666","542735.559215","543501.973298","544268.959042","530435.843624","531202.00202","531968.765159","532735.997005","536619.51662","537369.248026","538135.09292","538902.232632","539668.885706","540435.674197","541201.93864","541968.96303","543511.42936","Mapping"
"Blocked","Female","done","19","F_cad.wav","None","727.895121032","222","535852.695666","542735.559215","543501.973298","544268.959042","545035.570067","531202.00202","531968.765159","532735.997005","536619.51662","537369.248026","538135.09292","538902.232632","539668.885706","540435.674197","541201.93864","541968.96303","544278.310294","Mapping"
"Blocked","Female","done","19","F_done.wav","None","727.153414511","222","535852.695666","542735.559215","543501.973298","544268.959042","545035.570067","545801.762473","531968.765159","532735.997005","536619.51662","537369.248026","538135.09292","538902.232632","539668.885706","540435.674197","541201.93864","541968.96303","545045.012526","Mapping"
"Blocked","Female","done","19","F_lash.wav","space","511.06391754","222","535852.695666","542735.559215","543501.973298","544268.959042","545035.570067","545801.762473","546568.502115","532735.997005","536619.51662","537369.248026","538135.09292","538902.232632","539668.885706","540435.674197","541201.93864","541968.96303","545810.882773","Mapping"
"Blocked","Female","done","19","F_priest.wav","None","725.036196469","222","535852.695666","542735.559215","543501.973298","544268.959042","545035.570067","545801.762473","546568.502115","547335.910189","536619.51662","537369.248026","538135.09292","538902.232632","539668.885706","540435.674197","541201.93864","541968.96303","546577.555633","Mapping"
"Blocked","Female","ball","2","F_lash.wav","None","722.685861809","222","550469.328936","542735.559215","543501.973298","544268.959042","545035.570067","545801.762473","546568.502115","547335.910189","536619.51662","537369.248026","538135.09292","538902.232632","539668.885706","540435.674197","541201.93864","541968.96303","547345.847634","Mapping"
"Blocked","Female","ball","2","F_jaw.wav","None","721.436492866","222","550469.328936","542735.559215","543501.973298","544268.959042","545035.570067","545801.762473","546568.502115","547335.910189","551235.782593","537369.248026","538135.09292","538902.232632","539668.885706","540435.674197","541201.93864","541968.96303","550478.970194","Mapping"
"Blocked","Female","ball","2","F_knife.wav","None","720.546692435","222","550469.328936","542735.559215","543501.973298","544268.959042","545035.570067","545801.762473","546568.502115","547335.910189","551235.782593","552001.744974","538135.09292","538902.232632","539668.885706","540435.674197","541201.93864","541968.96303","551245.861639","Mapping"
"Blocked","Female","ball","2","F_dime.wav","None","721.632199537","222","550469.328936","542735.559215","543501.973298","544268.959042","545035.570067","545801.762473","546568.502115","547335.910189","551235.782593","552001.744974","552768.528209","538902.232632","539668.885706","540435.674197","541201.93864","541968.96303","552010.775923","Mapping"
"Blocked","Female","ball","2","F_reek.wav","None","720.840406953","222","550469.328936","542735.559215","543501.973298","544268.959042","545035.570067","545801.762473","546568.502115","547335.910189","551235.782593","552001.744974","552768.528209","553536.178057","539668.885706","540435.674197","541201.93864","541968.96303","552777.771251","Mapping"
"Blocked","Female","ball","2","F_ball.wav","None","717.131565267","222","550469.328936","542735.559215","543501.973298","544268.959042","545035.570067","545801.762473","546568.502115","547335.910189","551235.782593","552001.744974","552768.528209","553536.178057","554285.548966","540435.674197","541201.93864","541968.96303","553547.441855","Mapping"
"Blocked","Female","ball","2","F_jolt.wav","space","426.976227376","222","550469.328936","542735.559215","543501.973298","544268.959042","545035.570067","545801.762473","546568.502115","547335.910189","551235.782593","552001.744974","552768.528209","553536.178057","554285.548966","555051.811863","541201.93864","541968.96303","554294.84735","Mapping"
"Blocked","Female","ball","2","F_depth.wav","None","734.519466001","222","550469.328936","542735.559215","543501.973298","544268.959042","545035.570067","545801.762473","546568.502115","547335.910189","551235.782593","552001.744974","552768.528209","553536.178057","554285.548966","555051.811863","555818.593243","541968.96303","555060.614643","Mapping"
"Blocked","Female","ball","2","F_ball.wav","None","733.049038274","222","550469.328936","542735.559215","543501.973298","544268.959042","545035.570067","545801.762473","546568.502115","547335.910189","551235.782593","552001.744974","552768.528209","553536.178057","554285.548966","555051.811863","555818.593243","556585.14429","555828.136493","Mapping"
"Blocked","Female","ball","2","F_jaw.wav","space","463.422491681","222","550469.328936","557351.758407","543501.973298","544268.959042","545035.570067","545801.762473","546568.502115","547335.910189","551235.782593","552001.744974","552768.528209","553536.178057","554285.548966","555051.811863","555818.593243","556585.14429","556594.344356","Mapping"
"Blocked","Female","ball","2","F_ball.wav","None","730.921308335","222","550469.328936","557351.758407","558118.656964","544268.959042","545035.570067","545801.762473","546568.502115","547335.910189","551235.782593","552001.744974","552768.528209","553536.178057","554285.548966","555051.811863","555818.593243","556585.14429","557361.22189","Mapping"
"Blocked","Female","ball","2","F_cad.wav","space","585.698018782","222","550469.328936","557351.758407","558118.656964","558885.674862","545035.570067","545801.762473","546568.502115","547335.910189","551235.782593","552001.744974","552768.528209","553536.178057","554285.548966","555051.811863","555818.593243","556585.14429","558128.056757","Mapping"
"Blocked","Female","ball","2","F_cave.wav","None","727.846271649","222","550469.328936","557351.758407","558118.656964","558885.674862","559652.057408","545801.762473","546568.502115","547335.910189","551235.782593","552001.744974","552768.528209","553536.178057","554285.548966","555051.811863","555818.593243","556585.14429","558894.903063","Mapping"
"Blocked","Female","ball","2","F_reek.wav","None","727.418994298","222","550469.328936","557351.758407","558118.656964","558885.674862","559652.057408","560418.601344","546568.502115","547335.910189","551235.782593","552001.744974","552768.528209","553536.178057","554285.548966","555051.811863","555818.593243","556585.14429","559661.372488","Mapping"
"Blocked","Female","ball","2","F_ball.wav","None","726.757363707","222","550469.328936","557351.758407","558118.656964","558885.674862","559652.057408","560418.601344","561185.30574","547335.910189","551235.782593","552001.744974","552768.528209","553536.178057","554285.548966","555051.811863","555818.593243","556585.14429","560428.271663","Mapping"
"Blocked","Female","ball","2","F_gnash.wav","space","470.958279271","222","550469.328936","557351.758407","558118.656964","558885.674862","559652.057408","560418.601344","561185.30574","561951.752285","551235.782593","552001.744974","552768.528209","553536.178057","554285.548966","555051.811863","555818.593243","556585.14429","561194.742633","Mapping"
"Blocked","Female","tile","16","F_done.wav","None","724.561306415","222","565085.792471","557351.758407","558118.656964","558885.674862","559652.057408","560418.601344","561185.30574","561951.752285","551235.782593","552001.744974","552768.528209","553536.178057","554285.548966","555051.811863","555818.593243","556585.14429","561961.141876","Mapping"
"Blocked","Female","tile","16","F_park.wav","None","720.493205474","222","565085.792471","557351.758407","558118.656964","558885.674862","559652.057408","560418.601344","561185.30574","561951.752285","565852.116275","552001.744974","552768.528209","553536.178057","554285.548966","555051.811863","555818.593243","556585.14429","565095.573784","Mapping"
"Blocked","Female","tile","16","F_tile.wav","None","720.056652906","222","565085.792471","557351.758407","558118.656964","558885.674862","559652.057408","560418.601344","561185.30574","561951.752285","565852.116275","566618.423693","552768.528209","553536.178057","554285.548966","555051.811863","555818.593243","556585.14429","565862.124212","Mapping"
"Blocked","Female","tile","16","F_knife.wav","space","541.849529778","222","565085.792471","557351.758407","558118.656964","558885.674862","559652.057408","560418.601344","561185.30574","561951.752285","565852.116275","566618.423693","567368.287116","553536.178057","554285.548966","555051.811863","555818.593243","556585.14429","566627.781438","Mapping"
"Blocked","Female","tile","16","F_jaw.wav","None","735.253752384","222","565085.792471","557351.758407","558118.656964","558885.674862","559652.057408","560418.601344","561185.30574","561951.752285","565852.116275","566618.423693","567368.287116","568135.091684","554285.548966","555051.811863","555818.593243","556585.14429","567377.690618","Mapping"
"Blocked","Female","tile","16","F_dime.wav","None","734.5228669","222","565085.792471","557351.758407","558118.656964","558885.674862","559652.057408","560418.601344","561185.30574","561951.752285","565852.116275","566618.423693","567368.287116","568135.091684","568901.545031","555051.811863","555818.593243","556585.14429","568144.595668","Mapping"
"Blocked","Female","tile","16","F_gnash.wav","None","733.929254347","222","565085.792471","557351.758407","558118.656964","558885.674862","559652.057408","560418.601344","561185.30574","561951.752285","565852.116275","566618.423693","567368.287116","568135.091684","568901.545031","569668.314045","555818.593243","556585.14429","568911.286151","Mapping"
"Blocked","Female","tile","16","F_gnash.wav","None","733.880405023","222","565085.792471","557351.758407","558118.656964","558885.674862","559652.057408","560418.601344","561185.30574","561951.752285","565852.116275","566618.423693","567368.287116","568135.091684","568901.545031","569668.314045","570434.737093","556585.14429","569677.575328","Mapping"
"Blocked","Female","tile","16","F_tile.wav","None","734.26254309","222","565085.792471","557351.758407","558118.656964","558885.674862","559652.057408","560418.601344","561185.30574","561951.752285","565852.116275","566618.423693","567368.287116","568135.091684","568901.545031","569668.314045","570434.737093","571201.479517","570443.522559","Mapping"
"Blocked","Female","tile","16","F_ball.wav","space","638.835616643","222","565085.792471","571968.463715","558118.656964","558885.674862","559652.057408","560418.601344","561185.30574","561951.752285","565852.116275","566618.423693","567368.287116","568135.091684","568901.545031","569668.314045","570434.737093","571201.479517","571210.667217","Mapping"
"Blocked","Female","tile","16","F_gnash.wav","None","730.384274502","222","565085.792471","571968.463715","572735.06021","558885.674862","559652.057408","560418.601344","561185.30574","561951.752285","565852.116275","566618.423693","567368.287116","568135.091684","568901.545031","569668.314045","570434.737093","571201.479517","571978.047466","Mapping"
"Blocked","Female","tile","16","F_bluff.wav","None","730.159814702","222","565085.792471","571968.463715","572735.06021","573501.915792","559652.057408","560418.601344","561185.30574","561951.752285","565852.116275","566618.423693","567368.287116","568135.091684","568901.545031","569668.314045","570434.737093","571201.479517","572744.566049","Mapping"
