"Condition","Talker","Target","Trial","current_stimulus","response_response","response_time_response","subject_nr","time_Audio1","time_Audio10","time_Audio11","time_Audio12","time_Audio13","time_Audio14","time_Audio15","time_Audio16","time_Audio2","time_Audio3","time_Audio4","time_Audio5","time_Audio6","time_Audio7","time_Audio8","time_Audio9","time_response","title"
"Blocked","Female","tile","16","F_bluff.wav","NA","NA","322","74944.0393415","NA","NA","NA","NA","NA","NA","NA","NA","NA","NA","NA","NA","NA","NA","NA","NA","Mapping"
"Blocked","Female","tile","16","F_tile.wav","None","716.730258428","322","74944.0393415","NA","NA","NA","NA","NA","NA","NA","75710.5359733","NA","NA","NA","NA","NA","NA","NA","74959.1495632","Mapping"
"Blocked","Female","tile","16","F_gnash.wav","space","546.112100594","322","74944.0393415","NA","NA","NA","NA","NA","NA","NA","75710.5359733","76476.9729343","NA","NA","NA","NA","NA","NA","75721.4485505","Mapping"
"Blocked","Female","tile","16","F_knife.wav","None","719.141500536","322","74944.0393415","NA","NA","NA","NA","NA","NA","NA","75710.5359733","76476.9729343","77226.445253","NA","NA","NA","NA","NA","76487.1570994","Mapping"
"Blocked","Female","tile","16","F_tile.wav","None","735.123590566","322","74944.0393415","NA","NA","NA","NA","NA","NA","NA","75710.5359733","76476.9729343","77226.445253","77993.243638","NA","NA","NA","NA","77236.4646289","Mapping"
"Blocked","Female","tile","16","F_greet.wav","None","733.902665321","322","74944.0393415","NA","NA","NA","NA","NA","NA","NA","75710.5359733","76476.9729343","77226.445253","77993.243638","78759.6793626","NA","NA","NA","78002.9841396","Mapping"
"Blocked","Female","tile","16","F_jolt.wav","space","18.3182028122","322","74944.0393415","NA","NA","NA","NA","NA","NA","NA","75710.5359733","76476.9729343","77226.445253","77993.243638","78759.6793626","79526.5470021","NA","NA","78769.2136457","Mapping"
"Blocked","Female","tile","16","F_lash.wav","None","731.244703755","322","74944.0393415","NA","NA","NA","NA","NA","NA","NA","75710.5359733","76476.9729343","77226.445253","77993.243638","78759.6793626","79526.5470021","80293.3348748","NA","79536.0942702","Mapping"
"Blocked","Female","tile","16","F_romp.wav","None","729.466029909","322","74944.0393415","NA","NA","NA","NA","NA","NA","NA","75710.5359733","76476.9729343","77226.445253","77993.243638","78759.6793626","79526.5470021","80293.3348748","81059.6351814","80303.0317831","Mapping"
"Blocked","Female","tile","16","F_knife.wav","None","728.816766292","322","74944.0393415","81826.2718688","NA","NA","NA","NA","NA","NA","75710.5359733","76476.9729343","77226.445253","77993.243638","78759.6793626","79526.5470021","80293.3348748","81059.6351814","81068.9620096","Mapping"
"Blocked","Female","tile","16","F_tile.wav","None","726.726137102","322","74944.0393415","81826.2718688","82593.3664413","NA","NA","NA","NA","NA","75710.5359733","76476.9729343","77226.445253","77993.243638","78759.6793626","79526.5470021","80293.3348748","81059.6351814","81836.2782593","Mapping"
"Blocked","Female","tile","16","F_gnash.wav","space","416.042317171","322","74944.0393415","81826.2718688","82593.3664413","83360.4056723","NA","NA","NA","NA","75710.5359733","76476.9729343","77226.445253","77993.243638","78759.6793626","79526.5470021","80293.3348748","81059.6351814","82603.3700495","Mapping"
"Blocked","Female","tile","16","F_tile.wav","None","722.963190172","322","74944.0393415","81826.2718688","82593.3664413","83360.4056723","84126.4969776","NA","NA","NA","75710.5359733","76476.9729343","77226.445253","77993.243638","78759.6793626","79526.5470021","80293.3348748","81059.6351814","83370.456893","Mapping"
"Blocked","Female","tile","16","F_gnash.wav","space","715.130905155","322","74944.0393415","81826.2718688","82593.3664413","83360.4056723","84126.4969776","84893.4753011","NA","NA","75710.5359733","76476.9729343","77226.445253","77993.243638","78759.6793626","79526.5470021","80293.3348748","81059.6351814","84136.2300594","Mapping"
"Blocked","Female","tile","16","F_lash.wav","None","720.314194448","322","74944.0393415","81826.2718688","82593.3664413","83360.4056723","84126.4969776","84893.4753011","85660.4823782","NA","75710.5359733","76476.9729343","77226.445253","77993.243638","78759.6793626","79526.5470021","80293.3348748","81059.6351814","84903.5781538","Mapping"
"Blocked","Female","tile","16","F_depth.wav","None","718.253554776","322","74944.0393415","81826.2718688","82593.3664413","83360.4056723","84126.4969776","84893.4753011","85660.4823782","86409.7769218","75710.5359733","76476.9729343","77226.445253","77993.243638","78759.6793626","79526.5470021","80293.3348748","81059.6351814","85671.0001412","Mapping"
"Blocked","Female","ball","1","F_knife.wav","None","735.115551855","322","89560.2629576","81826.2718688","82593.3664413","83360.4056723","84126.4969776","84893.4753011","85660.4823782","86409.7769218","75710.5359733","76476.9729343","77226.445253","77993.243638","78759.6793626","79526.5470021","80293.3348748","81059.6351814","86419.3755132","Mapping"
"Blocked","Female","ball","1","F_cling.wav","None","720.624604262","322","89560.2629576","81826.2718688","82593.3664413","83360.4056723","84126.4969776","84893.4753011","85660.4823782","86409.7769218","90326.2293576","76476.9729343","77226.445253","77993.243638","78759.6793626","79526.5470021","80293.3348748","81059.6351814","89570.670655","Mapping"
"Blocked","Female","ball","1","F_ball.wav","None","722.031960264","322","89560.2629576","81826.2718688","82593.3664413","83360.4056723","84126.4969776","84893.4753011","85660.4823782","86409.7769218","90326.2293576","91093.564467","77226.445253","77993.243638","78759.6793626","79526.5470021","80293.3348748","81059.6351814","90335.3014267","Mapping"
"Blocked","Female","ball","1","F_romp.wav","space","379.402510356","322","89560.2629576","81826.2718688","82593.3664413","83360.4056723","84126.4969776","84893.4753011","85660.4823782","86409.7769218","90326.2293576","91093.564467","91843.1706573","77993.243638","78759.6793626","79526.5470021","80293.3348748","81059.6351814","91103.8333457","Mapping"
"Blocked","Female","ball","1","F_gnash.wav","None","735.177386552","322","89560.2629576","81826.2718688","82593.3664413","83360.4056723","84126.4969776","84893.4753011","85660.4823782","86409.7769218","90326.2293576","91093.564467","91843.1706573","92609.8663965","78759.6793626","79526.5470021","80293.3348748","81059.6351814","91852.6124978","Mapping"
"Blocked","Female","ball","1","F_ball.wav","None","733.636467718","322","89560.2629576","81826.2718688","82593.3664413","83360.4056723","84126.4969776","84893.4753011","85660.4823782","86409.7769218","90326.2293576","91093.564467","91843.1706573","92609.8663965","93376.0609664","79526.5470021","80293.3348748","81059.6351814","92619.5404259","Mapping"
"Blocked","Female","ball","1","F_gnash.wav","space","401.863015722","322","89560.2629576","81826.2718688","82593.3664413","83360.4056723","84126.4969776","84893.4753011","85660.4823782","86409.7769218","90326.2293576","91093.564467","91843.1706573","92609.8663965","93376.0609664","94142.7029092","80293.3348748","81059.6351814","93385.3599685","Mapping"
"Blocked","Female","ball","1","F_ball.wav","None","731.245630886","322","89560.2629576","81826.2718688","82593.3664413","83360.4056723","84126.4969776","84893.4753011","85660.4823782","86409.7769218","90326.2293576","91093.564467","91843.1706573","92609.8663965","93376.0609664","94142.7029092","94909.3813351","81059.6351814","94152.2004008","Mapping"
"Blocked","Female","ball","1","F_reek.wav","space","420.615606941","322","89560.2629576","81826.2718688","82593.3664413","83360.4056723","84126.4969776","84893.4753011","85660.4823782","86409.7769218","90326.2293576","91093.564467","91843.1706573","92609.8663965","93376.0609664","94142.7029092","94909.3813351","95676.3015338","94918.5971697","Mapping"
"Blocked","Female","ball","1","F_romp.wav","None","727.668188047","322","89560.2629576","96443.0414848","82593.3664413","83360.4056723","84126.4969776","84893.4753011","85660.4823782","86409.7769218","90326.2293576","91093.564467","91843.1706573","92609.8663965","93376.0609664","94142.7029092","94909.3813351","95676.3015338","95685.9916402","Mapping"
"Blocked","Female","ball","1","F_dime.wav","None","726.240116637","322","89560.2629576","96443.0414848","97209.7542286","83360.4056723","84126.4969776","84893.4753011","85660.4823782","86409.7769218","90326.2293576","91093.564467","91843.1706573","92609.8663965","93376.0609664","94142.7029092","94909.3813351","95676.3015338","96452.8231067","Mapping"
"Blocked","Female","ball","1","F_knife.wav","None","724.422178697","322","89560.2629576","96443.0414848","97209.7542286","97976.5152037","84126.4969776","84893.4753011","85660.4823782","86409.7769218","90326.2293576","91093.564467","91843.1706573","92609.8663965","93376.0609664","94142.7029092","94909.3813351","95676.3015338","97220.0614447","Mapping"
"Blocked","Female","ball","1","F_jaw.wav","None","723.343163729","322","89560.2629576","96443.0414848","97209.7542286","97976.5152037","98743.4085044","84893.4753011","85660.4823782","86409.7769218","90326.2293576","91093.564467","91843.1706573","92609.8663965","93376.0609664","94142.7029092","94909.3813351","95676.3015338","97986.4888219","Mapping"
"Blocked","Female","ball","1","F_priest.wav","None","721.777202096","322","89560.2629576","96443.0414848","97209.7542286","97976.5152037","98743.4085044","99510.2118361","85660.4823782","86409.7769218","90326.2293576","91093.564467","91843.1706573","92609.8663965","93376.0609664","94142.7029092","94909.3813351","95676.3015338","98753.370374","Mapping"
"Blocked","Female","ball","1","F_ball.wav","None","720.092207659","322","89560.2629576","96443.0414848","97209.7542286","97976.5152037","98743.4085044","99510.2118361","100276.134642","86409.7769218","90326.2293576","91093.564467","91843.1706573","92609.8663965","93376.0609664","94142.7029092","94909.3813351","95676.3015338","99520.3063409","Mapping"
"Blocked","Female","ball","1","F_jaw.wav","space","413.844095543","322","89560.2629576","96443.0414848","97209.7542286","97976.5152037","98743.4085044","99510.2118361","100276.134642","101025.789991","90326.2293576","91093.564467","91843.1706573","92609.8663965","93376.0609664","94142.7029092","94909.3813351","95676.3015338","100285.235155","Mapping"
"Blocked","Female","done","19","F_reek.wav","None","736.223010346","322","104160.001459","96443.0414848","97209.7542286","97976.5152037","98743.4085044","99510.2118361","100276.134642","101025.789991","90326.2293576","91093.564467","91843.1706573","92609.8663965","93376.0609664","94142.7029092","94909.3813351","95676.3015338","101035.185147","Mapping"
"Blocked","Female","done","19","F_knife.wav","None","721.121754497","322","104160.001459","96443.0414848","97209.7542286","97976.5152037","98743.4085044","99510.2118361","100276.134642","101025.789991","104926.059374","91093.564467","91843.1706573","92609.8663965","93376.0609664","94142.7029092","94909.3813351","95676.3015338","104170.020526","Mapping"
"Blocked","Female","done","19","F_jaw.wav","None","721.459371969","322","104160.001459","96443.0414848","97209.7542286","97976.5152037","98743.4085044","99510.2118361","100276.134642","101025.789991","104926.059374","105693.282254","91843.1706573","92609.8663965","93376.0609664","94142.7029092","94909.3813351","95676.3015338","104935.073937","Mapping"
"Blocked","Female","done","19","F_reek.wav","None","718.628272414","322","104160.001459","96443.0414848","97209.7542286","97976.5152037","98743.4085044","99510.2118361","100276.134642","101025.789991","104926.059374","105693.282254","106442.604932","92609.8663965","93376.0609664","94142.7029092","94909.3813351","95676.3015338","105703.285553","Mapping"
"Blocked","Female","done","19","F_dime.wav","None","734.787828289","322","104160.001459","96443.0414848","97209.7542286","97976.5152037","98743.4085044","99510.2118361","100276.134642","101025.789991","104926.059374","105693.282254","106442.604932","107209.043749","93376.0609664","94142.7029092","94909.3813351","95676.3015338","106452.444369","Mapping"
"Blocked","Female","done","19","F_cad.wav","space","464.663822204","322","104160.001459","96443.0414848","97209.7542286","97976.5152037","98743.4085044","99510.2118361","100276.134642","101025.789991","104926.059374","105693.282254","106442.604932","107209.043749","107976.068757","94142.7029092","94909.3813351","95676.3015338","107218.311834","Mapping"
"Blocked","Female","done","19","F_done.wav","None","731.645392254","322","104160.001459","96443.0414848","97209.7542286","97976.5152037","98743.4085044","99510.2118361","100276.134642","101025.789991","104926.059374","105693.282254","106442.604932","107209.043749","107976.068757","108742.881364","94909.3813351","95676.3015338","107985.873876","Mapping"
"Blocked","Female","done","19","F_cad.wav","space","658.435033169","322","104160.001459","96443.0414848","97209.7542286","97976.5152037","98743.4085044","99510.2118361","100276.134642","101025.789991","104926.059374","105693.282254","106442.604932","107209.043749","107976.068757","108742.881364","109509.513414","95676.3015338","108752.498506","Mapping"
"Blocked","Female","done","19","F_reek.wav","None","728.554587346","322","104160.001459","96443.0414848","97209.7542286","97976.5152037","98743.4085044","99510.2118361","100276.134642","101025.789991","104926.059374","105693.282254","106442.604932","107209.043749","107976.068757","108742.881364","109509.513414","110276.02334","109519.366454","Mapping"
"Blocked","Female","done","19","F_done.wav","None","727.784127928","322","104160.001459","111042.838111","97209.7542286","97976.5152037","98743.4085044","99510.2118361","100276.134642","101025.789991","104926.059374","105693.282254","106442.604932","107209.043749","107976.068757","108742.881364","109509.513414","110276.02334","110285.903279","Mapping"
"Blocked","Female","done","19","F_romp.wav","None","726.596903056","322","104160.001459","111042.838111","111809.471088","97976.5152037","98743.4085044","99510.2118361","100276.134642","101025.789991","104926.059374","105693.282254","106442.604932","107209.043749","107976.068757","108742.881364","109509.513414","110276.02334","111052.524816","Mapping"
"Blocked","Female","done","19","F_greet.wav","space","7.62668438256","322","104160.001459","111042.838111","111809.471088","112576.363461","98743.4085044","99510.2118361","100276.134642","101025.789991","104926.059374","105693.282254","106442.604932","107209.043749","107976.068757","108742.881364","109509.513414","110276.02334","111819.295376","Mapping"
"Blocked","Female","done","19","F_done.wav","None","722.639794927","322","104160.001459","111042.838111","111809.471088","112576.363461","113342.554011","99510.2118361","100276.134642","101025.789991","104926.059374","105693.282254","106442.604932","107209.043749","107976.068757","108742.881364","109509.513414","110276.02334","112586.839795","Mapping"
"Blocked","Female","done","19","F_lash.wav","space","674.65796927","322","104160.001459","111042.838111","111809.471088","112576.363461","113342.554011","114109.881392","100276.134642","101025.789991","104926.059374","105693.282254","106442.604932","107209.043749","107976.068757","108742.881364","109509.513414","110276.02334","113352.181047","Mapping"
"Blocked","Female","done","19","F_done.wav","None","720.06871039","322","104160.001459","111042.838111","111809.471088","112576.363461","113342.554011","114109.881392","114876.281561","101025.789991","104926.059374","105693.282254","106442.604932","107209.043749","107976.068757","108742.881364","109509.513414","110276.02334","114119.927356","Mapping"
"Blocked","Female","done","19","F_priest.wav","space","636.487755459","322","104160.001459","111042.838111","111809.471088","112576.363461","113342.554011","114109.881392","114876.281561","115642.231266","104926.059374","105693.282254","106442.604932","107209.043749","107976.068757","108742.881364","109509.513414","110276.02334","114886.304956","Mapping"
"Blocked","Female","ball","5","F_reek.wav","None","721.835325938","322","118759.713371","111042.838111","111809.471088","112576.363461","113342.554011","114109.881392","114876.281561","115642.231266","104926.059374","105693.282254","106442.604932","107209.043749","107976.068757","108742.881364","109509.513414","110276.02334","115651.341982","Mapping"
"Blocked","Female","ball","5","F_ball.wav","None","720.58781283","322","118759.713371","111042.838111","111809.471088","112576.363461","113342.554011","114109.881392","114876.281561","115642.231266","119526.500935","105693.282254","106442.604932","107209.043749","107976.068757","108742.881364","109509.513414","110276.02334","118770.232062","Mapping"
"Blocked","Female","ball","5","F_depth.wav","space","442.303488962","322","118759.713371","111042.838111","111809.471088","112576.363461","113342.554011","114109.881392","114876.281561","115642.231266","119526.500935","120276.171434","106442.604932","107209.043749","107976.068757","108742.881364","109509.513414","110276.02334","119536.449819","Mapping"
"Blocked","Female","ball","5","F_ball.wav","None","735.728024039","322","118759.713371","111042.838111","111809.471088","112576.363461","113342.554011","114109.881392","114876.281561","115642.231266","119526.500935","120276.171434","121042.131032","107209.043749","107976.068757","108742.881364","109509.513414","110276.02334","120285.655012","Mapping"
"Blocked","Female","ball","5","F_gnash.wav","space","407.178321388","322","118759.713371","111042.838111","111809.471088","112576.363461","113342.554011","114109.881392","114876.281561","115642.231266","119526.500935","120276.171434","121042.131032","121808.831718","107976.068757","108742.881364","109509.513414","110276.02334","121051.529897","Mapping"
"Blocked","Female","ball","5","F_jaw.wav","None","733.987688087","322","118759.713371","111042.838111","111809.471088","112576.363461","113342.554011","114109.881392","114876.281561","115642.231266","119526.500935","120276.171434","121042.131032","121808.831718","122575.715743","108742.881364","109509.513414","110276.02334","121817.758475","Mapping"
"Blocked","Female","ball","5","F_depth.wav","None","731.503172312","322","118759.713371","111042.838111","111809.471088","112576.363461","113342.554011","114109.881392","114876.281561","115642.231266","119526.500935","120276.171434","121042.131032","121808.831718","122575.715743","123342.650474","109509.513414","110276.02334","122585.691217","Mapping"
"Blocked","Female","ball","5","F_jaw.wav","None","730.456002522","322","118759.713371","111042.838111","111809.471088","112576.363461","113342.554011","114109.881392","114876.281561","115642.231266","119526.500935","120276.171434","121042.131032","121808.831718","122575.715743","123342.650474","124109.286543","110276.02334","123352.238244","Mapping"
"Blocked","Female","ball","5","F_ball.wav","None","729.107388761","322","118759.713371","111042.838111","111809.471088","112576.363461","113342.554011","114109.881392","114876.281561","115642.231266","119526.500935","120276.171434","121042.131032","121808.831718","122575.715743","123342.650474","124109.286543","124875.734634","124118.99489","Mapping"
"Blocked","Female","ball","5","F_bluff.wav","space","381.293722894","322","118759.713371","125642.506739","111809.471088","112576.363461","113342.554011","114109.881392","114876.281561","115642.231266","119526.500935","120276.171434","121042.131032","121808.831718","122575.715743","123342.650474","124109.286543","124875.734634","124885.358268","Mapping"
"Blocked","Female","ball","5","F_romp.wav","None","726.253411267","322","118759.713371","125642.506739","126409.199386","112576.363461","113342.554011","114109.881392","114876.281561","115642.231266","119526.500935","120276.171434","121042.131032","121808.831718","122575.715743","123342.650474","124109.286543","124875.734634","125652.392861","Mapping"
"Blocked","Female","ball","5","F_knife.wav","None","725.341968704","322","118759.713371","125642.506739","126409.199386","127175.365512","113342.554011","114109.881392","114876.281561","115642.231266","119526.500935","120276.171434","121042.131032","121808.831718","122575.715743","123342.650474","124109.286543","124875.734634","126418.749438","Mapping"
"Blocked","Female","ball","5","F_jaw.wav","None","724.444129504","322","118759.713371","125642.506739","126409.199386","127175.365512","127942.968674","114109.881392","114876.281561","115642.231266","119526.500935","120276.171434","121042.131032","121808.831718","122575.715743","123342.650474","124109.286543","124875.734634","127185.1224","Mapping"
"Blocked","Female","ball","5","F_ball.wav","None","722.083901521","322","118759.713371","125642.506739","126409.199386","127175.365512","127942.968674","128709.644936","114876.281561","115642.231266","119526.500935","120276.171434","121042.131032","121808.831718","122575.715743","123342.650474","124109.286543","124875.734634","127952.822952","Mapping"
"Blocked","Female","ball","5","F_dime.wav","None","720.122816041","322","118759.713371","125642.506739","126409.199386","127175.365512","127942.968674","128709.644936","129475.608862","115642.231266","119526.500935","120276.171434","121042.131032","121808.831718","122575.715743","123342.650474","124109.286543","124875.734634","128720.155279","Mapping"
"Blocked","Female","ball","5","F_greet.wav","space","0.0238064676523","322","118759.713371","125642.506739","126409.199386","127175.365512","127942.968674","128709.644936","129475.608862","130242.857094","119526.500935","120276.171434","121042.131032","121808.831718","122575.715743","123342.650474","124109.286543","124875.734634","129486.553284","Mapping"
"Blocked","Female","tile","15","F_priest.wav","None","719.289284665","322","133359.531949","125642.506739","126409.199386","127175.365512","127942.968674","128709.644936","129475.608862","130242.857094","119526.500935","120276.171434","121042.131032","121808.831718","122575.715743","123342.650474","124109.286543","124875.734634","130252.629441","Mapping"
"Blocked","Female","tile","15","F_cad.wav","space","0.0386466272175","322","133359.531949","125642.506739","126409.199386","127175.365512","127942.968674","128709.644936","129475.608862","130242.857094","134125.533903","120276.171434","121042.131032","121808.831718","122575.715743","123342.650474","124109.286543","124875.734634","133369.496292","Mapping"
"Blocked","Female","tile","15","F_bluff.wav","None","720.914608799","322","133359.531949","125642.506739","126409.199386","127175.365512","127942.968674","128709.644936","129475.608862","130242.857094","134125.533903","134892.783063","121042.131032","121808.831718","122575.715743","123342.650474","124109.286543","124875.734634","134134.829814","Mapping"
"Blocked","Female","tile","15","F_tile.wav","None","718.180589844","322","133359.531949","125642.506739","126409.199386","127175.365512","127942.968674","128709.644936","129475.608862","130242.857094","134125.533903","134892.783063","135641.81821","121808.831718","122575.715743","123342.650474","124109.286543","124875.734634","134903.270218","Mapping"
"Blocked","Female","tile","15","F_cad.wav","space","343.363427091","322","133359.531949","125642.506739","126409.199386","127175.365512","127942.968674","128709.644936","129475.608862","130242.857094","134125.533903","134892.783063","135641.81821","136408.982347","122575.715743","123342.650474","124109.286543","124875.734634","135651.102991","Mapping"
"Blocked","Female","tile","15","F_tile.wav","None","733.217846602","322","133359.531949","125642.506739","126409.199386","127175.365512","127942.968674","128709.644936","129475.608862","130242.857094","134125.533903","134892.783063","135641.81821","136408.982347","137175.562765","123342.650474","124109.286543","124875.734634","136418.84188","Mapping"
"Blocked","Female","tile","15","F_greet.wav","space","489.125605673","322","133359.531949","125642.506739","126409.199386","127175.365512","127942.968674","128709.644936","129475.608862","130242.857094","134125.533903","134892.783063","135641.81821","136408.982347","137175.562765","137942.393922","124109.286543","124875.734634","137185.337894","Mapping"
"Blocked","Female","tile","15","F_cad.wav","None","730.400970206","322","133359.531949","125642.506739","126409.199386","127175.365512","127942.968674","128709.644936","129475.608862","130242.857094","134125.533903","134892.783063","135641.81821","136408.982347","137175.562765","137942.393922","138708.569941","124875.734634","137952.303541","Mapping"
"Blocked","Female","tile","15","F_tile.wav","None","730.825155508","322","133359.531949","125642.506739","126409.199386","127175.365512","127942.968674","128709.644936","129475.608862","130242.857094","134125.533903","134892.783063","135641.81821","136408.982347","137175.562765","137942.393922","138708.569941","139475.164581","138717.517722","Mapping"
"Blocked","Female","tile","15","F_cling.wav","space","525.25744075","322","133359.531949","140242.262245","126409.199386","127175.365512","127942.968674","128709.644936","129475.608862","130242.857094","134125.533903","134892.783063","135641.81821","136408.982347","137175.562765","137942.393922","138708.569941","139475.164581","139485.151493","Mapping"
"Blocked","Female","tile","15","F_romp.wav","None","726.708204951","322","133359.531949","140242.262245","141008.943762","127175.365512","127942.968674","128709.644936","129475.608862","130242.857094","134125.533903","134892.783063","135641.81821","136408.982347","137175.562765","137942.393922","138708.569941","139475.164581","140252.239573","Mapping"
"Blocked","Female","tile","15","F_bluff.wav","None","725.902499631","322","133359.531949","140242.262245","141008.943762","141775.466674","127942.968674","128709.644936","129475.608862","130242.857094","134125.533903","134892.783063","135641.81821","136408.982347","137175.562765","137942.393922","138708.569941","139475.164581","141018.67468","Mapping"
"Blocked","Female","tile","15","F_cad.wav","None","724.937570281","322","133359.531949","140242.262245","141008.943762","141775.466674","142542.837338","128709.644936","129475.608862","130242.857094","134125.533903","134892.783063","135641.81821","136408.982347","137175.562765","137942.393922","138708.569941","139475.164581","141785.328062","Mapping"
"Blocked","Female","tile","15","F_cad.wav","None","723.435606807","322","133359.531949","140242.262245","141008.943762","141775.466674","142542.837338","143308.706657","129475.608862","130242.857094","134125.533903","134892.783063","135641.81821","136408.982347","137175.562765","137942.393922","138708.569941","139475.164581","142552.486324","Mapping"
"Blocked","Female","tile","15","F_tile.wav","space","20.2239463106","322","133359.531949","140242.262245","141008.943762","141775.466674","142542.837338","143308.706657","144075.787626","130242.857094","134125.533903","134892.783063","135641.81821","136408.982347","137175.562765","137942.393922","138708.569941","139475.164581","143318.105832","Mapping"
"Blocked","Female","tile","15","F_bluff.wav","space","588.141724002","322","133359.531949","140242.262245","141008.943762","141775.466674","142542.837338","143308.706657","144075.787626","144842.640735","134125.533903","134892.783063","135641.81821","136408.982347","137175.562765","137942.393922","138708.569941","139475.164581","144086.194396","Mapping"
"Blocked","Female","done","21","F_romp.wav","None","719.67327781","322","147959.182026","140242.262245","141008.943762","141775.466674","142542.837338","143308.706657","144075.787626","144842.640735","134125.533903","134892.783063","135641.81821","136408.982347","137175.562765","137942.393922","138708.569941","139475.164581","144852.382782","Mapping"
"Blocked","Female","done","21","F_dime.wav","None","720.950163435","322","147959.182026","140242.262245","141008.943762","141775.466674","142542.837338","143308.706657","144075.787626","144842.640735","148725.763062","134892.783063","135641.81821","136408.982347","137175.562765","137942.393922","138708.569941","139475.164581","147969.300028","Mapping"
"Blocked","Female","done","21","F_done.wav","None","720.424877945","322","147959.182026","140242.262245","141008.943762","141775.466674","142542.837338","143308.706657","144075.787626","144842.640735","148725.763062","149492.538877","135641.81821","136408.982347","137175.562765","137942.393922","138708.569941","139475.164581","148735.448531","Mapping"
"Blocked","Female","done","21","F_cad.wav","space","643.564420752","322","147959.182026","140242.262245","141008.943762","141775.466674","142542.837338","143308.706657","144075.787626","144842.640735","148725.763062","149492.538877","150241.905768","136408.982347","137175.562765","137942.393922","138708.569941","139475.164581","149502.635546","Mapping"
"Blocked","Female","done","21","F_done.wav","None","734.600469004","322","147959.182026","140242.262245","141008.943762","141775.466674","142542.837338","143308.706657","144075.787626","144842.640735","148725.763062","149492.538877","150241.905768","151008.724867","137175.562765","137942.393922","138708.569941","139475.164581","150251.839503","Mapping"
"Blocked","Female","done","21","F_knife.wav","None","733.090776484","322","147959.182026","140242.262245","141008.943762","141775.466674","142542.837338","143308.706657","144075.787626","144842.640735","148725.763062","149492.538877","150241.905768","151008.724867","151775.228301","137942.393922","138708.569941","139475.164581","151018.834522","Mapping"
"Blocked","Female","done","21","F_cling.wav","space","81.1023134738","322","147959.182026","140242.262245","141008.943762","141775.466674","142542.837338","143308.706657","144075.787626","144842.640735","148725.763062","149492.538877","150241.905768","151008.724867","151775.228301","152542.074298","138708.569941","139475.164581","151785.091545","Mapping"
"Blocked","Female","done","21","F_jaw.wav","None","730.779706966","322","147959.182026","140242.262245","141008.943762","141775.466674","142542.837338","143308.706657","144075.787626","144842.640735","148725.763062","149492.538877","150241.905768","151008.724867","151775.228301","152542.074298","153308.340287","139475.164581","152551.880963","Mapping"
"Blocked","Female","done","21","F_done.wav","None","730.691901874","322","147959.182026","140242.262245","141008.943762","141775.466674","142542.837338","143308.706657","144075.787626","144842.640735","148725.763062","149492.538877","150241.905768","151008.724867","151775.228301","152542.074298","153308.340287","154075.174845","153317.713181","Mapping"
"Blocked","Female","done","21","F_lash.wav","space","389.326970093","322","147959.182026","154842.044649","141008.943762","141775.466674","142542.837338","143308.706657","144075.787626","144842.640735","148725.763062","149492.538877","150241.905768","151008.724867","151775.228301","152542.074298","153308.340287","154075.174845","154084.834962","Mapping"
"Blocked","Female","done","21","F_priest.wav","None","726.997900289","322","147959.182026","154842.044649","155608.674534","141775.466674","142542.837338","143308.706657","144075.787626","144842.640735","148725.763062","149492.538877","150241.905768","151008.724867","151775.228301","152542.074298","153308.340287","154075.174845","154852.092778","Mapping"
"Blocked","Female","done","21","F_dime.wav","None","726.26052238","322","147959.182026","154842.044649","155608.674534","156375.170548","142542.837338","143308.706657","144075.787626","144842.640735","148725.763062","149492.538877","150241.905768","151008.724867","151775.228301","152542.074298","153308.340287","154075.174845","155618.490474","Mapping"
"Blocked","Female","done","21","F_cling.wav","None","725.550042465","322","147959.182026","154842.044649","155608.674534","156375.170548","157141.936778","143308.706657","144075.787626","144842.640735","148725.763062","149492.538877","150241.905768","151008.724867","151775.228301","152542.074298","153308.340287","154075.174845","156384.805003","Mapping"
"Blocked","Female","done","21","F_jaw.wav","None","724.449695088","322","147959.182026","154842.044649","155608.674534","156375.170548","157141.936778","157908.49308","144075.787626","144842.640735","148725.763062","149492.538877","150241.905768","151008.724867","151775.228301","152542.074298","153308.340287","154075.174845","157151.671096","Mapping"
"Blocked","Female","done","21","F_done.wav","None","723.102318123","322","147959.182026","154842.044649","155608.674534","156375.170548","157141.936778","157908.49308","158675.61486","144842.640735","148725.763062","149492.538877","150241.905768","151008.724867","151775.228301","152542.074298","153308.340287","154075.174845","157918.51493","Mapping"
"Blocked","Female","done","21","F_priest.wav","space","396.685910877","322","147959.182026","154842.044649","155608.674534","156375.170548","157141.936778","157908.49308","158675.61486","159442.381091","148725.763062","149492.538877","150241.905768","151008.724867","151775.228301","152542.074298","153308.340287","154075.174845","158685.341449","Mapping"
"Blocked","Female","cave","10","F_lash.wav","None","719.549299683","322","162558.987618","154842.044649","155608.674534","156375.170548","157141.936778","157908.49308","158675.61486","159442.381091","148725.763062","149492.538877","150241.905768","151008.724867","151775.228301","152542.074298","153308.340287","154075.174845","159452.954814","Mapping"
"Blocked","Female","cave","10","F_cave.wav","None","720.844117459","322","162558.987618","154842.044649","155608.674534","156375.170548","157141.936778","157908.49308","158675.61486","159442.381091","163325.439111","149492.538877","150241.905768","151008.724867","151775.228301","152542.074298","153308.340287","154075.174845","162569.197136","Mapping"
"Blocked","Female","cave","10","F_depth.wav","space","522.156742867","322","162558.987618","154842.044649","155608.674534","156375.170548","157141.936778","157908.49308","158675.61486","159442.381091","163325.439111","164092.23595","150241.905768","151008.724867","151775.228301","152542.074298","153308.340287","154075.174845","163335.822383","Mapping"
"Blocked","Female","cave","10","F_jaw.wav","None","718.859225046","322","162558.987618","154842.044649","155608.674534","156375.170548","157141.936778","157908.49308","158675.61486","159442.381091","163325.439111","164092.23595","164841.986833","151008.724867","151775.228301","152542.074298","153308.340287","154075.174845","164102.559243","Mapping"
"Blocked","Female","cave","10","F_lash.wav","None","735.343412962","322","162558.987618","154842.044649","155608.674534","156375.170548","157141.936778","157908.49308","158675.61486","159442.381091","163325.439111","164092.23595","164841.986833","165607.962508","151775.228301","152542.074298","153308.340287","154075.174845","164851.872028","Mapping"
"Blocked","Female","cave","10","F_depth.wav","None","735.574983526","322","162558.987618","154842.044649","155608.674534","156375.170548","157141.936778","157908.49308","158675.61486","159442.381091","163325.439111","164092.23595","164841.986833","165607.962508","166374.857046","152542.074298","153308.340287","154075.174845","165617.318089","Mapping"
"Blocked","Female","cave","10","F_cad.wav","None","733.531039674","322","162558.987618","154842.044649","155608.674534","156375.170548","157141.936778","157908.49308","158675.61486","159442.381091","163325.439111","164092.23595","164841.986833","165607.962508","166374.857046","167141.758385","153308.340287","154075.174845","166384.902701","Mapping"
"Blocked","Female","cave","10","F_cave.wav","None","732.277032919","322","162558.987618","154842.044649","155608.674534","156375.170548","157141.936778","157908.49308","158675.61486","159442.381091","163325.439111","164092.23595","164841.986833","165607.962508","166374.857046","167141.758385","167908.083426","154075.174845","167151.776833","Mapping"
"Blocked","Female","cave","10","F_priest.wav","space","500.438871328","322","162558.987618","154842.044649","155608.674534","156375.170548","157141.936778","157908.49308","158675.61486","159442.381091","163325.439111","164092.23595","164841.986833","165607.962508","166374.857046","167141.758385","167908.083426","168674.95694","167917.444572","Mapping"
"Blocked","Female","cave","10","F_cave.wav","None","729.338341858","322","162558.987618","169441.765218","155608.674534","156375.170548","157141.936778","157908.49308","158675.61486","159442.381091","163325.439111","164092.23595","164841.986833","165607.962508","166374.857046","167141.758385","167908.083426","168674.95694","168685.263228","Mapping"
"Blocked","Female","cave","10","F_priest.wav","space","470.099086873","322","162558.987618","169441.765218","170208.415818","156375.170548","157141.936778","157908.49308","158675.61486","159442.381091","163325.439111","164092.23595","164841.986833","165607.962508","166374.857046","167141.758385","167908.083426","168674.95694","169451.729561","Mapping"
"Blocked","Female","cave","10","F_bluff.wav","None","726.903293282","322","162558.987618","169441.765218","170208.415818","170975.000255","157141.936778","157908.49308","158675.61486","159442.381091","163325.439111","164092.23595","164841.986833","165607.962508","166374.857046","167141.758385","167908.083426","168674.95694","170218.428392","Mapping"
"Blocked","Female","cave","10","F_depth.wav","None","726.621018257","322","162558.987618","169441.765218","170208.415818","170975.000255","171741.343228","157908.49308","158675.61486","159442.381091","163325.439111","164092.23595","164841.986833","165607.962508","166374.857046","167141.758385","167908.083426","168674.95694","170984.781258","Mapping"
"Blocked","Female","cave","10","F_cave.wav","None","726.070071571","322","162558.987618","169441.765218","170208.415818","170975.000255","171741.343228","172508.38184","158675.61486","159442.381091","163325.439111","164092.23595","164841.986833","165607.962508","166374.857046","167141.758385","167908.083426","168674.95694","171751.129796","Mapping"
"Blocked","Female","cave","10","F_jaw.wav","space","547.056624666","322","162558.987618","169441.765218","170208.415818","170975.000255","171741.343228","172508.38184","173275.233402","159442.381091","163325.439111","164092.23595","164841.986833","165607.962508","166374.857046","167141.758385","167908.083426","168674.95694","172518.749654","Mapping"
"Blocked","Female","cave","10","F_jaw.wav","None","723.456939682","322","162558.987618","169441.765218","170208.415818","170975.000255","171741.343228","172508.38184","173275.233402","174042.077854","163325.439111","164092.23595","164841.986833","165607.962508","166374.857046","167141.758385","167908.083426","168674.95694","173284.980088","Mapping"
"Blocked","Female","ball","3","F_dime.wav","None","722.034743056","322","177175.172588","169441.765218","170208.415818","170975.000255","171741.343228","172508.38184","173275.233402","174042.077854","163325.439111","164092.23595","164841.986833","165607.962508","166374.857046","167141.758385","167908.083426","168674.95694","174052.141751","Mapping"
"Blocked","Female","ball","3","F_romp.wav","None","721.358890645","322","177175.172588","169441.765218","170208.415818","170975.000255","171741.343228","172508.38184","173275.233402","174042.077854","177941.405804","164092.23595","164841.986833","165607.962508","166374.857046","167141.758385","167908.083426","168674.95694","177185.47022","Mapping"
"Blocked","Female","ball","3","F_cling.wav","None","721.621378325","322","177175.172588","169441.765218","170208.415818","170975.000255","171741.343228","172508.38184","173275.233402","174042.077854","177941.405804","178708.694847","164841.986833","165607.962508","166374.857046","167141.758385","167908.083426","168674.95694","177950.96142","Mapping"
"Blocked","Female","ball","3","F_bluff.wav","None","719.18416582","322","177175.172588","169441.765218","170208.415818","170975.000255","171741.343228","172508.38184","173275.233402","174042.077854","177941.405804","178708.694847","179475.07492","165607.962508","166374.857046","167141.758385","167908.083426","168674.95694","178718.919205","Mapping"
"Blocked","Female","ball","3","F_ball.wav","None","719.080902636","322","177175.172588","169441.765218","170208.415818","170975.000255","171741.343228","172508.38184","173275.233402","174042.077854","177941.405804","178708.694847","179475.07492","180224.681111","166374.857046","167141.758385","167908.083426","168674.95694","179484.961042","Mapping"
"Blocked","Female","ball","3","F_jaw.wav","space","487.0652752","322","177175.172588","169441.765218","170208.415818","170975.000255","171741.343228","172508.38184","173275.233402","174042.077854","177941.405804","178708.694847","179475.07492","180224.681111","180991.410859","167141.758385","167908.083426","168674.95694","180234.571252","Mapping"
"Blocked","Female","ball","3","F_greet.wav","None","702.72811316","322","177175.172588","169441.765218","170208.415818","170975.000255","171741.343228","172508.38184","173275.233402","174042.077854","177941.405804","178708.694847","179475.07492","180224.681111","180991.410859","181758.208316","167908.083426","168674.95694","181032.367033","Mapping"
"Blocked","Female","ball","3","F_knife.wav","None","732.742338441","322","177175.172588","169441.765218","170208.415818","170975.000255","171741.343228","172508.38184","173275.233402","174042.077854","177941.405804","178708.694847","179475.07492","180224.681111","180991.410859","181758.208316","182524.478633","168674.95694","181768.185645","Mapping"
"Blocked","Female","ball","3","F_lash.wav","None","733.172398526","322","177175.172588","169441.765218","170208.415818","170975.000255","171741.343228","172508.38184","173275.233402","174042.077854","177941.405804","178708.694847","179475.07492","180224.681111","180991.410859","181758.208316","182524.478633","183291.192304","182533.604189","Mapping"
"Blocked","Female","ball","3","F_ball.wav","None","732.577240095","322","177175.172588","184057.785089","170208.415818","170975.000255","171741.343228","172508.38184","173275.233402","174042.077854","177941.405804","178708.694847","179475.07492","180224.681111","180991.410859","181758.208316","182524.478633","183291.192304","183300.033112","Mapping"
"Blocked","Female","ball","3","F_lash.wav","space","486.619756557","322","177175.172588","184057.785089","184824.405081","170975.000255","171741.343228","172508.38184","173275.233402","174042.077854","177941.405804","178708.694847","179475.07492","180224.681111","180991.410859","181758.208316","182524.478633","183291.192304","184066.972789","Mapping"
"Blocked","Female","ball","3","F_ball.wav","None","723.157350905","322","177175.172588","184057.785089","184824.405081","185591.10113","171741.343228","172508.38184","173275.233402","174042.077854","177941.405804","178708.694847","179475.07492","180224.681111","180991.410859","181758.208316","182524.478633","183291.192304","184840.082017","Mapping"
"Blocked","Female","ball","3","F_jaw.wav","space","329.519888386","322","177175.172588","184057.785089","184824.405081","185591.10113","186357.738435","172508.38184","173275.233402","174042.077854","177941.405804","178708.694847","179475.07492","180224.681111","180991.410859","181758.208316","182524.478633","183291.192304","185600.047983","Mapping"
"Blocked","Female","ball","3","F_park.wav","None","727.349739522","322","177175.172588","184057.785089","184824.405081","185591.10113","186357.738435","187124.614422","173275.233402","174042.077854","177941.405804","178708.694847","179475.07492","180224.681111","180991.410859","181758.208316","182524.478633","183291.192304","186366.654063","Mapping"
"Blocked","Female","ball","3","F_ball.wav","None","725.927542429","322","177175.172588","184057.785089","184824.405081","185591.10113","186357.738435","187124.614422","187891.043963","174042.077854","177941.405804","178708.694847","179475.07492","180224.681111","180991.410859","181758.208316","182524.478633","183291.192304","187134.012051","Mapping"
"Blocked","Female","ball","3","F_jaw.wav","space","653.449306265","322","177175.172588","184057.785089","184824.405081","185591.10113","186357.738435","187124.614422","187891.043963","188658.495322","177941.405804","178708.694847","179475.07492","180224.681111","180991.410859","181758.208316","182524.478633","183291.192304","187900.072748","Mapping"
"Blocked","Female","tile","17","F_jaw.wav","None","722.063187044","322","191792.109158","184057.785089","184824.405081","185591.10113","186357.738435","187124.614422","187891.043963","188658.495322","177941.405804","178708.694847","179475.07492","180224.681111","180991.410859","181758.208316","182524.478633","183291.192304","188668.79821","Mapping"
"Blocked","Female","tile","17","F_jolt.wav","None","722.076172009","322","191792.109158","184057.785089","184824.405081","185591.10113","186357.738435","187124.614422","187891.043963","188658.495322","192558.562505","178708.694847","179475.07492","180224.681111","180991.410859","181758.208316","182524.478633","183291.192304","191801.565529","Mapping"
"Blocked","Female","tile","17","F_tile.wav","None","721.18977271","322","191792.109158","184057.785089","184824.405081","185591.10113","186357.738435","187124.614422","187891.043963","188658.495322","192558.562505","193325.22238","179475.07492","180224.681111","180991.410859","181758.208316","182524.478633","183291.192304","192568.403488","Mapping"
"Blocked","Female","tile","17","F_greet.wav","space","562.664615456","322","191792.109158","184057.785089","184824.405081","185591.10113","186357.738435","187124.614422","187891.043963","188658.495322","192558.562505","193325.22238","194091.122926","180224.681111","180991.410859","181758.208316","182524.478633","183291.192304","193334.735021","Mapping"
"Blocked","Female","tile","17","F_lash.wav","None","720.303372946","322","191792.109158","184057.785089","184824.405081","185591.10113","186357.738435","187124.614422","187891.043963","188658.495322","192558.562505","193325.22238","194091.122926","194840.8701","180991.410859","181758.208316","182524.478633","183291.192304","194100.339688","Mapping"
"Blocked","Female","tile","17","F_tile.wav","None","736.882167403","322","191792.109158","184057.785089","184824.405081","185591.10113","186357.738435","187124.614422","187891.043963","188658.495322","192558.562505","193325.22238","194091.122926","194840.8701","195607.444643","181758.208316","182524.478633","183291.192304","194849.795312","Mapping"
"Blocked","Female","tile","17","F_bluff.wav","space","505.162419286","322","191792.109158","184057.785089","184824.405081","185591.10113","186357.738435","187124.614422","187891.043963","188658.495322","192558.562505","193325.22238","194091.122926","194840.8701","195607.444643","196374.384938","182524.478633","183291.192304","195616.202902","Mapping"
"Blocked","Female","tile","17","F_tile.wav","None","734.141656663","322","191792.109158","184057.785089","184824.405081","185591.10113","186357.738435","187124.614422","187891.043963","188658.495322","192558.562505","193325.22238","194091.122926","194840.8701","195607.444643","196374.384938","197140.897647","183291.192304","196383.713312","Mapping"
"Blocked","Female","tile","17","F_park.wav","space","339.233182371","322","191792.109158","184057.785089","184824.405081","185591.10113","186357.738435","187124.614422","187891.043963","188658.495322","192558.562505","193325.22238","194091.122926","194840.8701","195607.444643","196374.384938","197140.897647","197907.905342","197150.096477","Mapping"
"Blocked","Female","tile","17","F_bluff.wav","None","731.3495134","322","191792.109158","198674.398573","184824.405081","185591.10113","186357.738435","187124.614422","187891.043963","188658.495322","192558.562505","193325.22238","194091.122926","194840.8701","195607.444643","196374.384938","197140.897647","197907.905342","197917.66594","Mapping"
"Blocked","Female","tile","17","F_knife.wav","None","731.256761588","322","191792.109158","198674.398573","199441.227875","185591.10113","186357.738435","187124.614422","187891.043963","188658.495322","192558.562505","193325.22238","194091.122926","194840.8701","195607.444643","196374.384938","197140.897647","197907.905342","198683.689537","Mapping"
"Blocked","Female","tile","17","F_jaw.wav","None","730.665003415","322","191792.109158","198674.398573","199441.227875","200207.551369","186357.738435","187124.614422","187891.043963","188658.495322","192558.562505","193325.22238","194091.122926","194840.8701","195607.444643","196374.384938","197140.897647","197907.905342","199450.328388","Mapping"
"Blocked","Female","tile","17","F_tile.wav","None","730.288121849","322","191792.109158","198674.398573","199441.227875","200207.551369","200974.442506","187124.614422","187891.043963","188658.495322","192558.562505","193325.22238","194091.122926","194840.8701","195607.444643","196374.384938","197140.897647","197907.905342","200216.780499","Mapping"
"Blocked","Female","tile","17","F_priest.wav","space","481.087102555","322","191792.109158","198674.398573","199441.227875","200207.551369","200974.442506","201740.800628","187891.043963","188658.495322","192558.562505","193325.22238","194091.122926","194840.8701","195607.444643","196374.384938","197140.897647","197907.905342","200984.194447","Mapping"
"Blocked","Female","tile","17","F_jolt.wav","None","728.988048621","322","191792.109158","198674.398573","199441.227875","200207.551369","200974.442506","201740.800628","202507.846043","188658.495322","192558.562505","193325.22238","194091.122926","194840.8701","195607.444643","196374.384938","197140.897647","197907.905342","201749.723676","Mapping"
"Blocked","Female","tile","17","F_lash.wav","None","727.414666209","322","191792.109158","198674.398573","199441.227875","200207.551369","200974.442506","201740.800628","202507.846043","203274.358442","192558.562505","193325.22238","194091.122926","194840.8701","195607.444643","196374.384938","197140.897647","197907.905342","202517.32993","Mapping"
"Blocked","Female","cave","11","F_priest.wav","None","727.830194868","322","206408.134285","198674.398573","199441.227875","200207.551369","200974.442506","201740.800628","202507.846043","203274.358442","192558.562505","193325.22238","194091.122926","194840.8701","195607.444643","196374.384938","197140.897647","197907.905342","203283.755762","Mapping"
"Blocked","Female","cave","11","F_jolt.wav","None","721.207704861","322","206408.134285","198674.398573","199441.227875","200207.551369","200974.442506","201740.800628","202507.846043","203274.358442","207174.76046","193325.22238","194091.122926","194840.8701","195607.444643","196374.384938","197140.897647","197907.905342","206418.140057","Mapping"
"Blocked","Female","cave","11","F_cave.wav","None","720.54329142","322","206408.134285","198674.398573","199441.227875","200207.551369","200974.442506","201740.800628","202507.846043","203274.358442","207174.76046","207941.431466","194091.122926","194840.8701","195607.444643","196374.384938","197140.897647","197907.905342","207184.797459","Mapping"
"Blocked","Female","cave","11","F_knife.wav","space","481.776249595","322","206408.134285","198674.398573","199441.227875","200207.551369","200974.442506","201740.800628","202507.846043","203274.358442","207174.76046","207941.431466","208691.006739","194840.8701","195607.444643","196374.384938","197140.897647","197907.905342","207951.36149","Mapping"
"Blocked","Female","cave","11","F_cave.wav","None","736.114490312","322","206408.134285","198674.398573","199441.227875","200207.551369","200974.442506","201740.800628","202507.846043","203274.358442","207174.76046","207941.431466","208691.006739","209457.546964","195607.444643","196374.384938","197140.897647","197907.905342","208700.161976","Mapping"
"Blocked","Female","cave","11","F_bluff.wav","space","518.134708516","322","206408.134285","198674.398573","199441.227875","200207.551369","200974.442506","201740.800628","202507.846043","203274.358442","207174.76046","207941.431466","208691.006739","209457.546964","210224.09801","196374.384938","197140.897647","197907.905342","209467.029925","Mapping"
"Blocked","Female","cave","11","F_cave.wav","None","733.830627985","322","206408.134285","198674.398573","199441.227875","200207.551369","200974.442506","201740.800628","202507.846043","203274.358442","207174.76046","207941.431466","208691.006739","209457.546964","210224.09801","210990.530025","197140.897647","197907.905342","210233.34569","Mapping"
"Blocked","Female","cave","11","F_park.wav","space","577.700326219","322","206408.134285","198674.398573","199441.227875","200207.551369","200974.442506","201740.800628","202507.846043","203274.358442","207174.76046","207941.431466","208691.006739","209457.546964","210224.09801","210990.530025","211757.171659","197907.905342","210999.39773","Mapping"
"Blocked","Female","cave","11","F_cling.wav","None","734.611908905","322","206408.134285","198674.398573","199441.227875","200207.551369","200974.442506","201740.800628","202507.846043","203274.358442","207174.76046","207941.431466","208691.006739","209457.546964","210224.09801","210990.530025","211757.171659","212524.208107","211765.975365","Mapping"
"Blocked","Female","cave","11","F_depth.wav","None","733.05800464","322","206408.134285","213290.941874","199441.227875","200207.551369","200974.442506","201740.800628","202507.846043","203274.358442","207174.76046","207941.431466","208691.006739","209457.546964","210224.09801","210990.530025","211757.171659","212524.208107","212533.58131","Mapping"
"Blocked","Female","cave","11","F_cave.wav","None","732.053809799","322","206408.134285","213290.941874","214057.617517","200207.551369","200974.442506","201740.800628","202507.846043","203274.358442","207174.76046","207941.431466","208691.006739","209457.546964","210224.09801","210990.530025","211757.171659","212524.208107","213300.477394","Mapping"
"Blocked","Female","cave","11","F_bluff.wav","space","549.473740626","322","206408.134285","213290.941874","214057.617517","214823.739431","200974.442506","201740.800628","202507.846043","203274.358442","207174.76046","207941.431466","208691.006739","209457.546964","210224.09801","210990.530025","211757.171659","212524.208107","214067.57073","Mapping"
"Blocked","Female","cave","11","F_park.wav","None","730.506088585","322","206408.134285","213290.941874","214057.617517","214823.739431","215590.903568","201740.800628","202507.846043","203274.358442","207174.76046","207941.431466","208691.006739","209457.546964","210224.09801","210990.530025","211757.171659","212524.208107","214832.895905","Mapping"
"Blocked","Female","cave","11","F_cling.wav","None","729.244971182","322","206408.134285","213290.941874","214057.617517","214823.739431","215590.903568","216357.57952","202507.846043","203274.358442","207174.76046","207941.431466","208691.006739","209457.546964","210224.09801","210990.530025","211757.171659","212524.208107","215600.260385","Mapping"
"Blocked","Female","cave","11","F_lash.wav","None","725.764917675","322","206408.134285","213290.941874","214057.617517","214823.739431","215590.903568","216357.57952","217124.038124","203274.358442","207174.76046","207941.431466","208691.006739","209457.546964","210224.09801","210990.530025","211757.171659","212524.208107","216369.567093","Mapping"
"Blocked","Female","cave","11","F_knife.wav","None","727.977670263","322","206408.134285","213290.941874","214057.617517","214823.739431","215590.903568","216357.57952","217124.038124","217890.524552","207174.76046","207941.431466","208691.006739","209457.546964","210224.09801","210990.530025","211757.171659","212524.208107","217133.559421","Mapping"
"Blocked","Female","tile","14","F_romp.wav","None","727.756920736","322","221024.373051","213290.941874","214057.617517","214823.739431","215590.903568","216357.57952","217124.038124","217890.524552","207174.76046","207941.431466","208691.006739","209457.546964","210224.09801","210990.530025","211757.171659","212524.208107","217899.682881","Mapping"
"Blocked","Female","tile","14","F_tile.wav","None","721.90365335","322","221024.373051","213290.941874","214057.617517","214823.739431","215590.903568","216357.57952","217124.038124","217890.524552","221791.12506","207941.431466","208691.006739","209457.546964","210224.09801","210990.530025","211757.171659","212524.208107","221034.241859","Mapping"
"Blocked","Female","tile","14","F_knife.wav","space","471.57075163","322","221024.373051","213290.941874","214057.617517","214823.739431","215590.903568","216357.57952","217124.038124","217890.524552","221791.12506","222557.904276","208691.006739","209457.546964","210224.09801","210990.530025","211757.171659","212524.208107","221801.356528","Mapping"
"Blocked","Female","tile","14","F_tile.wav","None","719.471388031","322","221024.373051","213290.941874","214057.617517","214823.739431","215590.903568","216357.57952","217124.038124","217890.524552","221791.12506","222557.904276","223324.491804","209457.546964","210224.09801","210990.530025","211757.171659","212524.208107","222567.900154","Mapping"
"Blocked","Female","tile","14","F_cling.wav","space","482.387175784","322","221024.373051","213290.941874","214057.617517","214823.739431","215590.903568","216357.57952","217124.038124","217890.524552","221791.12506","222557.904276","223324.491804","224073.851584","210224.09801","210990.530025","211757.171659","212524.208107","223334.501287","Mapping"
"Blocked","Female","tile","14","F_tile.wav","None","735.209540464","322","221024.373051","213290.941874","214057.617517","214823.739431","215590.903568","216357.57952","217124.038124","217890.524552","221791.12506","222557.904276","223324.491804","224073.851584","224840.347597","210990.530025","211757.171659","212524.208107","224083.383393","Mapping"
"Blocked","Female","tile","14","F_priest.wav","space","487.320961896","322","221024.373051","213290.941874","214057.617517","214823.739431","215590.903568","216357.57952","217124.038124","217890.524552","221791.12506","222557.904276","223324.491804","224073.851584","224840.347597","225607.521009","211757.171659","212524.208107","224849.554775","Mapping"
"Blocked","Female","tile","14","F_depth.wav","None","732.853022404","322","221024.373051","213290.941874","214057.617517","214823.739431","215590.903568","216357.57952","217124.038124","217890.524552","221791.12506","222557.904276","223324.491804","224073.851584","224840.347597","225607.521009","226374.061234","212524.208107","225616.850619","Mapping"
"Blocked","Female","tile","14","F_cling.wav","None","732.128011063","322","221024.373051","213290.941874","214057.617517","214823.739431","215590.903568","216357.57952","217124.038124","217890.524552","221791.12506","222557.904276","223324.491804","224073.851584","224840.347597","225607.521009","226374.061234","227140.750481","226383.728771","Mapping"
"Blocked","Female","tile","14","F_jolt.wav","None","731.425879057","322","221024.373051","227907.322551","214057.617517","214823.739431","215590.903568","216357.57952","217124.038124","217890.524552","221791.12506","222557.904276","223324.491804","224073.851584","224840.347597","225607.521009","226374.061234","227140.750481","227150.510769","Mapping"
"Blocked","Female","tile","14","F_knife.wav","None","731.515230145","322","221024.373051","227907.322551","228673.894002","214823.739431","215590.903568","216357.57952","217124.038124","217890.524552","221791.12506","222557.904276","223324.491804","224073.851584","224840.347597","225607.521009","226374.061234","227140.750481","227916.872601","Mapping"
"Blocked","Female","tile","14","F_lash.wav","None","731.113614049","322","221024.373051","227907.322551","228673.894002","229440.69115","215590.903568","216357.57952","217124.038124","217890.524552","221791.12506","222557.904276","223324.491804","224073.851584","224840.347597","225607.521009","226374.061234","227140.750481","228683.444671","Mapping"
"Blocked","Female","tile","14","F_lash.wav","None","730.913269799","322","221024.373051","227907.322551","228673.894002","229440.69115","230207.352571","216357.57952","217124.038124","217890.524552","221791.12506","222557.904276","223324.491804","224073.851584","224840.347597","225607.521009","226374.061234","227140.750481","229449.790427","Mapping"
"Blocked","Female","tile","14","F_priest.wav","None","729.591554496","322","221024.373051","227907.322551","228673.894002","229440.69115","230207.352571","230973.769745","217124.038124","217890.524552","221791.12506","222557.904276","223324.491804","224073.851584","224840.347597","225607.521009","226374.061234","227140.750481","230217.303929","Mapping"
"Blocked","Female","tile","14","F_tile.wav","None","729.925151914","322","221024.373051","227907.322551","228673.894002","229440.69115","230207.352571","230973.769745","231740.264522","217890.524552","221791.12506","222557.904276","223324.491804","224073.851584","224840.347597","225607.521009","226374.061234","227140.750481","230983.274966","Mapping"
"Blocked","Female","tile","14","F_knife.wav","space","619.367598556","322","221024.373051","227907.322551","228673.894002","229440.69115","230207.352571","230973.769745","231740.264522","232507.358477","221791.12506","222557.904276","223324.491804","224073.851584","224840.347597","225607.521009","226374.061234","227140.750481","231749.317423","Mapping"
"Blocked","Female","cave","7","F_cad.wav","None","727.314802818","322","235640.9955","227907.322551","228673.894002","229440.69115","230207.352571","230973.769745","231740.264522","232507.358477","221791.12506","222557.904276","223324.491804","224073.851584","224840.347597","225607.521009","226374.061234","227140.750481","232517.056622","Mapping"
"Blocked","Female","cave","7","F_jaw.wav","None","722.230449785","322","235640.9955","227907.322551","228673.894002","229440.69115","230207.352571","230973.769745","231740.264522","232507.358477","236406.884607","222557.904276","223324.491804","224073.851584","224840.347597","225607.521009","226374.061234","227140.750481","235650.687771","Mapping"
"Blocked","Female","cave","7","F_cave.wav","None","724.273775239","322","235640.9955","227907.322551","228673.894002","229440.69115","230207.352571","230973.769745","231740.264522","232507.358477","236406.884607","237174.369975","223324.491804","224073.851584","224840.347597","225607.521009","226374.061234","227140.750481","236415.671927","Mapping"
"Blocked","Female","cave","7","F_park.wav","space","472.44200157","322","235640.9955","227907.322551","228673.894002","229440.69115","230207.352571","230973.769745","231740.264522","232507.358477","236406.884607","237174.369975","237940.322461","224073.851584","224840.347597","225607.521009","226374.061234","227140.750481","237184.19859","Mapping"
"Blocked","Female","cave","7","F_greet.wav","None","722.180054523","322","235640.9955","227907.322551","228673.894002","229440.69115","230207.352571","230973.769745","231740.264522","232507.358477","236406.884607","237174.369975","237940.322461","238707.524008","224840.347597","225607.521009","226374.061234","227140.750481","237949.507379","Mapping"
"Blocked","Female","cave","7","F_greet.wav","None","720.547310542","322","235640.9955","227907.322551","228673.894002","229440.69115","230207.352571","230973.769745","231740.264522","232507.358477","236406.884607","237174.369975","237940.322461","238707.524008","239474.017857","225607.521009","226374.061234","227140.750481","238717.439502","Mapping"
"Blocked","Female","cave","7","F_cave.wav","None","720.71550088","322","235640.9955","227907.322551","228673.894002","229440.69115","230207.352571","230973.769745","231740.264522","232507.358477","236406.884607","237174.369975","237940.322461","238707.524008","239474.017857","240240.731528","226374.061234","227140.750481","239483.603772","Mapping"
"Blocked","Female","cave","7","F_cling.wav","space","397.891067434","322","235640.9955","227907.322551","228673.894002","229440.69115","230207.352571","230973.769745","231740.264522","232507.358477","236406.884607","237174.369975","237940.322461","238707.524008","239474.017857","240240.731528","241007.701813","227140.750481","240250.688761","Mapping"
"Blocked","Female","cave","7","F_priest.wav","None","718.694126699","322","235640.9955","227907.322551","228673.894002","229440.69115","230207.352571","230973.769745","231740.264522","232507.358477","236406.884607","237174.369975","237940.322461","238707.524008","239474.017857","240240.731528","241007.701813","241774.030873","241017.984296","Mapping"
"Blocked","Female","cave","7","F_priest.wav","None","719.108727761","322","235640.9955","242540.277384","228673.894002","229440.69115","230207.352571","230973.769745","231740.264522","232507.358477","236406.884607","237174.369975","237940.322461","238707.524008","239474.017857","240240.731528","241007.701813","241774.030873","241783.962753","Mapping"
"Blocked","Female","cave","7","F_knife.wav","None","723.05748798","322","235640.9955","242540.277384","243306.862439","229440.69115","230207.352571","230973.769745","231740.264522","232507.358477","236406.884607","237174.369975","237940.322461","238707.524008","239474.017857","240240.731528","241007.701813","241774.030873","242549.331521","Mapping"
"Blocked","Female","cave","7","F_park.wav","None","722.698538098","322","235640.9955","242540.277384","243306.862439","244073.473465","230207.352571","230973.769745","231740.264522","232507.358477","236406.884607","237174.369975","237940.322461","238707.524008","239474.017857","240240.731528","241007.701813","241774.030873","243315.98614","Mapping"
"Blocked","Female","cave","7","F_cave.wav","None","722.214063164","322","235640.9955","242540.277384","243306.862439","244073.473465","244840.16704","230973.769745","231740.264522","232507.358477","236406.884607","237174.369975","237940.322461","238707.524008","239474.017857","240240.731528","241007.701813","241774.030873","244082.75639","Mapping"
"Blocked","Female","cave","7","F_romp.wav","space","487.294681836","322","235640.9955","242540.277384","243306.862439","244073.473465","244840.16704","245607.450208","231740.264522","232507.358477","236406.884607","237174.369975","237940.322461","238707.524008","239474.017857","240240.731528","241007.701813","241774.030873","244849.235708","Mapping"
"Blocked","Female","cave","7","F_cave.wav","None","719.036999624","322","235640.9955","242540.277384","243306.862439","244073.473465","244840.16704","245607.450208","246358.173751","232507.358477","236406.884607","237174.369975","237940.322461","238707.524008","239474.017857","240240.731528","241007.701813","241774.030873","245617.345296","Mapping"
"Blocked","Female","cave","7","F_romp.wav","space","624.995478429","322","235640.9955","242540.277384","243306.862439","244073.473465","244840.16704","245607.450208","246358.173751","247123.09329","236406.884607","237174.369975","237940.322461","238707.524008","239474.017857","240240.731528","241007.701813","241774.030873","246367.472135","Mapping"
"Blocked","Female","done","20","F_cling.wav","None","735.468627885","322","250256.664769","242540.277384","243306.862439","244073.473465","244840.16704","245607.450208","246358.173751","247123.09329","236406.884607","237174.369975","237940.322461","238707.524008","239474.017857","240240.731528","241007.701813","241774.030873","247132.346225","Mapping"
"Blocked","Female","done","20","F_jaw.wav","None","722.059167922","322","250256.664769","242540.277384","243306.862439","244073.473465","244840.16704","245607.450208","246358.173751","247123.09329","251024.14519","237174.369975","237940.322461","238707.524008","239474.017857","240240.731528","241007.701813","241774.030873","250266.451956","Mapping"
"Blocked","Female","done","20","F_done.wav","None","721.165966243","322","250256.664769","242540.277384","243306.862439","244073.473465","244840.16704","245607.450208","246358.173751","247123.09329","251024.14519","251790.708912","237940.322461","238707.524008","239474.017857","240240.731528","241007.701813","241774.030873","251033.749655","Mapping"
"Blocked","Female","done","20","F_jaw.wav","space","615.887854248","322","250256.664769","242540.277384","243306.862439","244073.473465","244840.16704","245607.450208","246358.173751","247123.09329","251024.14519","251790.708912","252556.805474","238707.524008","239474.017857","240240.731528","241007.701813","241774.030873","251800.467655","Mapping"
"Blocked","Female","done","20","F_romp.wav","None","720.276474953","322","250256.664769","242540.277384","243306.862439","244073.473465","244840.16704","245607.450208","246358.173751","247123.09329","251024.14519","251790.708912","252556.805474","253306.638598","239474.017857","240240.731528","241007.701813","241774.030873","252565.821583","Mapping"
"Blocked","Female","done","20","F_cling.wav","None","736.66327307","322","250256.664769","242540.277384","243306.862439","244073.473465","244840.16704","245607.450208","246358.173751","247123.09329","251024.14519","251790.708912","252556.805474","253306.638598","254073.097819","240240.731528","241007.701813","241774.030873","253315.680986","Mapping"
"Blocked","Female","done","20","F_gnash.wav","None","736.291028094","322","250256.664769","242540.277384","243306.862439","244073.473465","244840.16704","245607.450208","246358.173751","247123.09329","251024.14519","251790.708912","252556.805474","253306.638598","254073.097819","254839.982464","241007.701813","241774.030873","254082.249965","Mapping"
"Blocked","Female","done","20","F_done.wav","None","735.38824264","322","250256.664769","242540.277384","243306.862439","244073.473465","244840.16704","245607.450208","246358.173751","247123.09329","251024.14519","251790.708912","252556.805474","253306.638598","254073.097819","254839.982464","255606.663672","241774.030873","254849.349175","Mapping"
"Blocked","Female","done","20","F_jaw.wav","space","584.308285266","322","250256.664769","242540.277384","243306.862439","244073.473465","244840.16704","245607.450208","246358.173751","247123.09329","251024.14519","251790.708912","252556.805474","253306.638598","254073.097819","254839.982464","255606.663672","256373.384763","255615.978751","Mapping"
"Blocked","Female","done","20","F_done.wav","None","733.189402614","322","250256.664769","257140.176655","243306.862439","244073.473465","244840.16704","245607.450208","246358.173751","247123.09329","251024.14519","251790.708912","252556.805474","253306.638598","254073.097819","254839.982464","255606.663672","256373.384763","256382.749929","Mapping"
"Blocked","Female","done","20","F_reek.wav","space","522.401916794","322","250256.664769","257140.176655","257906.846733","244073.473465","244840.16704","245607.450208","246358.173751","247123.09329","251024.14519","251790.708912","252556.805474","253306.638598","254073.097819","254839.982464","255606.663672","256373.384763","257149.868308","Mapping"
"Blocked","Female","done","20","F_done.wav","None","730.951916426","322","250256.664769","257140.176655","257906.846733","258673.151059","244840.16704","245607.450208","246358.173751","247123.09329","251024.14519","251790.708912","252556.805474","253306.638598","254073.097819","254839.982464","255606.663672","256373.384763","257916.317017","Mapping"
"Blocked","Female","done","20","F_park.wav","space","686.220428906","322","250256.664769","257140.176655","257906.846733","258673.151059","259440.108668","245607.450208","246358.173751","247123.09329","251024.14519","251790.708912","252556.805474","253306.638598","254073.097819","254839.982464","255606.663672","256373.384763","258681.995268","Mapping"
"Blocked","Female","done","20","F_cling.wav","None","729.358128738","322","250256.664769","257140.176655","257906.846733","258673.151059","259440.108668","260206.757722","246358.173751","247123.09329","251024.14519","251790.708912","252556.805474","253306.638598","254073.097819","254839.982464","255606.663672","256373.384763","259449.382318","Mapping"
"Blocked","Female","done","20","F_priest.wav","None","728.560770862","322","250256.664769","257140.176655","257906.846733","258673.151059","259440.108668","260206.757722","260973.294546","247123.09329","251024.14519","251790.708912","252556.805474","253306.638598","254073.097819","254839.982464","255606.663672","256373.384763","260216.65652","Mapping"
"Blocked","Female","done","20","F_jolt.wav","None","728.788631503","322","250256.664769","257140.176655","257906.846733","258673.151059","259440.108668","260206.757722","260973.294546","261740.115501","251024.14519","251790.708912","252556.805474","253306.638598","254073.097819","254839.982464","255606.663672","256373.384763","260982.72031","Mapping"
"Blocked","Female","cave","12","F_greet.wav","None","728.247887455","322","264873.79179","257140.176655","257906.846733","258673.151059","259440.108668","260206.757722","260973.294546","261740.115501","251024.14519","251790.708912","252556.805474","253306.638598","254073.097819","254839.982464","255606.663672","256373.384763","261749.502308","Mapping"
"Blocked","Female","cave","12","F_park.wav","None","721.016944852","322","264873.79179","257140.176655","257906.846733","258673.151059","259440.108668","260206.757722","260973.294546","261740.115501","265640.272962","251790.708912","252556.805474","253306.638598","254073.097819","254839.982464","255606.663672","256373.384763","264883.897425","Mapping"
"Blocked","Female","cave","12","F_knife.wav","None","721.211414784","322","264873.79179","257140.176655","257906.846733","258673.151059","259440.108668","260206.757722","260973.294546","261740.115501","265640.272962","266406.603259","252556.805474","253306.638598","254073.097819","254839.982464","255606.663672","256373.384763","265650.135588","Mapping"
"Blocked","Female","cave","12","F_bluff.wav","None","721.980328206","322","264873.79179","257140.176655","257906.846733","258673.151059","259440.108668","260206.757722","260973.294546","261740.115501","265640.272962","266406.603259","267173.53768","253306.638598","254073.097819","254839.982464","255606.663672","256373.384763","266415.77952","Mapping"
"Blocked","Female","cave","12","F_cave.wav","None","720.86977819","322","264873.79179","257140.176655","257906.846733","258673.151059","259440.108668","260206.757722","260973.294546","261740.115501","265640.272962","266406.603259","267173.53768","267940.321225","254073.097819","254839.982464","255606.663672","256373.384763","267183.224695","Mapping"
"Blocked","Female","cave","12","F_gnash.wav","space","537.815128453","322","264873.79179","257140.176655","257906.846733","258673.151059","259440.108668","260206.757722","260973.294546","261740.115501","265640.272962","266406.603259","267173.53768","267940.321225","268707.009544","254839.982464","255606.663672","256373.384763","267950.23981","Mapping"
"Blocked","Female","cave","12","F_cave.wav","None","718.560254667","322","264873.79179","257140.176655","257906.846733","258673.151059","259440.108668","260206.757722","260973.294546","261740.115501","265640.272962","266406.603259","267173.53768","267940.321225","268707.009544","269456.756099","255606.663672","256373.384763","268716.904941","Mapping"
"Blocked","Female","cave","12","F_romp.wav","space","403.464223724","322","264873.79179","257140.176655","257906.846733","258673.151059","259440.108668","260206.757722","260973.294546","261740.115501","265640.272962","266406.603259","267173.53768","267940.321225","268707.009544","269456.756099","270223.056406","256373.384763","269460.622928","Mapping"
"Blocked","Female","cave","12","F_cave.wav","None","734.28511247","322","264873.79179","257140.176655","257906.846733","258673.151059","259440.108668","260206.757722","260973.294546","261740.115501","265640.272962","266406.603259","267173.53768","267940.321225","268707.009544","269456.756099","270223.056406","270989.371553","270232.519888","Mapping"
"Blocked","Female","cave","12","F_bluff.wav","space","465.410784818","322","264873.79179","271756.081205","257906.846733","258673.151059","259440.108668","260206.757722","260973.294546","261740.115501","265640.272962","266406.603259","267173.53768","267940.321225","268707.009544","269456.756099","270223.056406","270989.371553","270998.643657","Mapping"
"Blocked","Female","cave","12","F_cave.wav","None","733.680988196","322","264873.79179","271756.081205","272523.118889","258673.151059","259440.108668","260206.757722","260973.294546","261740.115501","265640.272962","266406.603259","267173.53768","267940.321225","268707.009544","269456.756099","270223.056406","270989.371553","271764.785667","Mapping"
"Blocked","Female","cave","12","F_gnash.wav","space","715.245299507","322","264873.79179","271756.081205","272523.118889","273289.576256","259440.108668","260206.757722","260973.294546","261740.115501","265640.272962","266406.603259","267173.53768","267940.321225","268707.009544","269456.756099","270223.056406","270989.371553","272532.778079","Mapping"
"Blocked","Female","cave","12","F_dime.wav","None","730.693757068","322","264873.79179","271756.081205","272523.118889","273289.576256","274056.534484","260206.757722","260973.294546","261740.115501","265640.272962","266406.603259","267173.53768","267940.321225","268707.009544","269456.756099","270223.056406","270989.371553","273299.055506","Mapping"
"Blocked","Female","cave","12","F_lash.wav","None","729.933809023","322","264873.79179","271756.081205","272523.118889","273289.576256","274056.534484","274822.696899","260973.294546","261740.115501","265640.272962","266406.603259","267173.53768","267940.321225","268707.009544","269456.756099","270223.056406","270989.371553","274066.218406","Mapping"
"Blocked","Female","cave","12","F_priest.wav","None","731.027663685","322","264873.79179","271756.081205","272523.118889","273289.576256","274056.534484","274822.696899","275589.472096","261740.115501","265640.272962","266406.603259","267173.53768","267940.321225","268707.009544","269456.756099","270223.056406","270989.371553","274831.544509","Mapping"
"Blocked","Female","cave","12","F_jolt.wav","None","730.338207446","322","264873.79179","271756.081205","272523.118889","273289.576256","274056.534484","274822.696899","275589.472096","276356.473917","265640.272962","266406.603259","267173.53768","267940.321225","268707.009544","269456.756099","270223.056406","270989.371553","275598.656395","Mapping"
"Blocked","Female","ball","2","F_cad.wav","None","729.144181125","322","279490.119907","271756.081205","272523.118889","273289.576256","274056.534484","274822.696899","275589.472096","276356.473917","265640.272962","266406.603259","267173.53768","267940.321225","268707.009544","269456.756099","270223.056406","270989.371553","276366.260794","Mapping"
"Blocked","Female","ball","2","F_cling.wav","None","721.917257179","322","279490.119907","271756.081205","272523.118889","273289.576256","274056.534484","274822.696899","275589.472096","276356.473917","280256.043331","266406.603259","267173.53768","267940.321225","268707.009544","269456.756099","270223.056406","270989.371553","279500.036328","Mapping"
"Blocked","Female","ball","2","F_greet.wav","None","723.015131429","322","279490.119907","271756.081205","272523.118889","273289.576256","274056.534484","274822.696899","275589.472096","276356.473917","280256.043331","281023.473048","267173.53768","267940.321225","268707.009544","269456.756099","270223.056406","270989.371553","280265.341715","Mapping"
"Blocked","Female","ball","2","F_ball.wav","None","721.622615587","322","279490.119907","271756.081205","272523.118889","273289.576256","274056.534484","274822.696899","275589.472096","276356.473917","280256.043331","281023.473048","281790.029968","267940.321225","268707.009544","269456.756099","270223.056406","270989.371553","281033.236428","Mapping"
"Blocked","Female","ball","2","F_knife.wav","None","721.341267694","322","279490.119907","271756.081205","272523.118889","273289.576256","274056.534484","274822.696899","275589.472096","276356.473917","280256.043331","281023.473048","281790.029968","282556.259474","268707.009544","269456.756099","270223.056406","270989.371553","281799.989983","Mapping"
"Blocked","Female","ball","2","F_ball.wav","space","18.260078039","322","279490.119907","271756.081205","272523.118889","273289.576256","274056.534484","274822.696899","275589.472096","276356.473917","280256.043331","281023.473048","281790.029968","282556.259474","283322.719933","269456.756099","270223.056406","270989.371553","282565.576718","Mapping"
"Blocked","Female","ball","2","F_lash.wav","space","467.790181283","322","279490.119907","271756.081205","272523.118889","273289.576256","274056.534484","274822.696899","275589.472096","276356.473917","280256.043331","281023.473048","281790.029968","282556.259474","283322.719933","284072.339108","270223.056406","270989.371553","283332.048615","Mapping"
"Blocked","Female","ball","2","F_ball.wav","None","736.391509417","322","279490.119907","271756.081205","272523.118889","273289.576256","274056.534484","274822.696899","275589.472096","276356.473917","280256.043331","281023.473048","281790.029968","282556.259474","283322.719933","284072.339108","284839.317741","270989.371553","284081.521553","Mapping"
"Blocked","Female","ball","2","F_park.wav","space","470.867382362","322","279490.119907","271756.081205","272523.118889","273289.576256","274056.534484","274822.696899","275589.472096","276356.473917","280256.043331","281023.473048","281790.029968","282556.259474","283322.719933","284072.339108","284839.317741","285606.430246","284848.887888","Mapping"
"Blocked","Female","ball","2","F_cad.wav","None","733.060477767","322","279490.119907","286372.820213","272523.118889","273289.576256","274056.534484","274822.696899","275589.472096","276356.473917","280256.043331","281023.473048","281790.029968","282556.259474","283322.719933","284072.339108","284839.317741","285606.430246","285616.380367","Mapping"
"Blocked","Female","ball","2","F_ball.wav","None","733.564429916","322","279490.119907","286372.820213","287139.660027","273289.576256","274056.534484","274822.696899","275589.472096","276356.473917","280256.043331","281023.473048","281790.029968","282556.259474","283322.719933","284072.339108","284839.317741","285606.430246","286382.366245","Mapping"
"Blocked","Female","ball","2","F_gnash.wav","None","733.225266915","322","279490.119907","286372.820213","287139.660027","287906.282492","274056.534484","274822.696899","275589.472096","276356.473917","280256.043331","281023.473048","281790.029968","282556.259474","283322.719933","284072.339108","284839.317741","285606.430246","287149.119799","Mapping"
"Blocked","Female","ball","2","F_lash.wav","None","733.008227311","322","279490.119907","286372.820213","287139.660027","287906.282492","288672.812824","274822.696899","275589.472096","276356.473917","280256.043331","281023.473048","281790.029968","282556.259474","283322.719933","284072.339108","284839.317741","285606.430246","287915.745356","Mapping"
"Blocked","Female","ball","2","F_cad.wav","None","732.776038349","322","279490.119907","286372.820213","287139.660027","287906.282492","288672.812824","289439.568233","275589.472096","276356.473917","280256.043331","281023.473048","281790.029968","282556.259474","283322.719933","284072.339108","284839.317741","285606.430246","288682.393792","Mapping"
"Blocked","Female","ball","2","F_bluff.wav","None","732.024438214","322","279490.119907","286372.820213","287139.660027","287906.282492","288672.812824","289439.568233","290206.229036","276356.473917","280256.043331","281023.473048","281790.029968","282556.259474","283322.719933","284072.339108","284839.317741","285606.430246","289449.636768","Mapping"
"Blocked","Female","ball","2","F_greet.wav","None","732.340413146","322","279490.119907","286372.820213","287139.660027","287906.282492","288672.812824","289439.568233","290206.229036","290972.785647","280256.043331","281023.473048","281790.029968","282556.259474","283322.719933","284072.339108","284839.317741","285606.430246","290215.711996","Mapping"
"Blocked","Female","ball","4","F_greet.wav","None","732.354326174","322","294106.668155","286372.820213","287139.660027","287906.282492","288672.812824","289439.568233","290206.229036","290972.785647","280256.043331","281023.473048","281790.029968","282556.259474","283322.719933","284072.339108","284839.317741","285606.430246","290982.303544","Mapping"
"Blocked","Female","ball","4","F_priest.wav","None","721.220999025","322","294106.668155","286372.820213","287139.660027","287906.282492","288672.812824","289439.568233","290206.229036","290972.785647","294872.619405","281023.473048","281790.029968","282556.259474","283322.719933","284072.339108","284839.317741","285606.430246","294116.48564","Mapping"
"Blocked","Female","ball","4","F_ball.wav","None","722.465421539","322","294106.668155","286372.820213","287139.660027","287906.282492","288672.812824","289439.568233","290206.229036","290972.785647","294872.619405","295639.283299","281790.029968","282556.259474","283322.719933","284072.339108","284839.317741","285606.430246","294881.822254","Mapping"
"Blocked","Female","ball","4","F_park.wav","space","439.142501913","322","294106.668155","286372.820213","287139.660027","287906.282492","288672.812824","289439.568233","290206.229036","290972.785647","294872.619405","295639.283299","296406.486392","282556.259474","283322.719933","284072.339108","284839.317741","285606.430246","295648.422459","Mapping"
"Blocked","Female","ball","4","F_gnash.wav","None","719.367505983","322","294106.668155","286372.820213","287139.660027","287906.282492","288672.812824","289439.568233","290206.229036","290972.785647","294872.619405","295639.283299","296406.486392","297173.035892","283322.719933","284072.339108","284839.317741","285606.430246","296416.546269","Mapping"
"Blocked","Female","ball","4","F_ball.wav","None","719.617317431","322","294106.668155","286372.820213","287139.660027","287906.282492","288672.812824","289439.568233","290206.229036","290972.785647","294872.619405","295639.283299","296406.486392","297173.035892","297939.206964","284072.339108","284839.317741","285606.430246","297182.875948","Mapping"
"Blocked","Female","ball","4","F_depth.wav","None","720.615637954","322","294106.668155","286372.820213","287139.660027","287906.282492","288672.812824","289439.568233","290206.229036","290972.785647","294872.619405","295639.283299","296406.486392","297173.035892","297939.206964","298706.279895","284839.317741","285606.430246","297948.431147","Mapping"
"Blocked","Female","ball","4","F_cling.wav","space","0.0392650254071","322","294106.668155","286372.820213","287139.660027","287906.282492","288672.812824","289439.568233","290206.229036","290972.785647","294872.619405","295639.283299","296406.486392","297173.035892","297939.206964","298706.279895","299455.904945","285606.430246","298716.871241","Mapping"
"Blocked","Female","ball","4","F_romp.wav","None","741.227906197","322","294106.668155","286372.820213","287139.660027","287906.282492","288672.812824","289439.568233","290206.229036","290972.785647","294872.619405","295639.283299","296406.486392","297173.035892","297939.206964","298706.279895","299455.904945","300222.095496","299459.595546","Mapping"
"Blocked","Female","ball","4","F_cad.wav","None","736.141079105","322","294106.668155","300989.541598","287139.660027","287906.282492","288672.812824","289439.568233","290206.229036","290972.785647","294872.619405","295639.283299","296406.486392","297173.035892","297939.206964","298706.279895","299455.904945","300222.095496","300231.301437","Mapping"
"Blocked","Female","ball","4","F_cling.wav","None","735.508820042","322","294106.668155","300989.541598","301755.890136","287906.282492","288672.812824","289439.568233","290206.229036","290972.785647","294872.619405","295639.283299","296406.486392","297173.035892","297939.206964","298706.279895","299455.904945","300222.095496","300998.541011","Mapping"
"Blocked","Female","ball","4","F_ball.wav","None","734.873469453","322","294106.668155","300989.541598","301755.890136","302522.410574","288672.812824","289439.568233","290206.229036","290972.785647","294872.619405","295639.283299","296406.486392","297173.035892","297939.206964","298706.279895","299455.904945","300222.095496","301765.676086","Mapping"
"Blocked","Female","ball","4","F_knife.wav","space","363.603450824","322","294106.668155","300989.541598","301755.890136","302522.410574","303289.310367","289439.568233","290206.229036","290972.785647","294872.619405","295639.283299","296406.486392","297173.035892","297939.206964","298706.279895","299455.904945","300222.095496","302531.882713","Mapping"
"Blocked","Female","ball","4","F_cad.wav","None","733.560410794","322","294106.668155","300989.541598","301755.890136","302522.410574","303289.310367","304055.967769","290206.229036","290972.785647","294872.619405","295639.283299","296406.486392","297173.035892","297939.206964","298706.279895","299455.904945","300222.095496","303298.421083","Mapping"
"Blocked","Female","ball","4","F_ball.wav","None","732.883321121","322","294106.668155","300989.541598","301755.890136","302522.410574","303289.310367","304055.967769","304822.140387","290972.785647","294872.619405","295639.283299","296406.486392","297173.035892","297939.206964","298706.279895","299455.904945","300222.095496","304065.582128","Mapping"
"Blocked","Female","ball","4","F_cad.wav","space","416.319954675","322","294106.668155","300989.541598","301755.890136","302522.410574","303289.310367","304055.967769","304822.140387","305588.927024","294872.619405","295639.283299","296406.486392","297173.035892","297939.206964","298706.279895","299455.904945","300222.095496","304831.066218","Mapping"
"Blocked","Female","done","24","F_priest.wav","None","732.240241021","322","308739.737691","300989.541598","301755.890136","302522.410574","303289.310367","304055.967769","304822.140387","305588.927024","294872.619405","295639.283299","296406.486392","297173.035892","297939.206964","298706.279895","299455.904945","300222.095496","305598.122453","Mapping"
"Blocked","Female","done","24","F_priest.wav","None","726.209199522","322","308739.737691","300989.541598","301755.890136","302522.410574","303289.310367","304055.967769","304822.140387","305588.927024","309505.701927","295639.283299","296406.486392","297173.035892","297939.206964","298706.279895","299455.904945","300222.095496","308744.257803","Mapping"
"Blocked","Female","done","24","F_greet.wav","None","722.077408805","322","308739.737691","300989.541598","301755.890136","302522.410574","303289.310367","304055.967769","304822.140387","305588.927024","309505.701927","310272.837619","296406.486392","297173.035892","297939.206964","298706.279895","299455.904945","300222.095496","309514.975267","Mapping"
"Blocked","Female","done","24","F_done.wav","None","721.963632852","322","308739.737691","300989.541598","301755.890136","302522.410574","303289.310367","304055.967769","304822.140387","305588.927024","309505.701927","310272.837619","311039.651463","297173.035892","297939.206964","298706.279895","299455.904945","300222.095496","310282.323362","Mapping"
"Blocked","Female","done","24","F_bluff.wav","space","405.84516665","322","308739.737691","300989.541598","301755.890136","302522.410574","303289.310367","304055.967769","304822.140387","305588.927024","309505.701927","310272.837619","311039.651463","311806.356786","297939.206964","298706.279895","299455.904945","300222.095496","311049.482552","Mapping"
"Blocked","Female","done","24","F_done.wav","None","719.954625703","322","308739.737691","300989.541598","301755.890136","302522.410574","303289.310367","304055.967769","304822.140387","305588.927024","309505.701927","310272.837619","311039.651463","311806.356786","312572.416865","298706.279895","299455.904945","300222.095496","311816.067298","Mapping"
"Blocked","Female","done","24","F_jolt.wav","space","457.517283503","322","308739.737691","300989.541598","301755.890136","302522.410574","303289.310367","304055.967769","304822.140387","305588.927024","309505.701927","310272.837619","311039.651463","311806.356786","312572.416865","313322.351707","299455.904945","300222.095496","312581.743075","Mapping"
"Blocked","Female","done","24","F_jaw.wav","None","736.458909698","322","308739.737691","300989.541598","301755.890136","302522.410574","303289.310367","304055.967769","304822.140387","305588.927024","309505.701927","310272.837619","311039.651463","311806.356786","312572.416865","313322.351707","314088.755587","300222.095496","313331.275373","Mapping"
"Blocked","Female","done","24","F_depth.wav","None","736.519816332","322","308739.737691","300989.541598","301755.890136","302522.410574","303289.310367","304055.967769","304822.140387","305588.927024","309505.701927","310272.837619","311039.651463","311806.356786","312572.416865","313322.351707","314088.755587","314855.353318","314097.912679","Mapping"
"Blocked","Female","done","24","F_greet.wav","None","736.530637834","322","308739.737691","315622.196842","301755.890136","302522.410574","303289.310367","304055.967769","304822.140387","305588.927024","309505.701927","310272.837619","311039.651463","311806.356786","312572.416865","313322.351707","314088.755587","314855.353318","314864.42075","Mapping"
"Blocked","Female","done","24","F_gnash.wav","None","736.432011239","322","308739.737691","315622.196842","316389.082723","302522.410574","303289.310367","304055.967769","304822.140387","305588.927024","309505.701927","310272.837619","311039.651463","311806.356786","312572.416865","313322.351707","314088.755587","314855.353318","315631.215734","Mapping"
"Blocked","Female","done","24","F_done.wav","None","735.948155634","322","308739.737691","315622.196842","316389.082723","317155.320886","303289.310367","304055.967769","304822.140387","305588.927024","309505.701927","310272.837619","311039.651463","311806.356786","312572.416865","313322.351707","314088.755587","314855.353318","316398.27537","Mapping"
"Blocked","Female","done","24","F_jaw.wav","space","410.807396285","322","308739.737691","315622.196842","316389.082723","317155.320886","317921.91769","304055.967769","304822.140387","305588.927024","309505.701927","310272.837619","311039.651463","311806.356786","312572.416865","313322.351707","314088.755587","314855.353318","317164.411196","Mapping"
"Blocked","Female","done","24","F_done.wav","None","735.231182538","322","308739.737691","315622.196842","316389.082723","317155.320886","317921.91769","318688.99433","304822.140387","305588.927024","309505.701927","310272.837619","311039.651463","311806.356786","312572.416865","313322.351707","314088.755587","314855.353318","317931.036754","Mapping"
"Blocked","Female","done","24","F_park.wav","space","452.474668622","322","308739.737691","315622.196842","316389.082723","317155.320886","317921.91769","318688.99433","319455.675229","305588.927024","309505.701927","310272.837619","311039.651463","311806.356786","312572.416865","313322.351707","314088.755587","314855.353318","318698.712262","Mapping"
"Blocked","Female","done","24","F_cad.wav","None","732.590534724","322","308739.737691","315622.196842","316389.082723","317155.320886","317921.91769","318688.99433","319455.675229","320222.214527","309505.701927","310272.837619","311039.651463","311806.356786","312572.416865","313322.351707","314088.755587","314855.353318","319465.196836","Mapping"
"Blocked","Female","tile","18","F_bluff.wav","None","732.690087985","322","323356.064262","315622.196842","316389.082723","317155.320886","317921.91769","318688.99433","319455.675229","320222.214527","309505.701927","310272.837619","311039.651463","311806.356786","312572.416865","313322.351707","314088.755587","314855.353318","320231.752211","Mapping"
"Blocked","Female","tile","18","F_depth.wav","None","721.20461287","322","323356.064262","315622.196842","316389.082723","317155.320886","317921.91769","318688.99433","319455.675229","320222.214527","324122.708988","310272.837619","311039.651463","311806.356786","312572.416865","313322.351707","314088.755587","314855.353318","323366.018402","Mapping"
"Blocked","Female","tile","18","F_tile.wav","None","721.008288208","322","323356.064262","315622.196842","316389.082723","317155.320886","317921.91769","318688.99433","319455.675229","320222.214527","324122.708988","324889.389577","311039.651463","311806.356786","312572.416865","313322.351707","314088.755587","314855.353318","324132.756807","Mapping"
"Blocked","Female","tile","18","F_cad.wav","None","721.505438443","322","323356.064262","315622.196842","316389.082723","317155.320886","317921.91769","318688.99433","319455.675229","320222.214527","324122.708988","324889.389577","325655.370818","311806.356786","312572.416865","313322.351707","314088.755587","314855.353318","324899.01012","Mapping"
"Blocked","Female","tile","18","F_tile.wav","None","722.761609126","322","323356.064262","315622.196842","316389.082723","317155.320886","317921.91769","318688.99433","319455.675229","320222.214527","324122.708988","324889.389577","325655.370818","326422.081397","312572.416865","313322.351707","314088.755587","314855.353318","325664.487717","Mapping"
"Blocked","Female","tile","18","F_bluff.wav","space","720.161462668","322","323356.064262","315622.196842","316389.082723","317155.320886","317921.91769","318688.99433","319455.675229","320222.214527","324122.708988","324889.389577","325655.370818","326422.081397","327189.352817","313322.351707","314088.755587","314855.353318","326430.873355","Mapping"
"Blocked","Female","tile","18","F_tile.wav","None","720.079222694","322","323356.064262","315622.196842","316389.082723","317155.320886","317921.91769","318688.99433","319455.675229","320222.214527","324122.708988","324889.389577","325655.370818","326422.081397","327189.352817","327955.329419","314088.755587","314855.353318","327199.153916","Mapping"
"Blocked","Female","tile","18","F_jaw.wav","space","434.408442117","322","323356.064262","315622.196842","316389.082723","317155.320886","317921.91769","318688.99433","319455.675229","320222.214527","324122.708988","324889.389577","325655.370818","326422.081397","327189.352817","327955.329419","328722.429866","314855.353318","327964.597195","Mapping"
"Blocked","Female","tile","18","F_reek.wav","None","719.113365747","322","323356.064262","315622.196842","316389.082723","317155.320886","317921.91769","318688.99433","319455.675229","320222.214527","324122.708988","324889.389577","325655.370818","326422.081397","327189.352817","327955.329419","328722.429866","329489.076447","328732.059993","Mapping"
"Blocked","Female","tile","18","F_jolt.wav","None","718.891069759","322","323356.064262","330255.619764","316389.082723","317155.320886","317921.91769","318688.99433","319455.675229","320222.214527","324122.708988","324889.389577","325655.370818","326422.081397","327189.352817","327955.329419","328722.429866","329489.076447","329498.991631","Mapping"
"Blocked","Female","tile","18","F_romp.wav","None","719.607115258","322","323356.064262","330255.619764","331022.573972","317155.320886","317921.91769","318688.99433","319455.675229","320222.214527","324122.708988","324889.389577","325655.370818","326422.081397","327189.352817","327955.329419","328722.429866","329489.076447","330265.03687","Mapping"
"Blocked","Female","tile","18","F_dime.wav","None","719.147065189","322","323356.064262","330255.619764","331022.573972","331789.140168","317921.91769","318688.99433","319455.675229","320222.214527","324122.708988","324889.389577","325655.370818","326422.081397","327189.352817","327955.329419","328722.429866","329489.076447","331032.724437","Mapping"
