"Condition","Talker","Target","Trial","current_stimulus","response_response","response_time_response","subject_nr","time_Audio1","time_Audio10","time_Audio11","time_Audio12","time_Audio13","time_Audio14","time_Audio15","time_Audio16","time_Audio2","time_Audio3","time_Audio4","time_Audio5","time_Audio6","time_Audio7","time_Audio8","time_Audio9","time_response"
"Mixed","Female","cave","21","M_jolt.wav","NA","NA","431","178802.677733","NA","NA","NA","NA","NA","NA","NA","NA","NA","NA","NA","NA","NA","NA","NA","NA"
"Mixed","Female","cave","21","M_cad.wav","None","739.119406873","431","178802.677733","NA","NA","NA","NA","NA","NA","NA","179569.24569","NA","NA","NA","NA","NA","NA","NA","178809.757497"
"Mixed","Female","cave","21","F_gnash.wav","None","737.528885365","431","178802.677733","NA","NA","NA","NA","NA","NA","NA","179569.24569","180335.915045","NA","NA","NA","NA","NA","NA","179574.538565"
"Mixed","Female","cave","21","M_greet.wav","None","734.327679573","431","178802.677733","NA","NA","NA","NA","NA","NA","NA","179569.24569","180335.915045","181102.517191","NA","NA","NA","NA","NA","180341.124346"
"Mixed","Female","cave","21","F_cave.wav","None","731.18228668","431","178802.677733","NA","NA","NA","NA","NA","NA","NA","179569.24569","180335.915045","181102.517191","181869.488988","NA","NA","NA","NA","181107.711589"
"Mixed","Female","cave","21","M_jolt.wav","space","509.34208573","431","178802.677733","NA","NA","NA","NA","NA","NA","NA","179569.24569","180335.915045","181102.517191","181869.488988","182619.106479","NA","NA","NA","181875.219307"
"Mixed","Female","cave","21","M_jaw.wav","None","741.15672379","431","178802.677733","NA","NA","NA","NA","NA","NA","NA","179569.24569","180335.915045","181102.517191","181869.488988","182619.106479","183385.751288","NA","NA","182624.411919"
"Mixed","Female","cave","21","F_dime.wav","None","738.02009732","431","178802.677733","NA","NA","NA","NA","NA","NA","NA","179569.24569","180335.915045","181102.517191","181869.488988","182619.106479","183385.751288","184152.387331","NA","183390.865328"
"Mixed","Female","cave","21","M_gnash.wav","None","734.773306125","431","178802.677733","NA","NA","NA","NA","NA","NA","NA","179569.24569","180335.915045","181102.517191","181869.488988","182619.106479","183385.751288","184152.387331","184919.03477","184157.507799"
"Mixed","Female","cave","21","F_dime.wav","None","731.395602994","431","178802.677733","185685.824809","NA","NA","NA","NA","NA","NA","179569.24569","180335.915045","181102.517191","181869.488988","182619.106479","183385.751288","184152.387331","184919.03477","184924.297254"
"Mixed","Female","cave","21","F_cave.wav","None","727.496297648","431","178802.677733","185685.824809","186435.655033","NA","NA","NA","NA","NA","179569.24569","180335.915045","181102.517191","181869.488988","182619.106479","183385.751288","184152.387331","184919.03477","185691.572661"
"Mixed","Female","cave","21","M_reek.wav","space","559.206381491","431","178802.677733","185685.824809","186435.655033","187202.240523","NA","NA","NA","NA","179569.24569","180335.915045","181102.517191","181869.488988","182619.106479","183385.751288","184152.387331","184919.03477","186440.975376"
"Mixed","Female","cave","21","F_cave.wav","None","738.472737004","431","178802.677733","185685.824809","186435.655033","187202.240523","187968.871598","NA","NA","NA","179569.24569","180335.915045","181102.517191","181869.488988","182619.106479","183385.751288","184152.387331","184919.03477","187207.141246"
"Mixed","Female","cave","21","M_priest.wav","None","735.082468673","431","178802.677733","185685.824809","186435.655033","187202.240523","187968.871598","188735.486309","NA","NA","179569.24569","180335.915045","181102.517191","181869.488988","182619.106479","183385.751288","184152.387331","184919.03477","187973.966935"
"Mixed","Female","cave","21","F_cave.wav","space","51.4106929331","431","178802.677733","185685.824809","186435.655033","187202.240523","187968.871598","188735.486309","189502.4508","NA","179569.24569","180335.915045","181102.517191","181869.488988","182619.106479","183385.751288","184152.387331","184919.03477","188740.624894"
"Mixed","Female","cave","21","F_park.wav","space","603.608902944","431","178802.677733","185685.824809","186435.655033","187202.240523","187968.871598","188735.486309","189502.4508","190252.113","179569.24569","180335.915045","181102.517191","181869.488988","182619.106479","183385.751288","184152.387331","184919.03477","189508.339499"
"Mixed","Female","tile","34","F_jolt.wav","None","741.330591198","431","193368.690074","185685.824809","186435.655033","187202.240523","187968.871598","188735.486309","189502.4508","190252.113","179569.24569","180335.915045","181102.517191","181869.488988","182619.106479","183385.751288","184152.387331","184919.03477","190257.338081"
"Mixed","Female","tile","34","M_cling.wav","None","741.210783402","431","193368.690074","185685.824809","186435.655033","187202.240523","187968.871598","188735.486309","189502.4508","190252.113","194135.235823","180335.915045","181102.517191","181869.488988","182619.106479","183385.751288","184152.387331","184919.03477","193373.620895"
"Mixed","Female","tile","34","F_tile.wav","None","741.131885588","431","193368.690074","185685.824809","186435.655033","187202.240523","187968.871598","188735.486309","189502.4508","190252.113","194135.235823","194901.885307","181102.517191","181869.488988","182619.106479","183385.751288","184152.387331","184919.03477","194137.083785"
"Mixed","Female","tile","34","M_reek.wav","space","556.554830473","431","193368.690074","185685.824809","186435.655033","187202.240523","187968.871598","188735.486309","189502.4508","190252.113","194135.235823","194901.885307","195668.514629","181869.488988","182619.106479","183385.751288","184152.387331","184919.03477","194906.91928"
"Mixed","Female","tile","34","F_tile.wav","None","731.81493027","431","193368.690074","185685.824809","186435.655033","187202.240523","187968.871598","188735.486309","189502.4508","190252.113","194135.235823","194901.885307","195668.514629","196435.395839","182619.106479","183385.751288","184152.387331","184919.03477","195673.45071"
"Mixed","Female","tile","34","M_greet.wav","space","590.222865874","431","193368.690074","185685.824809","186435.655033","187202.240523","187968.871598","188735.486309","189502.4508","190252.113","194135.235823","194901.885307","195668.514629","196435.395839","197185.049858","183385.751288","184152.387331","184919.03477","196441.053397"
"Mixed","Female","tile","34","M_greet.wav","None","742.094438931","431","193368.690074","185685.824809","186435.655033","187202.240523","187968.871598","188735.486309","189502.4508","190252.113","194135.235823","194901.885307","195668.514629","196435.395839","197185.049858","197951.720089","184152.387331","184919.03477","197190.080032"
"Mixed","Female","tile","34","M_reek.wav","None","738.604525577","431","193368.690074","185685.824809","186435.655033","187202.240523","187968.871598","188735.486309","189502.4508","190252.113","194135.235823","194901.885307","195668.514629","196435.395839","197185.049858","197951.720089","198718.3611","184919.03477","197957.060887"
"Mixed","Female","tile","34","F_romp.wav","None","735.764204233","431","193368.690074","185685.824809","186435.655033","187202.240523","187968.871598","188735.486309","189502.4508","190252.113","194135.235823","194901.885307","195668.514629","196435.395839","197185.049858","197951.720089","198718.3611","199485.008831","198723.419326"
"Mixed","Female","tile","34","F_gnash.wav","None","732.443190649","431","193368.690074","200251.615067","186435.655033","187202.240523","187968.871598","188735.486309","189502.4508","190252.113","194135.235823","194901.885307","195668.514629","196435.395839","197185.049858","197951.720089","198718.3611","199485.008831","199490.100662"
"Mixed","Female","tile","34","F_tile.wav","None","729.358286084","431","193368.690074","200251.615067","201001.560423","187202.240523","187968.871598","188735.486309","189502.4508","190252.113","194135.235823","194901.885307","195668.514629","196435.395839","197185.049858","197951.720089","198718.3611","199485.008831","200256.790764"
"Mixed","Female","tile","34","M_cad.wav","space","496.034654258","431","193368.690074","200251.615067","201001.560423","201768.237084","187968.871598","188735.486309","189502.4508","190252.113","194135.235823","194901.885307","195668.514629","196435.395839","197185.049858","197951.720089","198718.3611","199485.008831","201006.989178"
"Mixed","Female","tile","34","F_tile.wav","None","739.442303489","431","193368.690074","200251.615067","201001.560423","201768.237084","202534.870497","188735.486309","189502.4508","190252.113","194135.235823","194901.885307","195668.514629","196435.395839","197185.049858","197951.720089","198718.3611","199485.008831","201773.304077"
"Mixed","Female","tile","34","F_jaw.wav","space","611.066207541","431","193368.690074","200251.615067","201001.560423","201768.237084","202534.870497","203301.475272","189502.4508","190252.113","194135.235823","194901.885307","195668.514629","196435.395839","197185.049858","197951.720089","198718.3611","199485.008831","202539.855962"
"Mixed","Female","tile","34","M_park.wav","None","733.216097022","431","193368.690074","200251.615067","201001.560423","201768.237084","202534.870497","203301.475272","204068.085308","190252.113","194135.235823","194901.885307","195668.514629","196435.395839","197185.049858","197951.720089","198718.3611","199485.008831","203306.623209"
"Mixed","Female","tile","34","M_reek.wav","None","730.184375429","431","193368.690074","200251.615067","201001.560423","201768.237084","202534.870497","203301.475272","204068.085308","204818.082093","194135.235823","194901.885307","195668.514629","196435.395839","197185.049858","197951.720089","198718.3611","199485.008831","204073.236459"
"Mixed","Female","cave","19","M_lash.wav","None","743.492975755","431","207934.584653","200251.615067","201001.560423","201768.237084","202534.870497","203301.475272","204068.085308","204818.082093","194135.235823","194901.885307","195668.514629","196435.395839","197185.049858","197951.720089","198718.3611","199485.008831","204823.446268"
"Mixed","Female","cave","19","M_depth.wav","None","740.783566347","431","207934.584653","200251.615067","201001.560423","201768.237084","202534.870497","203301.475272","204068.085308","204818.082093","208701.257807","194901.885307","195668.514629","196435.395839","197185.049858","197951.720089","198718.3611","199485.008831","207939.750706"
"Mixed","Female","cave","19","M_park.wav","None","737.692525279","431","207934.584653","200251.615067","201001.560423","201768.237084","202534.870497","203301.475272","204068.085308","204818.082093","208701.257807","209467.842127","195668.514629","196435.395839","197185.049858","197951.720089","198718.3611","199485.008831","208706.310481"
"Mixed","Female","cave","19","F_priest.wav","None","734.060303646","431","207934.584653","200251.615067","201001.560423","201768.237084","202534.870497","203301.475272","204068.085308","204818.082093","208701.257807","209467.842127","210234.518203","196435.395839","197185.049858","197951.720089","198718.3611","199485.008831","209473.313252"
"Mixed","Female","cave","19","F_cave.wav","None","731.141084489","431","207934.584653","200251.615067","201001.560423","201768.237084","202534.870497","203301.475272","204068.085308","204818.082093","208701.257807","209467.842127","210234.518203","211001.167688","197185.049858","197951.720089","198718.3611","199485.008831","210239.709095"
"Mixed","Female","cave","19","M_knife.wav","space","455.249159299","431","207934.584653","200251.615067","201001.560423","201768.237084","202534.870497","203301.475272","204068.085308","204818.082093","208701.257807","209467.842127","210234.518203","211001.167688","211751.064244","197951.720089","198718.3611","199485.008831","211007.004957"
"Mixed","Female","cave","19","F_priest.wav","None","741.218965399","431","207934.584653","200251.615067","201001.560423","201768.237084","202534.870497","203301.475272","204068.085308","204818.082093","208701.257807","209467.842127","210234.518203","211001.167688","211751.064244","212517.744411","198718.3611","199485.008831","211756.152861"
"Mixed","Female","cave","19","F_cave.wav","None","737.854704123","431","207934.584653","200251.615067","201001.560423","201768.237084","202534.870497","203301.475272","204068.085308","204818.082093","208701.257807","209467.842127","210234.518203","211001.167688","211751.064244","212517.744411","213284.312075","199485.008831","212522.947576"
"Mixed","Female","cave","19","M_cad.wav","space","564.71198791","431","207934.584653","200251.615067","201001.560423","201768.237084","202534.870497","203301.475272","204068.085308","204818.082093","208701.257807","209467.842127","210234.518203","211001.167688","211751.064244","212517.744411","213284.312075","214050.984937","213289.328808"
"Mixed","Female","cave","19","F_lash.wav","None","731.500507867","431","207934.584653","214817.884849","201001.560423","201768.237084","202534.870497","203301.475272","204068.085308","204818.082093","208701.257807","209467.842127","210234.518203","211001.167688","211751.064244","212517.744411","213284.312075","214050.984937","214056.091963"
"Mixed","Female","cave","19","M_cling.wav","None","728.291120082","431","207934.584653","214817.884849","215567.539744","201768.237084","202534.870497","203301.475272","204068.085308","204818.082093","208701.257807","209467.842127","210234.518203","211001.167688","211751.064244","212517.744411","213284.312075","214050.984937","214822.817423"
"Mixed","Female","cave","19","F_cave.wav","None","741.592415055","431","207934.584653","214817.884849","215567.539744","216334.168481","202534.870497","203301.475272","204068.085308","204818.082093","208701.257807","209467.842127","210234.518203","211001.167688","211751.064244","212517.744411","213284.312075","214050.984937","215572.891646"
"Mixed","Female","cave","19","M_priest.wav","space","578.476150065","431","207934.584653","214817.884849","215567.539744","216334.168481","217100.824979","203301.475272","204068.085308","204818.082093","208701.257807","209467.842127","210234.518203","211001.167688","211751.064244","212517.744411","213284.312075","214050.984937","216339.300346"
"Mixed","Female","cave","19","F_bluff.wav","None","735.525173077","431","207934.584653","214817.884849","215567.539744","216334.168481","217100.824979","217867.476509","204068.085308","204818.082093","208701.257807","209467.842127","210234.518203","211001.167688","211751.064244","212517.744411","213284.312075","214050.984937","217105.938142"
"Mixed","Female","cave","19","F_cave.wav","None","732.416599163","431","207934.584653","214817.884849","215567.539744","216334.168481","217100.824979","217867.476509","218634.081285","204818.082093","208701.257807","209467.842127","210234.518203","211001.167688","211751.064244","212517.744411","213284.312075","214050.984937","217872.634381"
"Mixed","Female","cave","19","M_priest.wav","space","646.31716688","431","207934.584653","214817.884849","215567.539744","216334.168481","217100.824979","217867.476509","218634.081285","219384.041544","208701.257807","209467.842127","210234.518203","211001.167688","211751.064244","212517.744411","213284.312075","214050.984937","218639.256105"
"Mixed","Female","ball","12","M_jaw.wav","None","742.587111956","431","222483.900463","214817.884849","215567.539744","216334.168481","217100.824979","217867.476509","218634.081285","219384.041544","208701.257807","209467.842127","210234.518203","211001.167688","211751.064244","212517.744411","213284.312075","214050.984937","219389.204967"
"Mixed","Female","ball","12","M_cling.wav","None","741.151463935","431","222483.900463","214817.884849","215567.539744","216334.168481","217100.824979","217867.476509","218634.081285","219384.041544","223250.568356","209467.842127","210234.518203","211001.167688","211751.064244","212517.744411","213284.312075","214050.984937","222489.075867"
"Mixed","Female","ball","12","F_cad.wav","None","738.068604867","431","222483.900463","214817.884849","215567.539744","216334.168481","217100.824979","217867.476509","218634.081285","219384.041544","223250.568356","224017.150924","210234.518203","211001.167688","211751.064244","212517.744411","213284.312075","214050.984937","223255.72126"
"Mixed","Female","ball","12","M_depth.wav","None","735.400397643","431","222483.900463","214817.884849","215567.539744","216334.168481","217100.824979","217867.476509","218634.081285","219384.041544","223250.568356","224017.150924","224783.789012","211001.167688","211751.064244","212517.744411","213284.312075","214050.984937","224022.170286"
"Mixed","Female","ball","12","M_cling.wav","None","732.193055355","431","222483.900463","214817.884849","215567.539744","216334.168481","217100.824979","217867.476509","218634.081285","219384.041544","223250.568356","224017.150924","224783.789012","225550.412197","211751.064244","212517.744411","213284.312075","214050.984937","224789.077211"
"Mixed","Female","ball","12","F_ball.wav","None","729.621571012","431","222483.900463","214817.884849","215567.539744","216334.168481","217100.824979","217867.476509","218634.081285","219384.041544","223250.568356","224017.150924","224783.789012","225550.412197","226300.346157","212517.744411","213284.312075","214050.984937","225555.437111"
"Mixed","Female","ball","12","M_knife.wav","space","563.615600495","431","222483.900463","214817.884849","215567.539744","216334.168481","217100.824979","217867.476509","218634.081285","219384.041544","223250.568356","224017.150924","224783.789012","225550.412197","226300.346157","227067.007622","213284.312075","214050.984937","226305.368733"
"Mixed","Female","ball","12","F_ball.wav","None","739.707926135","431","222483.900463","214817.884849","215567.539744","216334.168481","217100.824979","217867.476509","218634.081285","219384.041544","223250.568356","224017.150924","224783.789012","225550.412197","226300.346157","227067.007622","227833.704153","214050.984937","227072.367121"
"Mixed","Female","ball","12","M_cling.wav","space","534.044114986","431","222483.900463","214817.884849","215567.539744","216334.168481","217100.824979","217867.476509","218634.081285","219384.041544","223250.568356","224017.150924","224783.789012","225550.412197","226300.346157","227067.007622","227833.704153","228600.253116","227838.845076"
"Mixed","Female","ball","12","F_ball.wav","None","733.512694365","431","222483.900463","229366.897633","215567.539744","216334.168481","217100.824979","217867.476509","218634.081285","219384.041544","223250.568356","224017.150924","224783.789012","225550.412197","226300.346157","227067.007622","227833.704153","228600.253116","228605.430566"
"Mixed","Female","ball","12","M_knife.wav","space","601.020470185","431","222483.900463","229366.897633","230116.838021","216334.168481","217100.824979","217867.476509","218634.081285","219384.041544","223250.568356","224017.150924","224783.789012","225550.412197","226300.346157","227067.007622","227833.704153","228600.253116","229371.682639"
"Mixed","Female","ball","12","F_gnash.wav","None","743.914348532","431","222483.900463","229366.897633","230116.838021","230883.505915","217100.824979","217867.476509","218634.081285","219384.041544","223250.568356","224017.150924","224783.789012","225550.412197","226300.346157","227067.007622","227833.704153","228600.253116","230121.853"
"Mixed","Female","ball","12","M_park.wav","None","740.602393584","431","222483.900463","229366.897633","230116.838021","230883.505915","231650.127055","217867.476509","218634.081285","219384.041544","223250.568356","224017.150924","224783.789012","225550.412197","226300.346157","227067.007622","227833.704153","228600.253116","230888.94402"
"Mixed","Female","ball","12","F_ball.wav","None","737.909640378","431","222483.900463","229366.897633","230116.838021","230883.505915","231650.127055","232416.725986","218634.081285","219384.041544","223250.568356","224017.150924","224783.789012","225550.412197","226300.346157","227067.007622","227833.704153","228600.253116","231655.301583"
"Mixed","Female","ball","12","F_jolt.wav","space","622.763831372","431","222483.900463","229366.897633","230116.838021","230883.505915","231650.127055","232416.725986","233183.379854","219384.041544","223250.568356","224017.150924","224783.789012","225550.412197","226300.346157","227067.007622","227833.704153","228600.253116","232421.762589"
"Mixed","Female","ball","12","F_park.wav","None","731.886814949","431","222483.900463","229366.897633","230116.838021","230883.505915","231650.127055","232416.725986","233183.379854","233950.044826","223250.568356","224017.150924","224783.789012","225550.412197","226300.346157","227067.007622","227833.704153","228600.253116","233188.401846"
"Mixed","Male","ball","1","F_gnash.wav","None","728.636224965","431","237033.259228","229366.897633","230116.838021","230883.505915","231650.127055","232416.725986","233183.379854","233950.044826","223250.568356","224017.150924","224783.789012","225550.412197","226300.346157","227067.007622","227833.704153","228600.253116","233955.344713"
"Mixed","Male","ball","1","F_jaw.wav","None","740.633660494","431","237033.259228","229366.897633","230116.838021","230883.505915","231650.127055","232416.725986","233183.379854","233950.044826","237799.832444","224017.150924","224783.789012","225550.412197","226300.346157","227067.007622","227833.704153","228600.253116","237038.366254"
"Mixed","Male","ball","1","M_ball.wav","None","737.558983423","431","237033.259228","229366.897633","230116.838021","230883.505915","231650.127055","232416.725986","233183.379854","233950.044826","237799.832444","238566.430791","224783.789012","225550.412197","226300.346157","227067.007622","227833.704153","228600.253116","237805.003758"
"Mixed","Male","ball","1","M_gnash.wav","space","448.108030392","431","237033.259228","229366.897633","230116.838021","230883.505915","231650.127055","232416.725986","233183.379854","233950.044826","237799.832444","238566.430791","239333.165018","225550.412197","226300.346157","227067.007622","227833.704153","228600.253116","238571.918865"
"Mixed","Male","ball","1","M_ball.wav","None","731.408168202","431","237033.259228","229366.897633","230116.838021","230883.505915","231650.127055","232416.725986","233183.379854","233950.044826","237799.832444","238566.430791","239333.165018","240099.995967","226300.346157","227067.007622","227833.704153","228600.253116","239338.202205"
"Mixed","Male","ball","1","F_park.wav","space","546.205482638","431","237033.259228","229366.897633","230116.838021","230883.505915","231650.127055","232416.725986","233183.379854","233950.044826","237799.832444","238566.430791","239333.165018","240099.995967","240849.733267","227067.007622","227833.704153","228600.253116","240105.728332"
"Mixed","Male","ball","1","M_dime.wav","None","741.950377367","431","237033.259228","229366.897633","230116.838021","230883.505915","231650.127055","232416.725986","233183.379854","233950.044826","237799.832444","238566.430791","239333.165018","240099.995967","240849.733267","241616.316711","227833.704153","228600.253116","240854.770162"
"Mixed","Male","ball","1","F_priest.wav","None","738.878330219","431","237033.259228","229366.897633","230116.838021","230883.505915","231650.127055","232416.725986","233183.379854","233950.044826","237799.832444","238566.430791","239333.165018","240099.995967","240849.733267","241616.316711","242382.951877","228600.253116","241621.59702"
"Mixed","Male","ball","1","F_lash.wav","None","735.932811789","431","237033.259228","229366.897633","230116.838021","230883.505915","231650.127055","232416.725986","233183.379854","233950.044826","237799.832444","238566.430791","239333.165018","240099.995967","240849.733267","241616.316711","242382.951877","243149.570095","242388.214361"
"Mixed","Male","ball","1","M_cling.wav","None","733.301423548","431","237033.259228","243916.188604","230116.838021","230883.505915","231650.127055","232416.725986","233183.379854","233950.044826","237799.832444","238566.430791","239333.165018","240099.995967","240849.733267","241616.316711","242382.951877","243149.570095","243154.626568"
"Mixed","Male","ball","1","F_dime.wav","None","730.227330903","431","237033.259228","243916.188604","244683.215629","230883.505915","231650.127055","232416.725986","233183.379854","233950.044826","237799.832444","238566.430791","239333.165018","240099.995967","240849.733267","241616.316711","242382.951877","243149.570095","243921.498427"
"Mixed","Male","ball","1","M_ball.wav","None","726.686280079","431","237033.259228","243916.188604","244683.215629","245432.788997","231650.127055","232416.725986","233183.379854","233950.044826","237799.832444","238566.430791","239333.165018","240099.995967","240849.733267","241616.316711","242382.951877","243149.570095","244688.649643"
"Mixed","Male","ball","1","F_romp.wav","space","621.615137628","431","237033.259228","243916.188604","244683.215629","245432.788997","246199.43176","232416.725986","233183.379854","233950.044826","237799.832444","238566.430791","239333.165018","240099.995967","240849.733267","241616.316711","242382.951877","243149.570095","245437.847808"
"Mixed","Male","ball","1","M_ball.wav","None","738.150424822","431","237033.259228","243916.188604","244683.215629","245432.788997","246199.43176","246966.070433","233183.379854","233950.044826","237799.832444","238566.430791","239333.165018","240099.995967","240849.733267","241616.316711","242382.951877","243149.570095","246204.391511"
"Mixed","Male","ball","1","F_gnash.wav","None","735.157275489","431","237033.259228","243916.188604","244683.215629","245432.788997","246199.43176","246966.070433","247732.66089","233950.044826","237799.832444","238566.430791","239333.165018","240099.995967","240849.733267","241616.316711","242382.951877","243149.570095","246971.218954"
"Mixed","Male","ball","1","M_gnash.wav","space","97.5349400433","431","237033.259228","243916.188604","244683.215629","245432.788997","246199.43176","246966.070433","247732.66089","248499.371155","237799.832444","238566.430791","239333.165018","240099.995967","240849.733267","241616.316711","242382.951877","243149.570095","247737.792755"
"Mixed","Female","done","44","M_jaw.wav","None","728.576905498","431","251599.185073","243916.188604","244683.215629","245432.788997","246199.43176","246966.070433","247732.66089","248499.371155","237799.832444","238566.430791","239333.165018","240099.995967","240849.733267","241616.316711","242382.951877","243149.570095","248504.772149"
"Mixed","Female","done","44","M_reek.wav","None","740.776553204","431","251599.185073","243916.188604","244683.215629","245432.788997","246199.43176","246966.070433","247732.66089","248499.371155","252365.863779","238566.430791","239333.165018","240099.995967","240849.733267","241616.316711","242382.951877","243149.570095","251604.303204"
"Mixed","Female","done","44","F_done.wav","None","737.821976138","431","251599.185073","243916.188604","244683.215629","245432.788997","246199.43176","246966.070433","247732.66089","248499.371155","252365.863779","253132.405437","239333.165018","240099.995967","240849.733267","241616.316711","242382.951877","243149.570095","252370.917038"
"Mixed","Female","done","44","M_park.wav","space","617.326310843","431","251599.185073","243916.188604","244683.215629","245432.788997","246199.43176","246966.070433","247732.66089","248499.371155","252365.863779","253132.405437","253899.094662","240099.995967","240849.733267","241616.316711","242382.951877","243149.570095","253137.503989"
"Mixed","Female","done","44","F_greet.wav","None","731.623530017","431","251599.185073","243916.188604","244683.215629","245432.788997","246199.43176","246966.070433","247732.66089","248499.371155","252365.863779","253132.405437","253899.094662","254665.680152","240849.733267","241616.316711","242382.951877","243149.570095","253904.239676"
"Mixed","Female","done","44","F_done.wav","None","728.883438122","431","251599.185073","243916.188604","244683.215629","245432.788997","246199.43176","246966.070433","247732.66089","248499.371155","252365.863779","253132.405437","253899.094662","254665.680152","255415.761972","241616.316711","242382.951877","243149.570095","254671.038482"
"Mixed","Female","done","44","F_gnash.wav","space","669.737837172","431","251599.185073","243916.188604","244683.215629","245432.788997","246199.43176","246966.070433","247732.66089","248499.371155","252365.863779","253132.405437","253899.094662","254665.680152","255415.761972","256182.298954","242382.951877","243149.570095","255420.8877"
"Mixed","Female","done","44","M_jolt.wav","None","739.326294479","431","251599.185073","243916.188604","244683.215629","245432.788997","246199.43176","246966.070433","247732.66089","248499.371155","252365.863779","253132.405437","253899.094662","254665.680152","255415.761972","256182.298954","256948.927983","243149.570095","256187.400136"
"Mixed","Female","done","44","F_done.wav","None","736.316781156","431","251599.185073","243916.188604","244683.215629","245432.788997","246199.43176","246966.070433","247732.66089","248499.371155","252365.863779","253132.405437","253899.094662","254665.680152","255415.761972","256182.298954","256948.927983","257715.5725","256954.208585"
"Mixed","Female","done","44","M_gnash.wav","space","505.835223961","431","251599.185073","258482.249453","244683.215629","245432.788997","246199.43176","246966.070433","247732.66089","248499.371155","252365.863779","253132.405437","253899.094662","254665.680152","255415.761972","256182.298954","256948.927983","257715.5725","257720.663747"
"Mixed","Female","done","44","M_romp.wav","None","729.976318969","431","251599.185073","258482.249453","259232.164126","245432.788997","246199.43176","246966.070433","247732.66089","248499.371155","252365.863779","253132.405437","253899.094662","254665.680152","255415.761972","256182.298954","256948.927983","257715.5725","258487.406448"
"Mixed","Female","done","44","F_done.wav","None","743.608984769","431","251599.185073","258482.249453","259232.164126","259998.785558","246199.43176","246966.070433","247732.66089","248499.371155","252365.863779","253132.405437","253899.094662","254665.680152","255415.761972","256182.298954","256948.927983","257715.5725","259237.306803"
"Mixed","Female","done","44","M_depth.wav","space","446.399454377","431","251599.185073","258482.249453","259232.164126","259998.785558","260765.402315","246966.070433","247732.66089","248499.371155","252365.863779","253132.405437","253899.094662","254665.680152","255415.761972","256182.298954","256948.927983","257715.5725","260003.816317"
"Mixed","Female","done","44","F_park.wav","None","737.333101901","431","251599.185073","258482.249453","259232.164126","259998.785558","260765.402315","261532.054721","247732.66089","248499.371155","252365.863779","253132.405437","253899.094662","254665.680152","255415.761972","256182.298954","256948.927983","257715.5725","260770.656032"
"Mixed","Female","done","44","F_jolt.wav","None","735.03571441","431","251599.185073","258482.249453","259232.164126","259998.785558","260765.402315","261532.054721","262298.701284","248499.371155","252365.863779","253132.405437","253899.094662","254665.680152","255415.761972","256182.298954","256948.927983","257715.5725","261537.165839"
"Mixed","Female","done","44","M_priest.wav","None","731.959576267","431","251599.185073","258482.249453","259232.164126","259998.785558","260765.402315","261532.054721","262298.701284","263065.307228","252365.863779","253132.405437","253899.094662","254665.680152","255415.761972","256182.298954","256948.927983","257715.5725","262304.059322"
"Mixed","Male","tile","29","F_bluff.wav","None","729.498548862","431","266165.478524","258482.249453","259232.164126","259998.785558","260765.402315","261532.054721","262298.701284","263065.307228","252365.863779","253132.405437","253899.094662","254665.680152","255415.761972","256182.298954","256948.927983","257715.5725","263070.321915"
"Mixed","Male","tile","29","M_bluff.wav","None","723.953493536","431","266165.478524","258482.249453","259232.164126","259998.785558","260765.402315","261532.054721","262298.701284","263065.307228","266915.125822","253132.405437","253899.094662","254665.680152","255415.761972","256182.298954","256948.927983","257715.5725","266170.985299"
"Mixed","Male","tile","29","M_tile.wav","None","738.653617554","431","266165.478524","258482.249453","259232.164126","259998.785558","260765.402315","261532.054721","262298.701284","263065.307228","266915.125822","267681.754267","253899.094662","254665.680152","255415.761972","256182.298954","256948.927983","257715.5725","266920.300349"
"Mixed","Male","tile","29","F_priest.wav","space","522.100446855","431","266165.478524","258482.249453","259232.164126","259998.785558","260765.402315","261532.054721","262298.701284","263065.307228","266915.125822","267681.754267","268448.474467","254665.680152","255415.761972","256182.298954","256948.927983","257715.5725","267687.616666"
"Mixed","Male","tile","29","F_bluff.wav","None","732.211172632","431","266165.478524","258482.249453","259232.164126","259998.785558","260765.402315","261532.054721","262298.701284","263065.307228","266915.125822","267681.754267","268448.474467","269215.034826","255415.761972","256182.298954","256948.927983","257715.5725","268453.91491"
"Mixed","Male","tile","29","F_cling.wav","None","730.06427542","431","266165.478524","258482.249453","259232.164126","259998.785558","260765.402315","261532.054721","262298.701284","263065.307228","266915.125822","267681.754267","268448.474467","269215.034826","269982.091657","256182.298954","256948.927983","257715.5725","269220.041331"
"Mixed","Male","tile","29","F_jaw.wav","None","726.490788824","431","266165.478524","258482.249453","259232.164126","259998.785558","260765.402315","261532.054721","262298.701284","263065.307228","266915.125822","267681.754267","268448.474467","269215.034826","269982.091657","270731.624991","256948.927983","257715.5725","269987.510476"
"Mixed","Male","tile","29","M_tile.wav","None","741.343740832","431","266165.478524","258482.249453","259232.164126","259998.785558","260765.402315","261532.054721","262298.701284","263065.307228","266915.125822","267681.754267","268448.474467","269215.034826","269982.091657","270731.624991","271498.214572","257715.5725","270736.663347"
"Mixed","Male","tile","29","F_greet.wav","space","561.982123509","431","266165.478524","258482.249453","259232.164126","259998.785558","260765.402315","261532.054721","262298.701284","263065.307228","266915.125822","267681.754267","268448.474467","269215.034826","269982.091657","270731.624991","271498.214572","272264.862303","271503.360755"
"Mixed","Male","tile","29","M_tile.wav","None","735.639428804","431","266165.478524","273031.489871","259232.164126","259998.785558","260765.402315","261532.054721","262298.701284","263065.307228","266915.125822","267681.754267","268448.474467","269215.034826","269982.091657","270731.624991","271498.214572","272264.862303","272270.312389"
"Mixed","Male","tile","29","M_park.wav","space","596.711188413","431","266165.478524","273031.489871","273798.136434","259998.785558","260765.402315","261532.054721","262298.701284","263065.307228","266915.125822","267681.754267","268448.474467","269215.034826","269982.091657","270731.624991","271498.214572","272264.862303","273036.540793"
"Mixed","Male","tile","29","F_park.wav","None","730.645489326","431","266165.478524","273031.489871","273798.136434","274565.349307","260765.402315","261532.054721","262298.701284","263065.307228","266915.125822","267681.754267","268448.474467","269215.034826","269982.091657","270731.624991","271498.214572","272264.862303","273803.192615"
"Mixed","Male","tile","29","F_bluff.wav","None","726.835017071","431","266165.478524","273031.489871","273798.136434","274565.349307","275314.727475","261532.054721","262298.701284","263065.307228","266915.125822","267681.754267","268448.474467","269215.034826","269982.091657","270731.624991","271498.214572","272264.862303","274570.884135"
"Mixed","Male","tile","29","M_dime.wav","None","741.722158131","431","266165.478524","273031.489871","273798.136434","274565.349307","275314.727475","276081.319978","262298.701284","263065.307228","266915.125822","267681.754267","268448.474467","269215.034826","269982.091657","270731.624991","271498.214572","272264.862303","275320.002817"
"Mixed","Male","tile","29","M_tile.wav","None","743.750416408","431","266165.478524","273031.489871","273798.136434","274565.349307","275314.727475","276081.319978","276848.039009","263065.307228","266915.125822","267681.754267","268448.474467","269215.034826","269982.091657","270731.624991","271498.214572","272264.862303","276082.906701"
"Mixed","Male","tile","29","M_priest.wav","space","587.942134589","431","266165.478524","273031.489871","273798.136434","274565.349307","275314.727475","276081.319978","276848.039009","277614.698429","266915.125822","267681.754267","268448.474467","269215.034826","269982.091657","270731.624991","271498.214572","272264.862303","276853.016585"
"Mixed","Male","cave","13","M_priest.wav","None","735.216010529","431","280714.496568","273031.489871","273798.136434","274565.349307","275314.727475","276081.319978","276848.039009","277614.698429","266915.125822","267681.754267","268448.474467","269215.034826","269982.091657","270731.624991","271498.214572","272264.862303","277619.822404"
"Mixed","Male","cave","13","F_reek.wav","None","741.254323308","431","280714.496568","273031.489871","273798.136434","274565.349307","275314.727475","276081.319978","276848.039009","277614.698429","281481.09959","267681.754267","268448.474467","269215.034826","269982.091657","270731.624991","271498.214572","272264.862303","280719.618497"
"Mixed","Male","cave","13","M_park.wav","None","738.581148446","431","280714.496568","273031.489871","273798.136434","274565.349307","275314.727475","276081.319978","276848.039009","277614.698429","281481.09959","282247.729496","268448.474467","269215.034826","269982.091657","270731.624991","271498.214572","272264.862303","281486.283761"
"Mixed","Male","cave","13","M_cave.wav","None","735.967585268","431","280714.496568","273031.489871","273798.136434","274565.349307","275314.727475","276081.319978","276848.039009","277614.698429","281481.09959","282247.729496","283014.379857","269215.034826","269982.091657","270731.624991","271498.214572","272264.862303","282252.765515"
"Mixed","Male","cave","13","F_jaw.wav","space","613.021120069","431","280714.496568","273031.489871","273798.136434","274565.349307","275314.727475","276081.319978","276848.039009","277614.698429","281481.09959","282247.729496","283014.379857","283781.050673","269982.091657","270731.624991","271498.214572","272264.862303","283019.445681"
"Mixed","Male","cave","13","M_cave.wav","None","729.679137196","431","280714.496568","273031.489871","273798.136434","274565.349307","275314.727475","276081.319978","276848.039009","277614.698429","281481.09959","282247.729496","283014.379857","283781.050673","284548.024516","270731.624991","271498.214572","272264.862303","283786.32134"
"Mixed","Male","cave","13","F_priest.wav","space","382.578135137","431","280714.496568","273031.489871","273798.136434","274565.349307","275314.727475","276081.319978","276848.039009","277614.698429","281481.09959","282247.729496","283014.379857","283781.050673","284548.024516","285297.62915","271498.214572","272264.862303","284553.755419"
"Mixed","Male","cave","13","F_priest.wav","None","740.336478728","431","280714.496568","273031.489871","273798.136434","274565.349307","275314.727475","276081.319978","276848.039009","277614.698429","281481.09959","282247.729496","283014.379857","283781.050673","284548.024516","285297.62915","286064.267238","272264.862303","285302.797249"
"Mixed","Male","cave","13","F_dime.wav","None","737.823144995","431","280714.496568","273031.489871","273798.136434","274565.349307","275314.727475","276081.319978","276848.039009","277614.698429","281481.09959","282247.729496","283014.379857","283781.050673","284548.024516","285297.62915","286064.267238","286830.891884","286069.374264"
"Mixed","Male","cave","13","M_cave.wav","None","734.96821295","431","280714.496568","287597.475913","273798.136434","274565.349307","275314.727475","276081.319978","276848.039009","277614.698429","281481.09959","282247.729496","283014.379857","283781.050673","284548.024516","285297.62915","286064.267238","286830.891884","286836.053262"
"Mixed","Male","cave","13","F_gnash.wav","space","565.633631275","431","280714.496568","287597.475913","288364.10991","274565.349307","275314.727475","276081.319978","276848.039009","277614.698429","281481.09959","282247.729496","283014.379857","283781.050673","284548.024516","285297.62915","286064.267238","286830.891884","287602.480372"
"Mixed","Male","cave","13","M_priest.wav","None","729.464359811","431","280714.496568","287597.475913","288364.10991","289114.079227","275314.727475","276081.319978","276848.039009","277614.698429","281481.09959","282247.729496","283014.379857","283781.050673","284548.024516","285297.62915","286064.267238","286830.891884","288369.015309"
"Mixed","Male","cave","13","M_cave.wav","None","743.182059923","431","280714.496568","287597.475913","288364.10991","289114.079227","289880.714978","276081.319978","276848.039009","277614.698429","281481.09959","282247.729496","283014.379857","283781.050673","284548.024516","285297.62915","286064.267238","286830.891884","289119.249664"
"Mixed","Male","cave","13","F_park.wav","space","681.809495087","431","280714.496568","287597.475913","288364.10991","289114.079227","289880.714978","290647.332611","276848.039009","277614.698429","281481.09959","282247.729496","283014.379857","283781.050673","284548.024516","285297.62915","286064.267238","286830.891884","289886.136427"
"Mixed","Male","cave","13","M_depth.wav","None","737.495865171","431","280714.496568","287597.475913","288364.10991","289114.079227","289880.714978","290647.332611","291413.967777","277614.698429","281481.09959","282247.729496","283014.379857","283781.050673","284548.024516","285297.62915","286064.267238","286830.891884","290652.490483"
"Mixed","Male","cave","13","F_cad.wav","None","738.822517316","431","280714.496568","287597.475913","288364.10991","289114.079227","289880.714978","290647.332611","291413.967777","292180.613755","281481.09959","282247.729496","283014.379857","283781.050673","284548.024516","285297.62915","286064.267238","286830.891884","291415.385892"
"Mixed","Female","tile","31","F_depth.wav","None","733.020605774","431","295280.540468","287597.475913","288364.10991","289114.079227","289880.714978","290647.332611","291413.967777","292180.613755","281481.09959","282247.729496","283014.379857","283781.050673","284548.024516","285297.62915","286064.267238","286830.891884","292185.628442"
"Mixed","Female","tile","31","M_jaw.wav","None","741.098280963","431","295280.540468","287597.475913","288364.10991","289114.079227","289880.714978","290647.332611","291413.967777","292180.613755","296047.055826","282247.729496","283014.379857","283781.050673","284548.024516","285297.62915","286064.267238","286830.891884","295285.604246"
"Mixed","Female","tile","31","M_depth.wav","None","738.227277139","431","295280.540468","287597.475913","288364.10991","289114.079227","289880.714978","290647.332611","291413.967777","292180.613755","296047.055826","296813.668783","283014.379857","283781.050673","284548.024516","285297.62915","286064.267238","286830.891884","296052.445715"
"Mixed","Female","tile","31","F_tile.wav","None","736.208954142","431","295280.540468","287597.475913","288364.10991","289114.079227","289880.714978","290647.332611","291413.967777","292180.613755","296047.055826","296813.668783","297580.319145","283781.050673","284548.024516","285297.62915","286064.267238","286830.891884","296818.67558"
"Mixed","Female","tile","31","M_cad.wav","space","526.014362909","431","295280.540468","287597.475913","288364.10991","289114.079227","289880.714978","290647.332611","291413.967777","292180.613755","296047.055826","296813.668783","297580.319145","298346.965122","284548.024516","285297.62915","286064.267238","286830.891884","297585.291168"
"Mixed","Female","tile","31","F_tile.wav","None","730.141712163","431","295280.540468","287597.475913","288364.10991","289114.079227","289880.714978","290647.332611","291413.967777","292180.613755","296047.055826","296813.668783","297580.319145","298346.965122","299113.919679","285297.62915","286064.267238","286830.891884","298352.211827"
"Mixed","Female","tile","31","F_bluff.wav","space","519.705167633","431","295280.540468","287597.475913","288364.10991","289114.079227","289880.714978","290647.332611","291413.967777","292180.613755","296047.055826","296813.668783","297580.319145","298346.965122","299113.919679","299863.564931","286064.267238","286830.891884","299119.502429"
"Mixed","Female","tile","31","M_bluff.wav","None","740.979934239","431","295280.540468","287597.475913","288364.10991","289114.079227","289880.714978","290647.332611","291413.967777","292180.613755","296047.055826","296813.668783","297580.319145","298346.965122","299113.919679","299863.564931","300630.17146","286830.891884","299868.737121"
"Mixed","Female","tile","31","F_tile.wav","None","738.75530807","431","295280.540468","287597.475913","288364.10991","289114.079227","289880.714978","290647.332611","291413.967777","292180.613755","296047.055826","296813.668783","297580.319145","298346.965122","299113.919679","299863.564931","300630.17146","301396.871789","300635.247511"
"Mixed","Female","tile","31","M_depth.wav","space","540.988291563","431","295280.540468","302163.454649","288364.10991","289114.079227","289880.714978","290647.332611","291413.967777","292180.613755","296047.055826","296813.668783","297580.319145","298346.965122","299113.919679","299863.564931","300630.17146","301396.871789","301401.996348"
"Mixed","Female","tile","31","F_tile.wav","None","732.551017663","431","295280.540468","302163.454649","302930.080756","289114.079227","289880.714978","290647.332611","291413.967777","292180.613755","296047.055826","296813.668783","297580.319145","298346.965122","299113.919679","299863.564931","300630.17146","301396.871789","302168.782005"
"Mixed","Female","tile","31","M_bluff.wav","space","615.667995658","431","295280.540468","302163.454649","302930.080756","303697.099307","289880.714978","290647.332611","291413.967777","292180.613755","296047.055826","296813.668783","297580.319145","298346.965122","299113.919679","299863.564931","300630.17146","301396.871789","302935.208822"
"Mixed","Female","tile","31","M_lash.wav","None","726.538127517","431","295280.540468","302163.454649","302930.080756","303697.099307","304446.690207","290647.332611","291413.967777","292180.613755","296047.055826","296813.668783","297580.319145","298346.965122","299113.919679","299863.564931","300630.17146","301396.871789","303702.589719"
"Mixed","Female","tile","31","M_bluff.wav","None","741.454782201","431","295280.540468","302163.454649","302930.080756","303697.099307","304446.690207","305213.309302","291413.967777","292180.613755","296047.055826","296813.668783","297580.319145","298346.965122","299113.919679","299863.564931","300630.17146","301396.871789","304451.749018"
"Mixed","Female","tile","31","F_reek.wav","None","738.995800301","431","295280.540468","302163.454649","302930.080756","303697.099307","304446.690207","305213.309302","305979.961124","292180.613755","296047.055826","296813.668783","297580.319145","298346.965122","299113.919679","299863.564931","300630.17146","301396.871789","305218.429478"
"Mixed","Female","tile","31","F_greet.wav","None","736.606657574","431","295280.540468","302163.454649","302930.080756","303697.099307","304446.690207","305213.309302","305979.961124","306746.583432","296047.055826","296813.668783","297580.319145","298346.965122","299113.919679","299863.564931","300630.17146","301396.871789","305985.019935"
"Mixed","Female","cave","22","F_depth.wav","None","734.183618009","431","309846.417221","302163.454649","302930.080756","303697.099307","304446.690207","305213.309302","305979.961124","306746.583432","296047.055826","296813.668783","297580.319145","298346.965122","299113.919679","299863.564931","300630.17146","301396.871789","306751.652763"
"Mixed","Female","cave","22","M_bluff.wav","space","18.6672230411","431","309846.417221","302163.454649","302930.080756","303697.099307","304446.690207","305213.309302","305979.961124","306746.583432","310613.069335","296813.668783","297580.319145","298346.965122","299113.919679","299863.564931","300630.17146","301396.871789","309851.739317"
"Mixed","Female","cave","22","F_cave.wav","None","737.513690234","431","309846.417221","302163.454649","302930.080756","303697.099307","304446.690207","305213.309302","305979.961124","306746.583432","310613.069335","311379.663591","297580.319145","298346.965122","299113.919679","299863.564931","300630.17146","301396.871789","310618.115873"
"Mixed","Female","cave","22","M_cad.wav","space","525.502988185","431","309846.417221","302163.454649","302930.080756","303697.099307","304446.690207","305213.309302","305979.961124","306746.583432","310613.069335","311379.663591","312146.306063","298346.965122","299113.919679","299863.564931","300630.17146","301396.871789","311384.679155"
"Mixed","Female","cave","22","F_cave.wav","None","731.560703978","431","309846.417221","302163.454649","302930.080756","303697.099307","304446.690207","305213.309302","305979.961124","306746.583432","310613.069335","311379.663591","312146.306063","312912.964606","299113.919679","299863.564931","300630.17146","301396.871789","312151.692446"
"Mixed","Female","cave","22","M_bluff.wav","None","729.216270014","431","309846.417221","302163.454649","302930.080756","303697.099307","304446.690207","305213.309302","305979.961124","306746.583432","310613.069335","311379.663591","312146.306063","312912.964606","313662.936846","299863.564931","300630.17146","301396.871789","312918.06082"
"Mixed","Female","cave","22","M_knife.wav","space","90.0732522386","431","309846.417221","302163.454649","302930.080756","303697.099307","304446.690207","305213.309302","305979.961124","306746.583432","310613.069335","311379.663591","312146.306063","312912.964606","313662.936846","314429.531686","300630.17146","301396.871789","313668.001793"
"Mixed","Female","cave","22","F_depth.wav","None","739.861630765","431","309846.417221","302163.454649","302930.080756","303697.099307","304446.690207","305213.309302","305979.961124","306746.583432","310613.069335","311379.663591","312146.306063","312912.964606","313662.936846","314429.531686","315196.146689","301396.871789","314434.631407"
"Mixed","Female","cave","22","M_depth.wav","None","737.468104828","431","309846.417221","302163.454649","302930.080756","303697.099307","304446.690207","305213.309302","305979.961124","306746.583432","310613.069335","311379.663591","312146.306063","312912.964606","313662.936846","314429.531686","315196.146689","315962.766076","315201.200825"
"Mixed","Female","cave","22","M_cad.wav","None","734.686810742","431","309846.417221","316729.454717","302930.080756","303697.099307","304446.690207","305213.309302","305979.961124","306746.583432","310613.069335","311379.663591","312146.306063","312912.964606","313662.936846","314429.531686","315196.146689","315962.766076","315968.198336"
"Mixed","Female","cave","22","F_dime.wav","None","732.157113016","431","309846.417221","316729.454717","317496.021797","303697.099307","304446.690207","305213.309302","305979.961124","306746.583432","310613.069335","311379.663591","312146.306063","312912.964606","313662.936846","314429.531686","315196.146689","315962.766076","316734.724506"
"Mixed","Female","cave","22","F_priest.wav","None","729.995605099","431","309846.417221","316729.454717","317496.021797","318263.154896","304446.690207","305213.309302","305979.961124","306746.583432","310613.069335","311379.663591","312146.306063","312912.964606","313662.936846","314429.531686","315196.146689","315962.766076","317501.037652"
"Mixed","Female","cave","22","F_cave.wav","None","726.210555476","431","309846.417221","316729.454717","317496.021797","318263.154896","319012.671281","305213.309302","305979.961124","306746.583432","310613.069335","311379.663591","312146.306063","312912.964606","313662.936846","314429.531686","315196.146689","315962.766076","318268.785278"
"Mixed","Female","cave","22","M_depth.wav","space","491.869726266","431","309846.417221","316729.454717","317496.021797","318263.154896","319012.671281","319779.282194","305979.961124","306746.583432","310613.069335","311379.663591","312146.306063","312912.964606","313662.936846","314429.531686","315196.146689","315962.766076","319017.714021"
"Mixed","Female","cave","22","F_cave.wav","None","737.815547425","431","309846.417221","316729.454717","317496.021797","318263.154896","319012.671281","319779.282194","320545.910054","306746.583432","310613.069335","311379.663591","312146.306063","312912.964606","313662.936846","314429.531686","315196.146689","315962.766076","319784.707441"
"Mixed","Female","cave","22","M_park.wav","space","589.620904764","431","309846.417221","316729.454717","317496.021797","318263.154896","319012.671281","319779.282194","320545.910054","321312.579409","310613.069335","311379.663591","312146.306063","312912.964606","313662.936846","314429.531686","315196.146689","315962.766076","320551.857488"
"Mixed","Female","ball","8","M_cling.wav","None","732.6179347","431","324412.440081","316729.454717","317496.021797","318263.154896","319012.671281","319779.282194","320545.910054","321312.579409","310613.069335","311379.663591","312146.306063","312912.964606","313662.936846","314429.531686","315196.146689","315962.766076","321317.73845"
"Mixed","Female","ball","8","F_ball.wav","None","741.605856907","431","324412.440081","316729.454717","317496.021797","318263.154896","319012.671281","319779.282194","320545.910054","321312.579409","325179.036383","311379.663591","312146.306063","312912.964606","313662.936846","314429.531686","315196.146689","315962.766076","324417.714839"
"Mixed","Female","ball","8","M_depth.wav","space","629.011369467","431","324412.440081","316729.454717","317496.021797","318263.154896","319012.671281","319779.282194","320545.910054","321312.579409","325179.036383","325945.64788","312146.306063","312912.964606","313662.936846","314429.531686","315196.146689","315962.766076","325184.105129"
"Mixed","Female","ball","8","F_reek.wav","None","735.955020064","431","324412.440081","316729.454717","317496.021797","318263.154896","319012.671281","319779.282194","320545.910054","321312.579409","325179.036383","325945.64788","326712.310222","312912.964606","313662.936846","314429.531686","315196.146689","315962.766076","325950.817732"
"Mixed","Female","ball","8","M_lash.wav","None","733.494577089","431","324412.440081","316729.454717","317496.021797","318263.154896","319012.671281","319779.282194","320545.910054","321312.579409","325179.036383","325945.64788","326712.310222","327478.964089","313662.936846","314429.531686","315196.146689","315962.766076","326717.460496"
"Mixed","Female","ball","8","M_park.wav","None","731.239852863","431","324412.440081","316729.454717","317496.021797","318263.154896","319012.671281","319779.282194","320545.910054","321312.579409","325179.036383","325945.64788","326712.310222","327478.964089","328245.796792","314429.531686","315196.146689","315962.766076","327483.904261"
"Mixed","Female","ball","8","F_ball.wav","None","727.594773809","431","324412.440081","316729.454717","317496.021797","318263.154896","319012.671281","319779.282194","320545.910054","321312.579409","325179.036383","325945.64788","326712.310222","327478.964089","328245.796792","328995.477402","315196.146689","315962.766076","328251.803546"
"Mixed","Female","ball","8","F_romp.wav","space","540.103174964","431","324412.440081","316729.454717","317496.021797","318263.154896","319012.671281","319779.282194","320545.910054","321312.579409","325179.036383","325945.64788","326712.310222","327478.964089","328245.796792","328995.477402","329762.121334","315962.766076","329000.703359"
"Mixed","Female","ball","8","M_bluff.wav","None","739.944619578","431","324412.440081","316729.454717","317496.021797","318263.154896","319012.671281","319779.282194","320545.910054","321312.579409","325179.036383","325945.64788","326712.310222","327478.964089","328245.796792","328995.477402","329762.121334","330528.736922","329767.283297"
"Mixed","Female","ball","8","M_reek.wav","None","737.944121643","431","324412.440081","331295.429654","317496.021797","318263.154896","319012.671281","319779.282194","320545.910054","321312.579409","325179.036383","325945.64788","326712.310222","327478.964089","328245.796792","328995.477402","329762.121334","330528.736922","330533.827292"
"Mixed","Female","ball","8","F_ball.wav","None","735.490107385","431","324412.440081","331295.429654","332062.049333","318263.154896","319012.671281","319779.282194","320545.910054","321312.579409","325179.036383","325945.64788","326712.310222","327478.964089","328245.796792","328995.477402","329762.121334","330528.736922","331300.479699"
"Mixed","Female","ball","8","M_cling.wav","space","521.489427108","431","324412.440081","331295.429654","332062.049333","332828.643297","319012.671281","319779.282194","320545.910054","321312.579409","325179.036383","325945.64788","326712.310222","327478.964089","328245.796792","328995.477402","329762.121334","330528.736922","332067.090319"
"Mixed","Female","ball","8","F_ball.wav","None","729.697838902","431","324412.440081","331295.429654","332062.049333","332828.643297","333595.540871","319779.282194","320545.910054","321312.579409","325179.036383","325945.64788","326712.310222","327478.964089","328245.796792","328995.477402","329762.121334","330528.736922","332833.766102"
"Mixed","Female","ball","8","F_depth.wav","space","523.191866629","431","324412.440081","331295.429654","332062.049333","332828.643297","333595.540871","334345.288982","320545.910054","321312.579409","325179.036383","325945.64788","326712.310222","327478.964089","328245.796792","328995.477402","329762.121334","330528.736922","333601.251904"
"Mixed","Female","ball","8","F_jaw.wav","None","740.273360472","431","324412.440081","331295.429654","332062.049333","332828.643297","333595.540871","334345.288982","335111.949279","321312.579409","325179.036383","325945.64788","326712.310222","327478.964089","328245.796792","328995.477402","329762.121334","330528.736922","334350.579519"
"Mixed","Female","ball","8","M_dime.wav","None","741.319194844","431","324412.440081","331295.429654","332062.049333","332828.643297","333595.540871","334345.288982","335111.949279","335878.502332","325179.036383","325945.64788","326712.310222","327478.964089","328245.796792","328995.477402","329762.121334","330528.736922","335113.634478"
"Mixed","Male","ball","4","F_jolt.wav","None","735.777061658","431","338995.108335","331295.429654","332062.049333","332828.643297","333595.540871","334345.288982","335111.949279","335878.502332","325179.036383","325945.64788","326712.310222","327478.964089","328245.796792","328995.477402","329762.121334","330528.736922","335883.507084"
"Mixed","Male","ball","4","M_ball.wav","None","741.821510936","431","338995.108335","331295.429654","332062.049333","332828.643297","333595.540871","334345.288982","335111.949279","335878.502332","339761.649993","325945.64788","326712.310222","327478.964089","328245.796792","328995.477402","329762.121334","330528.736922","339000.200459"
"Mixed","Male","ball","4","F_gnash.wav","space","517.009492283","431","338995.108335","331295.429654","332062.049333","332828.643297","333595.540871","334345.288982","335111.949279","335878.502332","339761.649993","340528.328699","326712.310222","327478.964089","328245.796792","328995.477402","329762.121334","330528.736922","339766.91423"
"Mixed","Male","ball","4","M_ball.wav","None","736.358859991","431","338995.108335","331295.429654","332062.049333","332828.643297","333595.540871","334345.288982","335111.949279","335878.502332","339761.649993","340528.328699","341294.931429","327478.964089","328245.796792","328995.477402","329762.121334","330528.736922","340533.347476"
"Mixed","Male","ball","4","M_jolt.wav","space","560.007340417","431","338995.108335","331295.429654","332062.049333","332828.643297","333595.540871","334345.288982","335111.949279","335878.502332","339761.649993","340528.328699","341294.931429","342061.622116","328245.796792","328995.477402","329762.121334","330528.736922","341299.812866"
"Mixed","Male","ball","4","F_jaw.wav","None","730.478927271","431","338995.108335","331295.429654","332062.049333","332828.643297","333595.540871","334345.288982","335111.949279","335878.502332","339761.649993","340528.328699","341294.931429","342061.622116","342828.701739","328995.477402","329762.121334","330528.736922","342066.735863"
"Mixed","Male","ball","4","F_priest.wav","None","727.487823438","431","338995.108335","331295.429654","332062.049333","332828.643297","333595.540871","334345.288982","335111.949279","335878.502332","339761.649993","340528.328699","341294.931429","342061.622116","342828.701739","343578.15676","329762.121334","330528.736922","342834.070297"
"Mixed","Male","ball","4","M_ball.wav","None","742.700491039","431","338995.108335","331295.429654","332062.049333","332828.643297","333595.540871","334345.288982","335111.949279","335878.502332","339761.649993","340528.328699","341294.931429","342061.622116","342828.701739","343578.15676","344344.787251","330528.736922","343583.237487"
"Mixed","Male","ball","4","M_cad.wav","space","525.761597684","431","338995.108335","331295.429654","332062.049333","332828.643297","333595.540871","334345.288982","335111.949279","335878.502332","339761.649993","340528.328699","341294.931429","342061.622116","342828.701739","343578.15676","344344.787251","345111.453099","344349.825022"
"Mixed","Male","ball","4","M_romp.wav","None","736.76708313","431","338995.108335","345878.049401","332062.049333","332828.643297","333595.540871","334345.288982","335111.949279","335878.502332","339761.649993","340528.328699","341294.931429","342061.622116","342828.701739","343578.15676","344344.787251","345111.453099","345116.496715"
"Mixed","Male","ball","4","M_ball.wav","None","734.319789794","431","338995.108335","345878.049401","346644.690119","332828.643297","333595.540871","334345.288982","335111.949279","335878.502332","339761.649993","340528.328699","341294.931429","342061.622116","342828.701739","343578.15676","344344.787251","345111.453099","345883.471726"
"Mixed","Male","ball","4","F_gnash.wav","space","609.580006476","431","338995.108335","345878.049401","346644.690119","347411.293433","333595.540871","334345.288982","335111.949279","335878.502332","339761.649993","340528.328699","341294.931429","342061.622116","342828.701739","343578.15676","344344.787251","345111.453099","346649.825782"
"Mixed","Male","ball","4","M_depth.wav","None","729.111365141","431","338995.108335","345878.049401","346644.690119","347411.293433","348161.276193","334345.288982","335111.949279","335878.502332","339761.649993","340528.328699","341294.931429","342061.622116","342828.701739","343578.15676","344344.787251","345111.453099","347416.300522"
"Mixed","Male","ball","4","F_reek.wav","None","743.392161879","431","338995.108335","345878.049401","346644.690119","347411.293433","348161.276193","348927.883306","335111.949279","335878.502332","339761.649993","340528.328699","341294.931429","342061.622116","342828.701739","343578.15676","344344.787251","345111.453099","348166.252599"
"Mixed","Male","ball","4","F_cad.wav","None","741.28003815","431","338995.108335","345878.049401","346644.690119","347411.293433","348161.276193","348927.883306","349694.516134","335878.502332","339761.649993","340528.328699","341294.931429","342061.622116","342828.701739","343578.15676","344344.787251","345111.453099","348933.132933"
"Mixed","Male","ball","4","F_romp.wav","None","739.022099573","431","338995.108335","345878.049401","346644.690119","347411.293433","348161.276193","348927.883306","349694.516134","350461.147209","339761.649993","340528.328699","341294.931429","342061.622116","342828.701739","343578.15676","344344.787251","345111.453099","349699.921511"
"Mixed","Male","cave","16","M_reek.wav","None","737.668563721","431","353577.704997","345878.049401","346644.690119","347411.293433","348161.276193","348927.883306","349694.516134","350461.147209","339761.649993","340528.328699","341294.931429","342061.622116","342828.701739","343578.15676","344344.787251","345111.453099","350466.20339"
"Mixed","Male","cave","16","M_lash.wav","None","741.173672206","431","353577.704997","345878.049401","346644.690119","347411.293433","348161.276193","348927.883306","349694.516134","350461.147209","354344.29224","340528.328699","341294.931429","342061.622116","342828.701739","343578.15676","344344.787251","345111.453099","353582.761178"
"Mixed","Male","cave","16","F_reek.wav","None","738.605986648","431","353577.704997","345878.049401","346644.690119","347411.293433","348161.276193","348927.883306","349694.516134","350461.147209","354344.29224","355110.960134","341294.931429","342061.622116","342828.701739","343578.15676","344344.787251","345111.453099","354349.646187"
"Mixed","Male","cave","16","F_reek.wav","None","736.419640532","431","353577.704997","345878.049401","346644.690119","347411.293433","348161.276193","348927.883306","349694.516134","350461.147209","354344.29224","355110.960134","355877.544747","342061.622116","342828.701739","343578.15676","344344.787251","345111.453099","355116.123265"
"Mixed","Male","cave","16","M_cave.wav","None","734.112317761","431","353577.704997","345878.049401","346644.690119","347411.293433","348161.276193","348927.883306","349694.516134","350461.147209","354344.29224","355110.960134","355877.544747","356644.167055","342828.701739","343578.15676","344344.787251","345111.453099","355882.738853"
"Mixed","Male","cave","16","F_park.wav","space","545.371795724","431","353577.704997","345878.049401","346644.690119","347411.293433","348161.276193","348927.883306","349694.516134","350461.147209","354344.29224","355110.960134","355877.544747","356644.167055","357411.379929","343578.15676","344344.787251","345111.453099","356649.227912"
"Mixed","Male","cave","16","M_cave.wav","None","727.417692044","431","353577.704997","345878.049401","346644.690119","347411.293433","348161.276193","348927.883306","349694.516134","350461.147209","354344.29224","355110.960134","355877.544747","356644.167055","357411.379929","358160.780305","344344.787251","345111.453099","357417.038071"
"Mixed","Male","cave","16","F_cad.wav","space","684.619718377","431","353577.704997","345878.049401","346644.690119","347411.293433","348161.276193","348927.883306","349694.516134","350461.147209","354344.29224","355110.960134","355877.544747","356644.167055","357411.379929","358160.780305","358927.480927","345111.453099","358165.837947"
"Mixed","Male","cave","16","F_reek.wav","None","739.401101295","431","353577.704997","345878.049401","346644.690119","347411.293433","348161.276193","348927.883306","349694.516134","350461.147209","354344.29224","355110.960134","355877.544747","356644.167055","357411.379929","358160.780305","358927.480927","359694.038949","358932.504965"
"Mixed","Male","cave","16","M_greet.wav","None","736.973678522","431","353577.704997","360460.692524","346644.690119","347411.293433","348161.276193","348927.883306","349694.516134","350461.147209","354344.29224","355110.960134","355877.544747","356644.167055","357411.379929","358160.780305","358927.480927","359694.038949","359699.273673"
"Mixed","Male","cave","16","F_romp.wav","None","734.933731677","431","353577.704997","360460.692524","361227.283274","347411.293433","348161.276193","348927.883306","349694.516134","350461.147209","354344.29224","355110.960134","355877.544747","356644.167055","357411.379929","358160.780305","358927.480927","359694.038949","360465.838999"
"Mixed","Male","cave","16","M_cave.wav","None","732.984079004","431","353577.704997","360460.692524","361227.283274","361993.95935","348161.276193","348927.883306","349694.516134","350461.147209","354344.29224","355110.960134","355877.544747","356644.167055","357411.379929","358160.780305","358927.480927","359694.038949","361232.21088"
"Mixed","Male","cave","16","F_priest.wav","space","539.125134273","431","353577.704997","360460.692524","361227.283274","361993.95935","362760.941958","348927.883306","349694.516134","350461.147209","354344.29224","355110.960134","355877.544747","356644.167055","357411.379929","358160.780305","358927.480927","359694.038949","361999.050012"
"Mixed","Male","cave","16","M_cave.wav","None","727.125477919","431","353577.704997","360460.692524","361227.283274","361993.95935","362760.941958","363510.545716","349694.516134","350461.147209","354344.29224","355110.960134","355877.544747","356644.167055","357411.379929","358160.780305","358927.480927","359694.038949","362765.985574"
"Mixed","Male","cave","16","M_knife.wav","space","598.102127668","431","353577.704997","360460.692524","361227.283274","361993.95935","362760.941958","363510.545716","364277.179713","350461.147209","354344.29224","355110.960134","355877.544747","356644.167055","357411.379929","358160.780305","358927.480927","359694.038949","363515.973301"
"Mixed","Male","cave","16","F_lash.wav","None","738.8035234","431","353577.704997","360460.692524","361227.283274","361993.95935","362760.941958","363510.545716","364277.179713","365043.770755","354344.29224","355110.960134","355877.544747","356644.167055","357411.379929","358160.780305","358927.480927","359694.038949","364282.33963"
"Mixed","Male","tile","30","M_depth.wav","None","736.883968781","431","368143.702143","360460.692524","361227.283274","361993.95935","362760.941958","363510.545716","364277.179713","365043.770755","354344.29224","355110.960134","355877.544747","356644.167055","357411.379929","358160.780305","358927.480927","359694.038949","365048.880119"
"Mixed","Male","tile","30","F_priest.wav","None","741.237374888","431","368143.702143","360460.692524","361227.283274","361993.95935","362760.941958","363510.545716","364277.179713","365043.770755","368910.291723","355110.960134","355877.544747","356644.167055","357411.379929","358160.780305","358927.480927","359694.038949","368148.64962"
"Mixed","Male","tile","30","F_park.wav","None","739.134602012","431","368143.702143","360460.692524","361227.283274","361993.95935","362760.941958","363510.545716","364277.179713","365043.770755","368910.291723","369676.918707","355877.544747","356644.167055","357411.379929","358160.780305","358927.480927","359694.038949","368915.517388"
"Mixed","Male","tile","30","M_tile.wav","None","737.049946409","431","368143.702143","360460.692524","361227.283274","361993.95935","362760.941958","363510.545716","364277.179713","365043.770755","368910.291723","369676.918707","370443.586601","356644.167055","357411.379929","358160.780305","358927.480927","359694.038949","369682.333143"
"Mixed","Male","tile","30","M_reek.wav","space","504.805461365","431","368143.702143","360460.692524","361227.283274","361993.95935","362760.941958","363510.545716","364277.179713","365043.770755","368910.291723","369676.918707","370443.586601","371210.241345","357411.379929","358160.780305","358927.480927","359694.038949","370448.697134"
"Mixed","Male","tile","30","F_depth.wav","None","732.04344172","431","368143.702143","360460.692524","361227.283274","361993.95935","362760.941958","363510.545716","364277.179713","365043.770755","368910.291723","369676.918707","370443.586601","371210.241345","371976.810763","358160.780305","358927.480927","359694.038949","371215.308631"
"Mixed","Male","tile","30","M_tile.wav","None","729.958201689","431","368143.702143","360460.692524","361227.283274","361993.95935","362760.941958","363510.545716","364277.179713","365043.770755","368910.291723","369676.918707","370443.586601","371210.241345","371976.810763","372743.693435","358927.480927","359694.038949","371981.86373"
"Mixed","Male","tile","30","F_jaw.wav","space","612.010351393","431","368143.702143","360460.692524","361227.283274","361993.95935","362760.941958","363510.545716","364277.179713","365043.770755","368910.291723","369676.918707","370443.586601","371210.241345","371976.810763","372743.693435","373493.435117","359694.038949","372749.308329"
"Mixed","Male","tile","30","F_priest.wav","None","741.148541794","431","368143.702143","360460.692524","361227.283274","361993.95935","362760.941958","363510.545716","364277.179713","365043.770755","368910.291723","369676.918707","370443.586601","371210.241345","371976.810763","372743.693435","373493.435117","374260.075543","373498.537176"
"Mixed","Male","tile","30","M_tile.wav","None","739.206486684","431","368143.702143","375026.661909","361227.283274","361993.95935","362760.941958","363510.545716","364277.179713","365043.770755","368910.291723","369676.918707","370443.586601","371210.241345","371976.810763","372743.693435","373493.435117","374260.075543","374265.088477"
"Mixed","Male","tile","30","F_knife.wav","space","489.347041683","431","368143.702143","375026.661909","375793.290354","361993.95935","362760.941958","363510.545716","364277.179713","365043.770755","368910.291723","369676.918707","370443.586601","371210.241345","371976.810763","372743.693435","373493.435117","374260.075543","375031.767182"
"Mixed","Male","tile","30","M_tile.wav","None","733.753771023","431","368143.702143","375026.661909","375793.290354","376559.920261","362760.941958","363510.545716","364277.179713","365043.770755","368910.291723","369676.918707","370443.586601","371210.241345","371976.810763","372743.693435","373493.435117","374260.075543","375798.349165"
"Mixed","Male","tile","30","F_romp.wav","space","667.972863826","431","368143.702143","375026.661909","375793.290354","376559.920261","377326.534972","363510.545716","364277.179713","365043.770755","368910.291723","369676.918707","370443.586601","371210.241345","371976.810763","372743.693435","373493.435117","374260.075543","376564.99602"
"Mixed","Male","tile","30","F_lash.wav","None","728.549729585","431","368143.702143","375026.661909","375793.290354","376559.920261","377326.534972","378076.482665","364277.179713","365043.770755","368910.291723","369676.918707","370443.586601","371210.241345","371976.810763","372743.693435","373493.435117","374260.075543","377331.927199"
"Mixed","Male","tile","30","M_dime.wav","None","743.691096937","431","368143.702143","375026.661909","375793.290354","376559.920261","377326.534972","378076.482665","378843.130689","365043.770755","368910.291723","369676.918707","370443.586601","371210.241345","371976.810763","372743.693435","373493.435117","374260.075543","378081.693135"
"Mixed","Male","tile","30","M_lash.wav","None","741.765698032","431","368143.702143","375026.661909","375793.290354","376559.920261","377326.534972","378076.482665","378843.130689","379609.820499","368910.291723","369676.918707","370443.586601","371210.241345","371976.810763","372743.693435","373493.435117","374260.075543","378848.243267"
"Mixed","Male","ball","3","F_knife.wav","None","739.938775296","431","382709.649904","375026.661909","375793.290354","376559.920261","377326.534972","378076.482665","378843.130689","379609.820499","368910.291723","369676.918707","370443.586601","371210.241345","371976.810763","372743.693435","373493.435117","374260.075543","379614.785509"
"Mixed","Male","ball","3","M_ball.wav","None","741.022013077","431","382709.649904","375026.661909","375793.290354","376559.920261","377326.534972","378076.482665","378843.130689","379609.820499","383476.314876","369676.918707","370443.586601","371210.241345","371976.810763","372743.693435","373493.435117","374260.075543","382714.6605"
"Mixed","Male","ball","3","F_reek.wav","space","703.075086174","431","382709.649904","375026.661909","375793.290354","376559.920261","377326.534972","378076.482665","378843.130689","379609.820499","383476.314876","384242.874651","370443.586601","371210.241345","371976.810763","372743.693435","373493.435117","374260.075543","383481.390635"
"Mixed","Male","ball","3","M_knife.wav","None","735.452411762","431","382709.649904","375026.661909","375793.290354","376559.920261","377326.534972","378076.482665","378843.130689","379609.820499","383476.314876","384242.874651","385009.493745","371210.241345","371976.810763","372743.693435","373493.435117","374260.075543","384248.165772"
"Mixed","Male","ball","3","M_jaw.wav","None","733.757862021","431","382709.649904","375026.661909","375793.290354","376559.920261","377326.534972","378076.482665","378843.130689","379609.820499","383476.314876","384242.874651","385009.493745","385776.119268","371976.810763","372743.693435","373493.435117","374260.075543","385014.508432"
"Mixed","Male","ball","3","M_ball.wav","None","735.216887173","431","382709.649904","375026.661909","375793.290354","376559.920261","377326.534972","378076.482665","378843.130689","379609.820499","383476.314876","384242.874651","385009.493745","385776.119268","386542.772259","372743.693435","373493.435117","374260.075543","385777.676185"
"Mixed","Male","ball","3","M_bluff.wav","space","508.348849904","431","382709.649904","375026.661909","375793.290354","376559.920261","377326.534972","378076.482665","378843.130689","379609.820499","383476.314876","384242.874651","385009.493745","385776.119268","386542.772259","387292.752973","373493.435117","374260.075543","386547.876655"
"Mixed","Male","ball","3","M_romp.wav","None","742.720653812","431","382709.649904","375026.661909","375793.290354","376559.920261","377326.534972","378076.482665","378843.130689","379609.820499","383476.314876","384242.874651","385009.493745","385776.119268","386542.772259","387292.752973","388059.361547","374260.075543","387298.130589"
"Mixed","Male","ball","3","M_ball.wav","None","740.883503575","431","382709.649904","375026.661909","375793.290354","376559.920261","377326.534972","378076.482665","378843.130689","379609.820499","383476.314876","384242.874651","385009.493745","385776.119268","386542.772259","387292.752973","388059.361547","388825.964277","388064.509484"
"Mixed","Male","ball","3","F_jaw.wav","space","620.386961636","431","382709.649904","389592.622821","375793.290354","376559.920261","377326.534972","378076.482665","378843.130689","379609.820499","383476.314876","384242.874651","385009.493745","385776.119268","386542.772259","387292.752973","388059.361547","388825.964277","388827.630482"
"Mixed","Male","ball","3","F_greet.wav","None","735.531017363","431","382709.649904","389592.622821","390359.235194","376559.920261","377326.534972","378076.482665","378843.130689","379609.820499","383476.314876","384242.874651","385009.493745","385776.119268","386542.772259","387292.752973","388059.361547","388825.964277","389597.889104"
"Mixed","Male","ball","3","F_romp.wav","None","733.760784162","431","382709.649904","389592.622821","390359.235194","391125.90338","377326.534972","378076.482665","378843.130689","379609.820499","383476.314876","384242.874651","385009.493745","385776.119268","386542.772259","387292.752973","388059.361547","388825.964277","390364.269751"
"Mixed","Male","ball","3","M_ball.wav","None","731.56508719","431","382709.649904","389592.622821","390359.235194","391125.90338","391892.533871","378076.482665","378843.130689","379609.820499","383476.314876","384242.874651","385009.493745","385776.119268","386542.772259","387292.752973","388059.361547","388825.964277","391131.151546"
"Mixed","Male","ball","3","F_cad.wav","space","510.068530057","431","382709.649904","389592.622821","390359.235194","391125.90338","391892.533871","392642.551988","378843.130689","379609.820499","383476.314876","384242.874651","385009.493745","385776.119268","386542.772259","387292.752973","388059.361547","388825.964277","391897.702262"
"Mixed","Male","ball","3","F_greet.wav","None","743.319108347","431","382709.649904","389592.622821","390359.235194","391125.90338","391892.533871","392642.551988","393409.109133","379609.820499","383476.314876","384242.874651","385009.493745","385776.119268","386542.772259","387292.752973","388059.361547","388825.964277","392647.732944"
"Mixed","Male","ball","3","F_reek.wav","None","741.299324283","431","382709.649904","389592.622821","390359.235194","391125.90338","391892.533871","392642.551988","393409.109133","394175.762416","383476.314876","384242.874651","385009.493745","385776.119268","386542.772259","387292.752973","388059.361547","388825.964277","393414.26116"
"Mixed","Male","done","42","M_greet.wav","None","739.490518819","431","397292.330723","389592.622821","390359.235194","391125.90338","391892.533871","392642.551988","393409.109133","394175.762416","383476.314876","384242.874651","385009.493745","385776.119268","386542.772259","387292.752973","388059.361547","388825.964277","394180.781194"
"Mixed","Male","done","42","M_lash.wav","None","741.138022084","431","397292.330723","389592.622821","390359.235194","391125.90338","391892.533871","392642.551988","393409.109133","394175.762416","398058.887868","384242.874651","385009.493745","385776.119268","386542.772259","387292.752973","388059.361547","388825.964277","397297.353008"
"Mixed","Male","done","42","F_dime.wav","None","738.865472795","431","397292.330723","389592.622821","390359.235194","391125.90338","391892.533871","392642.551988","393409.109133","394175.762416","398058.887868","398825.53706","385009.493745","385776.119268","386542.772259","387292.752973","388059.361547","388825.964277","398064.083435"
"Mixed","Male","done","42","F_cad.wav","space","520.389533121","431","397292.330723","389592.622821","390359.235194","391125.90338","391892.533871","392642.551988","393409.109133","394175.762416","398058.887868","398825.53706","399592.25843","385776.119268","386542.772259","387292.752973","388059.361547","388825.964277","398830.863832"
"Mixed","Male","done","42","M_done.wav","None","733.66084693","431","397292.330723","389592.622821","390359.235194","391125.90338","391892.533871","392642.551988","393409.109133","394175.762416","398058.887868","398825.53706","399592.25843","400358.779924","386542.772259","387292.752973","388059.361547","388825.964277","399597.25909"
"Mixed","Male","done","42","M_cad.wav","space","603.200387592","431","397292.330723","389592.622821","390359.235194","391125.90338","391892.533871","392642.551988","393409.109133","394175.762416","398058.887868","398825.53706","399592.25843","400358.779924","401125.66055","387292.752973","388059.361547","388825.964277","400363.908574"
"Mixed","Male","done","42","F_bluff.wav","None","727.727146812","431","397292.330723","389592.622821","390359.235194","391125.90338","391892.533871","392642.551988","393409.109133","394175.762416","398058.887868","398825.53706","399592.25843","400358.779924","401125.66055","401875.386161","388059.361547","388825.964277","401131.306711"
"Mixed","Male","done","42","F_priest.wav","None","743.266217593","431","397292.330723","389592.622821","390359.235194","391125.90338","391892.533871","392642.551988","393409.109133","394175.762416","398058.887868","398825.53706","399592.25843","400358.779924","401125.66055","401875.386161","402642.011976","388825.964277","401880.559812"
"Mixed","Male","done","42","M_done.wav","None","740.994544947","431","397292.330723","389592.622821","390359.235194","391125.90338","391892.533871","392642.551988","393409.109133","394175.762416","398058.887868","398825.53706","399592.25843","400358.779924","401125.66055","401875.386161","402642.011976","403408.694481","402647.402742"
"Mixed","Male","done","42","F_cad.wav","space","728.994187277","431","397292.330723","404175.248996","390359.235194","391125.90338","391892.533871","392642.551988","393409.109133","394175.762416","398058.887868","398825.53706","399592.25843","400358.779924","401125.66055","401875.386161","402642.011976","403408.694481","403413.836573"
"Mixed","Male","done","42","F_cling.wav","space","605.995415746","431","397292.330723","404175.248996","404941.905493","391125.90338","391892.533871","392642.551988","393409.109133","394175.762416","398058.887868","398825.53706","399592.25843","400358.779924","401125.66055","401875.386161","402642.011976","403408.694481","404176.828705"
"Mixed","Male","done","42","M_lash.wav","None","732.465691141","431","397292.330723","404175.248996","404941.905493","405708.570173","391892.533871","392642.551988","393409.109133","394175.762416","398058.887868","398825.53706","399592.25843","400358.779924","401125.66055","401875.386161","402642.011976","403408.694481","404947.183757"
"Mixed","Male","done","42","M_done.wav","None","730.533571314","431","397292.330723","404175.248996","404941.905493","405708.570173","406475.59749","392642.551988","393409.109133","394175.762416","398058.887868","398825.53706","399592.25843","400358.779924","401125.66055","401875.386161","402642.011976","403408.694481","405713.65879"
"Mixed","Male","done","42","F_cling.wav","None","727.596527093","431","397292.330723","404175.248996","404941.905493","405708.570173","406475.59749","407225.112707","393409.109133","394175.762416","398058.887868","398825.53706","399592.25843","400358.779924","401125.66055","401875.386161","402642.011976","403408.694481","406481.262353"
"Mixed","Male","done","42","M_done.wav","space","16.2868467414","431","397292.330723","404175.248996","404941.905493","405708.570173","406475.59749","407225.112707","407991.769789","394175.762416","398058.887868","398825.53706","399592.25843","400358.779924","401125.66055","401875.386161","402642.011976","403408.694481","407230.365548"
"Mixed","Male","done","42","F_lash.wav","space","689.579761016","431","397292.330723","404175.248996","404941.905493","405708.570173","406475.59749","407225.112707","407991.769789","408758.404371","398058.887868","398825.53706","399592.25843","400358.779924","401125.66055","401875.386161","402642.011976","403408.694481","407996.807853"
"Mixed","Female","done","45","M_bluff.wav","None","736.165414237","431","411858.255984","404175.248996","404941.905493","405708.570173","406475.59749","407225.112707","407991.769789","408758.404371","398058.887868","398825.53706","399592.25843","400358.779924","401125.66055","401875.386161","402642.011976","403408.694481","408763.639679"
"Mixed","Female","done","45","M_lash.wav","None","740.910095064","431","411858.255984","404175.248996","404941.905493","405708.570173","406475.59749","407225.112707","407991.769789","408758.404371","412624.946671","398825.53706","399592.25843","400358.779924","401125.66055","401875.386161","402642.011976","403408.694481","411863.307198"
"Mixed","Female","done","45","F_dime.wav","None","738.941156254","431","411858.255984","404175.248996","404941.905493","405708.570173","406475.59749","407225.112707","407991.769789","408758.404371","412624.946671","413391.528946","399592.25843","400358.779924","401125.66055","401875.386161","402642.011976","403408.694481","412630.045223"
"Mixed","Female","done","45","F_done.wav","space","457.309268917","431","411858.255984","404175.248996","404941.905493","405708.570173","406475.59749","407225.112707","407991.769789","408758.404371","412624.946671","413391.528946","414158.184859","400358.779924","401125.66055","401875.386161","402642.011976","403408.694481","413396.806626"
"Mixed","Female","done","45","F_romp.wav","None","733.684224058","431","411858.255984","404175.248996","404941.905493","405708.570173","406475.59749","407225.112707","407991.769789","408758.404371","412624.946671","413391.528946","414158.184859","414924.796356","401125.66055","401875.386161","402642.011976","403408.694481","414163.260327"
"Mixed","Female","done","45","F_done.wav","space","124.016553349","431","411858.255984","404175.248996","404941.905493","405708.570173","406475.59749","407225.112707","407991.769789","408758.404371","412624.946671","413391.528946","414158.184859","414924.796356","415691.925656","401875.386161","402642.011976","403408.694481","414929.97176"
"Mixed","Female","done","45","M_greet.wav","None","727.098009789","431","411858.255984","404175.248996","404941.905493","405708.570173","406475.59749","407225.112707","407991.769789","408758.404371","412624.946671","413391.528946","414158.184859","414924.796356","415691.925656","416441.349994","402642.011976","403408.694481","415697.672339"
"Mixed","Female","done","45","F_done.wav","space","79.3028238404","431","411858.255984","404175.248996","404941.905493","405708.570173","406475.59749","407225.112707","407991.769789","408758.404371","412624.946671","413391.528946","414158.184859","414924.796356","415691.925656","416441.349994","417207.991004","403408.694481","416446.566601"
"Mixed","Female","done","45","M_priest.wav","space","688.749580673","431","411858.255984","404175.248996","404941.905493","405708.570173","406475.59749","407225.112707","407991.769789","408758.404371","412624.946671","413391.528946","414158.184859","414924.796356","415691.925656","416441.349994","417207.991004","417974.611268","417213.028484"
"Mixed","Female","done","45","M_priest.wav","None","736.478959996","431","411858.255984","418741.265135","404941.905493","405708.570173","406475.59749","407225.112707","407991.769789","408758.404371","412624.946671","413391.528946","414158.184859","414924.796356","415691.925656","416441.349994","417207.991004","417974.611268","417979.684689"
"Mixed","Female","done","45","M_jolt.wav","None","734.584535792","431","411858.255984","418741.265135","419507.868158","405708.570173","406475.59749","407225.112707","407991.769789","408758.404371","412624.946671","413391.528946","414158.184859","414924.796356","415691.925656","416441.349994","417207.991004","417974.611268","418746.326868"
"Mixed","Female","done","45","F_lash.wav","None","732.42536559","431","411858.255984","418741.265135","419507.868158","420274.602676","406475.59749","407225.112707","407991.769789","408758.404371","412624.946671","413391.528946","414158.184859","414924.796356","415691.925656","416441.349994","417207.991004","417974.611268","419513.263015"
"Mixed","Female","done","45","M_park.wav","None","730.760037262","431","411858.255984","418741.265135","419507.868158","420274.602676","421041.147256","407225.112707","407991.769789","408758.404371","412624.946671","413391.528946","414158.184859","414924.796356","415691.925656","416441.349994","417207.991004","417974.611268","420279.727236"
"Mixed","Female","done","45","F_done.wav","None","729.152275122","431","411858.255984","418741.265135","419507.868158","420274.602676","421041.147256","421808.017362","407991.769789","408758.404371","412624.946671","413391.528946","414158.184859","414924.796356","415691.925656","416441.349994","417207.991004","417974.611268","421046.164865"
"Mixed","Female","done","45","M_gnash.wav","None","726.964467933","431","411858.255984","418741.265135","419507.868158","420274.602676","421041.147256","421808.017362","422557.72544","408758.404371","412624.946671","413391.528946","414158.184859","414924.796356","415691.925656","416441.349994","417207.991004","417974.611268","421813.580535"
"Mixed","Female","done","45","F_knife.wav","space","0.0207472039619","431","411858.255984","418741.265135","419507.868158","420274.602676","421041.147256","421808.017362","422557.72544","423324.34132","412624.946671","413391.528946","414158.184859","414924.796356","415691.925656","416441.349994","417207.991004","417974.611268","422562.967177"
"Mixed","Female","ball","10","M_lash.wav","None","739.284215644","431","426440.930083","418741.265135","419507.868158","420274.602676","421041.147256","421808.017362","422557.72544","423324.34132","412624.946671","413391.528946","414158.184859","414924.796356","415691.925656","416441.349994","417207.991004","417974.611268","423329.44221"
"Mixed","Female","ball","10","F_ball.wav","None","741.098280963","431","426440.930083","418741.265135","419507.868158","420274.602676","421041.147256","421808.017362","422557.72544","423324.34132","427207.526676","413391.528946","414158.184859","414924.796356","415691.925656","416441.349994","417207.991004","417974.611268","426446.029804"
"Mixed","Female","ball","10","M_gnash.wav","space","592.155277911","431","426440.930083","418741.265135","419507.868158","420274.602676","421041.147256","421808.017362","422557.72544","423324.34132","427207.526676","427974.154537","414158.184859","414924.796356","415691.925656","416441.349994","417207.991004","417974.611268","427212.839714"
"Mixed","Female","ball","10","F_lash.wav","None","736.055541722","431","426440.930083","418741.265135","419507.868158","420274.602676","421041.147256","421808.017362","422557.72544","423324.34132","427207.526676","427974.154537","428740.784735","414924.796356","415691.925656","416441.349994","417207.991004","417974.611268","427979.194062"
"Mixed","Female","ball","10","M_knife.wav","None","734.580737011","431","426440.930083","418741.265135","419507.868158","420274.602676","421041.147256","421808.017362","422557.72544","423324.34132","427207.526676","427974.154537","428740.784735","429507.416395","415691.925656","416441.349994","417207.991004","417974.611268","428745.803805"
"Mixed","Female","ball","10","F_ball.wav","None","732.436177514","431","426440.930083","418741.265135","419507.868158","420274.602676","421041.147256","421808.017362","422557.72544","423324.34132","427207.526676","427974.154537","428740.784735","429507.416395","430274.045424","416441.349994","417207.991004","417974.611268","429512.682093"
"Mixed","Female","ball","10","M_lash.wav","None","730.829584227","431","426440.930083","418741.265135","419507.868158","420274.602676","421041.147256","421808.017362","422557.72544","423324.34132","427207.526676","427974.154537","428740.784735","429507.416395","430274.045424","431040.699292","417207.991004","417974.611268","430279.215276"
"Mixed","Female","ball","10","F_jolt.wav","space","0.0219160610577","431","426440.930083","418741.265135","419507.868158","420274.602676","421041.147256","421808.017362","422557.72544","423324.34132","427207.526676","427974.154537","428740.784735","429507.416395","430274.045424","431040.699292","431790.681759","417974.611268","431045.9121"
"Mixed","Female","ball","10","F_ball.wav","None","742.559351609","431","426440.930083","418741.265135","419507.868158","420274.602676","421041.147256","421808.017362","422557.72544","423324.34132","427207.526676","427974.154537","428740.784735","429507.416395","430274.045424","431040.699292","431790.681759","432557.34001","431795.664594"
"Mixed","Female","ball","10","M_depth.wav","space","634.067258343","431","426440.930083","433323.940695","419507.868158","420274.602676","421041.147256","421808.017362","422557.72544","423324.34132","427207.526676","427974.154537","428740.784735","429507.416395","430274.045424","431040.699292","431790.681759","432557.34001","432562.446452"
"Mixed","Female","ball","10","M_cad.wav","None","737.264139367","431","426440.930083","433323.940695","434090.497547","420274.602676","421041.147256","421808.017362","422557.72544","423324.34132","427207.526676","427974.154537","428740.784735","429507.416395","430274.045424","431040.699292","431790.681759","432557.34001","433329.11756"
"Mixed","Female","ball","10","F_ball.wav","None","735.927259724","431","426440.930083","433323.940695","434090.497547","434857.240832","421041.147256","421808.017362","422557.72544","423324.34132","427207.526676","427974.154537","428740.784735","429507.416395","430274.045424","431040.699292","431790.681759","432557.34001","434095.570384"
"Mixed","Female","ball","10","M_lash.wav","None","733.619936953","431","426440.930083","433323.940695","434090.497547","434857.240832","435623.781321","421808.017362","422557.72544","423324.34132","427207.526676","427974.154537","428740.784735","429507.416395","430274.045424","431040.699292","431790.681759","432557.34001","434862.835856"
"Mixed","Female","ball","10","M_dime.wav","None","732.480009628","431","426440.930083","433323.940695","434090.497547","434857.240832","435623.781321","436390.405967","422557.72544","423324.34132","427207.526676","427974.154537","428740.784735","429507.416395","430274.045424","431040.699292","431790.681759","432557.34001","435628.876951"
"Mixed","Female","ball","10","F_jaw.wav","None","730.843026078","431","426440.930083","433323.940695","434090.497547","434857.240832","435623.781321","436390.405967","437157.050484","423324.34132","427207.526676","427974.154537","428740.784735","429507.416395","430274.045424","431040.699292","431790.681759","432557.34001","436395.446953"
"Mixed","Female","ball","10","F_lash.wav","None","728.739960985","431","426440.930083","433323.940695","434090.497547","434857.240832","435623.781321","436390.405967","437157.050484","437924.166342","427207.526676","427974.154537","428740.784735","429507.416395","430274.045424","431040.699292","431790.681759","432557.34001","437162.455861"
"Mixed","Male","cave","15","F_park.wav","None","726.273673728","431","441023.563855","433323.940695","434090.497547","434857.240832","435623.781321","436390.405967","437157.050484","437924.166342","427207.526676","427974.154537","428740.784735","429507.416395","430274.045424","431040.699292","431790.681759","432557.34001","437929.790588"
"Mixed","Male","cave","15","F_dime.wav","None","741.333805552","431","441023.563855","433323.940695","434090.497547","434857.240832","435623.781321","436390.405967","437157.050484","437924.166342","441790.160449","427974.154537","428740.784735","429507.416395","430274.045424","431040.699292","431790.681759","432557.34001","441028.651888"
"Mixed","Male","cave","15","M_cave.wav","None","739.434705923","431","441023.563855","433323.940695","434090.497547","434857.240832","435623.781321","436390.405967","437157.050484","437924.166342","441790.160449","442556.804089","428740.784735","429507.416395","430274.045424","431040.699292","431790.681759","432557.34001","441795.435498"
"Mixed","Male","cave","15","F_jolt.wav","space","537.928809623","431","441023.563855","433323.940695","434090.497547","434857.240832","435623.781321","436390.405967","437157.050484","437924.166342","441790.160449","442556.804089","443323.419677","429507.416395","430274.045424","431040.699292","431790.681759","432557.34001","442561.713287"
"Mixed","Male","cave","15","M_knife.wav","None","734.477293208","431","441023.563855","433323.940695","434090.497547","434857.240832","435623.781321","436390.405967","437157.050484","437924.166342","441790.160449","442556.804089","443323.419677","444090.059518","430274.045424","431040.699292","431790.681759","432557.34001","443328.553002"
"Mixed","Male","cave","15","M_dime.wav","None","732.666734461","431","441023.563855","433323.940695","434090.497547","434857.240832","435623.781321","436390.405967","437157.050484","437924.166342","441790.160449","442556.804089","443323.419677","444090.059518","444856.694392","431040.699292","431790.681759","432557.34001","444095.210669"
"Mixed","Male","cave","15","M_reek.wav","None","731.092869155","431","441023.563855","433323.940695","434090.497547","434857.240832","435623.781321","436390.405967","437157.050484","437924.166342","441790.160449","442556.804089","443323.419677","444090.059518","444856.694392","445623.30998","431790.681759","432557.34001","444861.648883"
