"Condition","Talker","Target","Trial","current_stimulus","response_response","response_time_response","subject_nr","time_Audio1","time_Audio10","time_Audio11","time_Audio12","time_Audio13","time_Audio14","time_Audio15","time_Audio16","time_Audio2","time_Audio3","time_Audio4","time_Audio5","time_Audio6","time_Audio7","time_Audio8","time_Audio9","time_response"
"Mixed","Both","done","39","F_bluff.wav","NA","NA","136","118214.154582","NA","NA","NA","NA","NA","NA","NA","NA","NA","NA","NA","NA","NA","NA","NA","NA"
"Mixed","Both","done","39","M_done.wav","None","717.671075836","136","118214.154582","NA","NA","NA","NA","NA","NA","NA","118981.122421","NA","NA","NA","NA","NA","NA","NA","118228.198605"
"Mixed","Both","done","39","M_cling.wav","None","720.50306818","136","118214.154582","NA","NA","NA","NA","NA","NA","NA","118981.122421","119730.469455","NA","NA","NA","NA","NA","NA","118990.9469"
"Mixed","Both","done","39","M_done.wav","space","48.9223588957","136","118214.154582","NA","NA","NA","NA","NA","NA","NA","118981.122421","119730.469455","120497.505621","NA","NA","NA","NA","NA","119740.152334"
"Mixed","Both","done","39","M_dime.wav","space","474.04955118","136","118214.154582","NA","NA","NA","NA","NA","NA","NA","118981.122421","119730.469455","120497.505621","121263.589544","NA","NA","NA","NA","120506.982593"
"Mixed","Both","done","39","F_romp.wav","None","734.066023724","136","118214.154582","NA","NA","NA","NA","NA","NA","NA","118981.122421","119730.469455","120497.505621","121263.589544","122030.802554","NA","NA","NA","121272.62935"
"Mixed","Both","done","39","M_ball.wav","None","731.945430394","136","118214.154582","NA","NA","NA","NA","NA","NA","NA","118981.122421","119730.469455","120497.505621","121263.589544","122030.802554","122797.152054","NA","NA","122040.189867"
"Mixed","Both","done","39","F_priest.wav","None","730.924243573","136","118214.154582","NA","NA","NA","NA","NA","NA","NA","118981.122421","119730.469455","120497.505621","121263.589544","122030.802554","122797.152054","123564.229649","NA","122806.492992"
"Mixed","Both","done","39","F_done.wav","None","728.995026089","136","118214.154582","NA","NA","NA","NA","NA","NA","NA","118981.122421","119730.469455","120497.505621","121263.589544","122030.802554","122797.152054","123564.229649","124330.435385","123573.768454"
"Mixed","Both","done","39","M_reek.wav","space","489.680232131","136","118214.154582","125097.026655","NA","NA","NA","NA","NA","NA","118981.122421","119730.469455","120497.505621","121263.589544","122030.802554","122797.152054","123564.229649","124330.435385","124339.24486"
"Mixed","Both","done","39","F_ball.wav","None","727.042311686","136","118214.154582","125097.026655","125863.96636","NA","NA","NA","NA","NA","118981.122421","119730.469455","120497.505621","121263.589544","122030.802554","122797.152054","123564.229649","124330.435385","125106.043274"
"Mixed","Both","done","39","M_reek.wav","None","725.673000095","136","118214.154582","125097.026655","125863.96636","126631.094039","NA","NA","NA","NA","118981.122421","119730.469455","120497.505621","121263.589544","122030.802554","122797.152054","123564.229649","124330.435385","125872.920526"
"Mixed","Both","done","39","M_cad.wav","None","723.707919009","136","118214.154582","125097.026655","125863.96636","126631.094039","127397.295138","NA","NA","NA","118981.122421","119730.469455","120497.505621","121263.589544","122030.802554","122797.152054","123564.229649","124330.435385","126640.233398"
"Mixed","Both","done","39","F_done.wav","None","723.446979886","136","118214.154582","125097.026655","125863.96636","126631.094039","127397.295138","128164.673863","NA","NA","118981.122421","119730.469455","120497.505621","121263.589544","122030.802554","122797.152054","123564.229649","124330.435385","127406.158718"
"Mixed","Both","done","39","F_romp.wav","space","382.51776481","136","118214.154582","125097.026655","125863.96636","126631.094039","127397.295138","128164.673863","128931.177639","NA","118981.122421","119730.469455","120497.505621","121263.589544","122030.802554","122797.152054","123564.229649","124330.435385","128174.257499"
"Mixed","Both","done","39","F_lash.wav","None","719.504759996","136","118214.154582","125097.026655","125863.96636","126631.094039","127397.295138","128164.673863","128931.177639","129680.645867","118981.122421","119730.469455","120497.505621","121263.589544","122030.802554","122797.152054","123564.229649","124330.435385","128940.90813"
"Mixed","Both","cave","20","M_park.wav","None","735.239631031","136","132847.130536","125097.026655","125863.96636","126631.094039","127397.295138","128164.673863","128931.177639","129680.645867","118981.122421","119730.469455","120497.505621","121263.589544","122030.802554","122797.152054","123564.229649","124330.435385","129690.201059"
"Mixed","Both","cave","20","F_greet.wav","None","722.611604026","136","132847.130536","125097.026655","125863.96636","126631.094039","127397.295138","128164.673863","128931.177639","129680.645867","133614.433206","119730.469455","120497.505621","121263.589544","122030.802554","122797.152054","123564.229649","124330.435385","132856.038945"
"Mixed","Both","cave","20","F_cave.wav","None","719.353266875","136","132847.130536","125097.026655","125863.96636","126631.094039","127397.295138","128164.673863","128931.177639","129680.645867","133614.433206","134364.052927","120497.505621","121263.589544","122030.802554","122797.152054","123564.229649","124330.435385","133624.1773"
"Mixed","Both","cave","20","M_greet.wav","space","407.545652008","136","132847.130536","125097.026655","125863.96636","126631.094039","127397.295138","128164.673863","128931.177639","129680.645867","133614.433206","134364.052927","135130.486521","121263.589544","122030.802554","122797.152054","123564.229649","124330.435385","134373.079439"
"Mixed","Both","cave","20","F_jolt.wav","None","734.734757338","136","132847.130536","125097.026655","125863.96636","126631.094039","127397.295138","128164.673863","128931.177639","129680.645867","133614.433206","134364.052927","135130.486521","135897.214445","122030.802554","122797.152054","123564.229649","124330.435385","135139.67442"
"Mixed","Both","cave","20","M_cave.wav","None","733.150263783","136","132847.130536","125097.026655","125863.96636","126631.094039","127397.295138","128164.673863","128931.177639","129680.645867","133614.433206","134364.052927","135130.486521","135897.214445","136664.041612","122797.152054","123564.229649","124330.435385","135906.684306"
"Mixed","Both","cave","20","F_dime.wav","space","387.086980511","136","132847.130536","125097.026655","125863.96636","126631.094039","127397.295138","128164.673863","128931.177639","129680.645867","133614.433206","134364.052927","135130.486521","135897.214445","136664.041612","137430.162636","123564.229649","124330.435385","136673.449639"
"Mixed","Both","cave","20","M_ball.wav","None","731.514448184","136","132847.130536","125097.026655","125863.96636","126631.094039","127397.295138","128164.673863","128931.177639","129680.645867","133614.433206","134364.052927","135130.486521","135897.214445","136664.041612","137430.162636","138197.179014","124330.435385","137439.338785"
"Mixed","Both","cave","20","F_jaw.wav","None","729.42971834","136","132847.130536","125097.026655","125863.96636","126631.094039","127397.295138","128164.673863","128931.177639","129680.645867","133614.433206","134364.052927","135130.486521","135897.214445","136664.041612","137430.162636","138197.179014","138963.93569","138206.472958"
"Mixed","Both","cave","20","F_cave.wav","None","728.570227162","136","132847.130536","139730.459871","125863.96636","126631.094039","127397.295138","128164.673863","128931.177639","129680.645867","133614.433206","134364.052927","135130.486521","135897.214445","136664.041612","137430.162636","138197.179014","138963.93569","138973.332896"
"Mixed","Both","cave","20","F_done.wav","space","496.422600001","136","132847.130536","139730.459871","140497.094116","126631.094039","127397.295138","128164.673863","128931.177639","129680.645867","133614.433206","134364.052927","135130.486521","135897.214445","136664.041612","137430.162636","138197.179014","138963.93569","139739.988474"
"Mixed","Both","cave","20","M_cad.wav","None","726.377288112","136","132847.130536","139730.459871","140497.094116","141263.305108","127397.295138","128164.673863","128931.177639","129680.645867","133614.433206","134364.052927","135130.486521","135897.214445","136664.041612","137430.162636","138197.179014","138963.93569","140506.29129"
"Mixed","Both","cave","20","M_cave.wav","None","725.980623625","136","132847.130536","139730.459871","140497.094116","141263.305108","142029.975835","128164.673863","128931.177639","129680.645867","133614.433206","134364.052927","135130.486521","135897.214445","136664.041612","137430.162636","138197.179014","138963.93569","141272.207025"
"Mixed","Both","cave","20","F_done.wav","space","685.583303915","136","132847.130536","139730.459871","140497.094116","141263.305108","142029.975835","142797.426597","128931.177639","129680.645867","133614.433206","134364.052927","135130.486521","135897.214445","136664.041612","137430.162636","138197.179014","138963.93569","142038.782218"
"Mixed","Both","cave","20","M_gnash.wav","None","722.315110383","136","132847.130536","139730.459871","140497.094116","141263.305108","142029.975835","142797.426597","143564.187292","129680.645867","133614.433206","134364.052927","135130.486521","135897.214445","136664.041612","137430.162636","138197.179014","138963.93569","142806.805562"
"Mixed","Both","cave","20","M_priest.wav","None","720.557481982","136","132847.130536","139730.459871","140497.094116","141263.305108","142029.975835","142797.426597","143564.187292","144330.687049","133614.433206","134364.052927","135130.486521","135897.214445","136664.041612","137430.162636","138197.179014","138963.93569","143573.94499"
"Mixed","Both","tile","35","M_dime.wav","None","719.55608204","136","147447.480763","139730.459871","140497.094116","141263.305108","142029.975835","142797.426597","143564.187292","144330.687049","133614.433206","134364.052927","135130.486521","135897.214445","136664.041612","137430.162636","138197.179014","138963.93569","144340.360343"
"Mixed","Both","tile","35","M_tile.wav","None","720.850574668","136","147447.480763","139730.459871","140497.094116","141263.305108","142029.975835","142797.426597","143564.187292","144330.687049","148214.069561","134364.052927","135130.486521","135897.214445","136664.041612","137430.162636","138197.179014","138963.93569","147457.478377"
"Mixed","Both","tile","35","F_knife.wav","space","484.322325327","136","147447.480763","139730.459871","140497.094116","141263.305108","142029.975835","142797.426597","143564.187292","144330.687049","148214.069561","148980.93661","135130.486521","135897.214445","136664.041612","137430.162636","138197.179014","138963.93569","148223.881672"
"Mixed","Both","tile","35","M_jolt.wav","None","723.829113413","136","147447.480763","139730.459871","140497.094116","141263.305108","142029.975835","142797.426597","143564.187292","144330.687049","148214.069561","148980.93661","149729.924699","135897.214445","136664.041612","137430.162636","138197.179014","138963.93569","148985.624547"
"Mixed","Both","tile","35","F_cave.wav","None","735.655463999","136","147447.480763","139730.459871","140497.094116","141263.305108","142029.975835","142797.426597","143564.187292","144330.687049","148214.069561","148980.93661","149729.924699","150496.700853","136664.041612","137430.162636","138197.179014","138963.93569","149739.315412"
"Mixed","Both","tile","35","F_priest.wav","None","734.106215765","136","147447.480763","139730.459871","140497.094116","141263.305108","142029.975835","142797.426597","143564.187292","144330.687049","148214.069561","148980.93661","149729.924699","150496.700853","151263.653851","137430.162636","138197.179014","138963.93569","150506.404446"
"Mixed","Both","tile","35","M_tile.wav","None","732.864900376","136","147447.480763","139730.459871","140497.094116","141263.305108","142029.975835","142797.426597","143564.187292","144330.687049","148214.069561","148980.93661","149729.924699","150496.700853","151263.653851","152029.775493","138197.179014","138963.93569","151273.030961"
"Mixed","Both","tile","35","M_ball.wav","space","468.862924143","136","147447.480763","139730.459871","140497.094116","141263.305108","142029.975835","142797.426597","143564.187292","144330.687049","148214.069561","148980.93661","149729.924699","150496.700853","151263.653851","152029.775493","152796.733439","138963.93569","152039.205162"
"Mixed","Both","tile","35","F_tile.wav","None","731.268658303","136","147447.480763","139730.459871","140497.094116","141263.305108","142029.975835","142797.426597","143564.187292","144330.687049","148214.069561","148980.93661","149729.924699","150496.700853","151263.653851","152029.775493","152796.733439","153563.5368","152806.026455"
"Mixed","Both","tile","35","F_bluff.wav","space","535.033229622","136","147447.480763","154329.919381","140497.094116","141263.305108","142029.975835","142797.426597","143564.187292","144330.687049","148214.069561","148980.93661","149729.924699","150496.700853","151263.653851","152029.775493","152796.733439","153563.5368","153573.004187"
"Mixed","Both","tile","35","F_cave.wav","None","729.140954092","136","147447.480763","154329.919381","155096.606494","141263.305108","142029.975835","142797.426597","143564.187292","144330.687049","148214.069561","148980.93661","149729.924699","150496.700853","151263.653851","152029.775493","152796.733439","153563.5368","154339.230947"
"Mixed","Both","tile","35","M_park.wav","None","728.243435035","136","147447.480763","154329.919381","155096.606494","155862.896015","142029.975835","142797.426597","143564.187292","144330.687049","148214.069561","148980.93661","149729.924699","150496.700853","151263.653851","152029.775493","152796.733439","153563.5368","155105.931973"
"Mixed","Both","tile","35","F_tile.wav","None","728.969365009","136","147447.480763","154329.919381","155096.606494","155862.896015","156629.916413","142797.426597","143564.187292","144330.687049","148214.069561","148980.93661","149729.924699","150496.700853","151263.653851","152029.775493","152796.733439","153563.5368","155871.620159"
"Mixed","Both","tile","35","M_park.wav","space","364.339836524","136","147447.480763","154329.919381","155096.606494","155862.896015","156629.916413","157396.571991","143564.187292","144330.687049","148214.069561","148980.93661","149729.924699","150496.700853","151263.653851","152029.775493","152796.733439","153563.5368","156639.605784"
"Mixed","Both","tile","35","M_reek.wav","None","726.010304061","136","147447.480763","154329.919381","155096.606494","155862.896015","156629.916413","157396.571991","158163.36113","144330.687049","148214.069561","148980.93661","149729.924699","150496.700853","151263.653851","152029.775493","152796.733439","153563.5368","157405.891286"
"Mixed","Both","tile","35","F_jaw.wav","None","724.903168157","136","147447.480763","154329.919381","155096.606494","155862.896015","156629.916413","157396.571991","158163.36113","158930.358031","148214.069561","148980.93661","149729.924699","150496.700853","151263.653851","152029.775493","152796.733439","153563.5368","158172.81615"
"Mixed","Both","cave","22","F_cad.wav","None","723.591671209","136","162063.488879","154329.919381","155096.606494","155862.896015","156629.916413","157396.571991","158163.36113","158930.358031","148214.069561","148980.93661","149729.924699","150496.700853","151263.653851","152029.775493","152796.733439","153563.5368","158940.006901"
"Mixed","Both","cave","22","M_done.wav","None","722.312637139","136","162063.488879","154329.919381","155096.606494","155862.896015","156629.916413","157396.571991","158163.36113","158930.358031","162830.477123","148980.93661","149729.924699","150496.700853","151263.653851","152029.775493","152796.733439","153563.5368","162073.485564"
"Mixed","Both","cave","22","F_park.wav","None","720.914881909","136","162063.488879","154329.919381","155096.606494","155862.896015","156629.916413","157396.571991","158163.36113","158930.358031","162830.477123","163597.192679","149729.924699","150496.700853","151263.653851","152029.775493","152796.733439","153563.5368","162840.411974"
"Mixed","Both","cave","22","F_priest.wav","None","719.480335596","136","162063.488879","154329.919381","155096.606494","155862.896015","156629.916413","157396.571991","158163.36113","158930.358031","162830.477123","163597.192679","164363.576188","150496.700853","151263.653851","152029.775493","152796.733439","153563.5368","163606.975729"
"Mixed","Both","cave","22","F_cave.wav","None","718.80881954","136","162063.488879","154329.919381","155096.606494","155862.896015","156629.916413","157396.571991","158163.36113","158930.358031","162830.477123","163597.192679","164363.576188","165112.851804","151263.653851","152029.775493","152796.733439","153563.5368","164373.090569"
"Mixed","Both","cave","22","F_romp.wav","space","409.481052891","136","162063.488879","154329.919381","155096.606494","155862.896015","156629.916413","157396.571991","158163.36113","158930.358031","162830.477123","163597.192679","164363.576188","165112.851804","165879.573853","152029.775493","152796.733439","153563.5368","165122.222421"
"Mixed","Both","cave","22","M_done.wav","None","733.686363557","136","162063.488879","154329.919381","155096.606494","155862.896015","156629.916413","157396.571991","158163.36113","158930.358031","162830.477123","163597.192679","164363.576188","165112.851804","165879.573853","166646.429154","152796.733439","153563.5368","165888.94478"
"Mixed","Both","cave","22","M_done.wav","None","732.007882558","136","162063.488879","154329.919381","155096.606494","155862.896015","156629.916413","157396.571991","158163.36113","158930.358031","162830.477123","163597.192679","164363.576188","165112.851804","165879.573853","166646.429154","167412.535647","153563.5368","166656.172939"
"Mixed","Both","cave","22","M_cave.wav","None","732.854697737","136","162063.488879","154329.919381","155096.606494","155862.896015","156629.916413","157396.571991","158163.36113","158930.358031","162830.477123","163597.192679","164363.576188","165112.851804","165879.573853","166646.429154","167412.535647","168179.573049","167421.414067"
"Mixed","Both","cave","22","M_knife.wav","space","470.482044737","136","162063.488879","168946.340237","155096.606494","155862.896015","156629.916413","157396.571991","158163.36113","158930.358031","162830.477123","163597.192679","164363.576188","165112.851804","165879.573853","166646.429154","167412.535647","168179.573049","168189.126386"
"Mixed","Both","cave","22","F_cave.wav","None","730.185946799","136","162063.488879","168946.340237","169713.01993","155862.896015","156629.916413","157396.571991","158163.36113","158930.358031","162830.477123","163597.192679","164363.576188","165112.851804","165879.573853","166646.429154","167412.535647","168179.573049","168955.375406"
"Mixed","Both","cave","22","F_tile.wav","space","513.094254653","136","162063.488879","168946.340237","169713.01993","170479.606872","156629.916413","157396.571991","158163.36113","158930.358031","162830.477123","163597.192679","164363.576188","165112.851804","165879.573853","166646.429154","167412.535647","168179.573049","169722.461348"
"Mixed","Both","cave","22","F_done.wav","None","727.224721573","136","162063.488879","168946.340237","169713.01993","170479.606872","171245.803024","157396.571991","158163.36113","158930.358031","162830.477123","163597.192679","164363.576188","165112.851804","165879.573853","166646.429154","167412.535647","168179.573049","170489.098066"
"Mixed","Both","cave","22","M_lash.wav","None","727.364466293","136","162063.488879","168946.340237","169713.01993","170479.606872","171245.803024","172012.963476","158163.36113","158930.358031","162830.477123","163597.192679","164363.576188","165112.851804","165879.573853","166646.429154","167412.535647","168179.573049","171254.975464"
"Mixed","Both","cave","22","M_cave.wav","None","725.752456696","136","162063.488879","168946.340237","169713.01993","170479.606872","171245.803024","172012.963476","172779.525994","158930.358031","162830.477123","163597.192679","164363.576188","165112.851804","165879.573853","166646.429154","167412.535647","168179.573049","172022.419733"
"Mixed","Both","cave","22","M_gnash.wav","space","486.803719425","136","162063.488879","168946.340237","169713.01993","170479.606872","171245.803024","172012.963476","172779.525994","173546.112008","162830.477123","163597.192679","164363.576188","165112.851804","165879.573853","166646.429154","167412.535647","168179.573049","172788.654841"
"Mixed","Both","done","44","F_jaw.wav","None","722.936541075","136","176679.719287","168946.340237","169713.01993","170479.606872","171245.803024","172012.963476","172779.525994","173546.112008","162830.477123","163597.192679","164363.576188","165112.851804","165879.573853","166646.429154","167412.535647","168179.573049","173555.972041"
"Mixed","Both","done","44","F_done.wav","None","722.595218103","136","176679.719287","168946.340237","169713.01993","170479.606872","171245.803024","172012.963476","172779.525994","173546.112008","177445.86257","163597.192679","164363.576188","165112.851804","165879.573853","166646.429154","167412.535647","168179.573049","176689.477293"
"Mixed","Both","done","44","F_dime.wav","space","476.563717355","136","176679.719287","168946.340237","169713.01993","170479.606872","171245.803024","172012.963476","172779.525994","173546.112008","177445.86257","178213.241296","164363.576188","165112.851804","165879.573853","166646.429154","167412.535647","168179.573049","177454.788911"
"Mixed","Both","done","44","M_jolt.wav","None","720.118770609","136","176679.719287","168946.340237","169713.01993","170479.606872","171245.803024","172012.963476","172779.525994","173546.112008","177445.86257","178213.241296","178980.080829","165112.851804","165879.573853","166646.429154","167412.535647","168179.573049","178222.725997"
"Mixed","Both","done","44","M_done.wav","None","718.950109906","136","176679.719287","168946.340237","169713.01993","170479.606872","171245.803024","172012.963476","172779.525994","173546.112008","177445.86257","178213.241296","178980.080829","179729.664069","165879.573853","166646.429154","167412.535647","168179.573049","178989.496586"
"Mixed","Both","done","44","F_jaw.wav","space","518.191840849","136","176679.719287","168946.340237","169713.01993","170479.606872","171245.803024","172012.963476","172779.525994","173546.112008","177445.86257","178213.241296","178980.080829","179729.664069","180495.807971","166646.429154","167412.535647","168179.573049","179733.046074"
"Mixed","Both","done","44","F_done.wav","None","734.482475091","136","176679.719287","168946.340237","169713.01993","170479.606872","171245.803024","172012.963476","172779.525994","173546.112008","177445.86257","178213.241296","178980.080829","179729.664069","180495.807971","181262.163345","167412.535647","168179.573049","180504.798619"
"Mixed","Both","done","44","F_priest.wav","space","475.241708802","136","176679.719287","168946.340237","169713.01993","170479.606872","171245.803024","172012.963476","172779.525994","173546.112008","177445.86257","178213.241296","178980.080829","179729.664069","180495.807971","181262.163345","182029.260726","168179.573049","181271.915478"
"Mixed","Both","done","44","M_bluff.wav","None","731.372539303","136","176679.719287","168946.340237","169713.01993","170479.606872","171245.803024","172012.963476","172779.525994","173546.112008","177445.86257","178213.241296","178980.080829","179729.664069","180495.807971","181262.163345","182029.260726","182795.872711","182038.61403"
"Mixed","Both","done","44","F_cave.wav","None","730.389380478","136","176679.719287","183562.536946","169713.01993","170479.606872","171245.803024","172012.963476","172779.525994","173546.112008","177445.86257","178213.241296","178980.080829","179729.664069","180495.807971","181262.163345","182029.260726","182795.872711","182805.306399"
"Mixed","Both","done","44","M_lash.wav","space","495.321029215","136","176679.719287","183562.536946","184329.230551","170479.606872","171245.803024","172012.963476","172779.525994","173546.112008","177445.86257","178213.241296","178980.080829","179729.664069","180495.807971","181262.163345","182029.260726","182795.872711","183571.795026"
"Mixed","Both","done","44","M_cad.wav","None","727.960235788","136","176679.719287","183562.536946","184329.230551","185095.773282","171245.803024","172012.963476","172779.525994","173546.112008","177445.86257","178213.241296","178980.080829","179729.664069","180495.807971","181262.163345","182029.260726","182795.872711","184338.631158"
"Mixed","Both","done","44","M_done.wav","None","726.568045793","136","176679.719287","183562.536946","184329.230551","185095.773282","185862.55562","172012.963476","172779.525994","173546.112008","177445.86257","178213.241296","178980.080829","179729.664069","180495.807971","181262.163345","182029.260726","182795.872711","185105.547057"
"Mixed","Both","done","44","M_greet.wav","space","435.522706597","136","176679.719287","183562.536946","184329.230551","185095.773282","185862.55562","186628.978393","172779.525994","173546.112008","177445.86257","178213.241296","178980.080829","179729.664069","180495.807971","181262.163345","182029.260726","182795.872711","185871.544722"
"Mixed","Both","done","44","M_depth.wav","None","724.685512832","136","176679.719287","183562.536946","184329.230551","185095.773282","185862.55562","186628.978393","187395.008211","173546.112008","177445.86257","178213.241296","178980.080829","179729.664069","180495.807971","181262.163345","182029.260726","182795.872711","186638.594182"
"Mixed","Both","done","44","F_jaw.wav","None","728.04649407","136","176679.719287","183562.536946","184329.230551","185095.773282","185862.55562","186628.978393","187395.008211","188162.450626","177445.86257","178213.241296","178980.080829","179729.664069","180495.807971","181262.163345","182029.260726","182795.872711","187403.77162"
"Mixed","Both","done","48","M_lash.wav","None","725.437722169","136","191295.981539","183562.536946","184329.230551","185095.773282","185862.55562","186628.978393","187395.008211","188162.450626","177445.86257","178213.241296","178980.080829","179729.664069","180495.807971","181262.163345","182029.260726","182795.872711","188172.098568"
"Mixed","Both","done","48","F_romp.wav","None","721.090181032","136","191295.981539","183562.536946","184329.230551","185095.773282","185862.55562","186628.978393","187395.008211","188162.450626","192062.789846","178213.241296","178980.080829","179729.664069","180495.807971","181262.163345","182029.260726","182795.872711","191305.440579"
"Mixed","Both","done","48","M_done.wav","None","719.206720591","136","191295.981539","183562.536946","184329.230551","185095.773282","185862.55562","186628.978393","187395.008211","188162.450626","192062.789846","192829.280946","178980.080829","179729.664069","180495.807971","181262.163345","182029.260726","182795.872711","192073.104358"
"Mixed","Both","done","48","M_greet.wav","space","459.872585139","136","191295.981539","183562.536946","184329.230551","185095.773282","185862.55562","186628.978393","187395.008211","188162.450626","192062.789846","192829.280946","193578.74701","179729.664069","180495.807971","181262.163345","182029.260726","182795.872711","192838.993814"
"Mixed","Both","done","48","F_depth.wav","None","735.006517265","136","191295.981539","183562.536946","184329.230551","185095.773282","185862.55562","186628.978393","187395.008211","188162.450626","192062.789846","192829.280946","193578.74701","194345.320658","180495.807971","181262.163345","182029.260726","182795.872711","193588.309313"
"Mixed","Both","done","48","M_cling.wav","None","734.217207646","136","191295.981539","183562.536946","184329.230551","185095.773282","185862.55562","186628.978393","187395.008211","188162.450626","192062.789846","192829.280946","193578.74701","194345.320658","195111.720553","181262.163345","182029.260726","182795.872711","194355.028889"
"Mixed","Both","done","48","M_done.wav","None","734.104360803","136","191295.981539","183562.536946","184329.230551","185095.773282","185862.55562","186628.978393","187395.008211","188162.450626","192062.789846","192829.280946","193578.74701","194345.320658","195111.720553","195878.787944","182029.260726","182795.872711","195120.848163"
"Mixed","Both","done","48","M_tile.wav","space","450.870497618","136","191295.981539","183562.536946","184329.230551","185095.773282","185862.55562","186628.978393","187395.008211","188162.450626","192062.789846","192829.280946","193578.74701","194345.320658","195111.720553","195878.787944","196645.588832","182795.872711","195887.882164"
"Mixed","Both","done","48","M_jaw.wav","None","731.175907538","136","191295.981539","183562.536946","184329.230551","185095.773282","185862.55562","186628.978393","187395.008211","188162.450626","192062.789846","192829.280946","193578.74701","194345.320658","195111.720553","195878.787944","196645.588832","197412.155369","196655.0151"
"Mixed","Both","done","48","F_depth.wav","None","729.955615592","136","191295.981539","198178.86567","184329.230551","185095.773282","185862.55562","186628.978393","187395.008211","188162.450626","192062.789846","192829.280946","193578.74701","194345.320658","195111.720553","195878.787944","196645.588832","197412.155369","197421.563087"
"Mixed","Both","done","48","F_ball.wav","None","728.518595919","136","191295.981539","198178.86567","198945.28937","185095.773282","185862.55562","186628.978393","187395.008211","188162.450626","192062.789846","192829.280946","193578.74701","194345.320658","195111.720553","195878.787944","196645.588832","197412.155369","198188.529689"
"Mixed","Both","done","48","F_done.wav","None","728.005683748","136","191295.981539","198178.86567","198945.28937","199711.928253","185862.55562","186628.978393","187395.008211","188162.450626","192062.789846","192829.280946","193578.74701","194345.320658","195111.720553","195878.787944","196645.588832","197412.155369","198954.783037"
"Mixed","Both","done","48","F_priest.wav","space","441.811522935","136","191295.981539","198178.86567","198945.28937","199711.928253","200478.694513","186628.978393","187395.008211","188162.450626","192062.789846","192829.280946","193578.74701","194345.320658","195111.720553","195878.787944","196645.588832","197412.155369","199720.832952"
"Mixed","Both","done","48","M_jolt.wav","None","725.855719298","136","191295.981539","198178.86567","198945.28937","199711.928253","200478.694513","201244.945079","187395.008211","188162.450626","192062.789846","192829.280946","193578.74701","194345.320658","195111.720553","195878.787944","196645.588832","197412.155369","200487.787806"
"Mixed","Both","done","48","F_done.wav","None","726.37203231","136","191295.981539","198178.86567","198945.28937","199711.928253","200478.694513","201244.945079","202012.408517","188162.450626","192062.789846","192829.280946","193578.74701","194345.320658","195111.720553","195878.787944","196645.588832","197412.155369","201253.70385"
"Mixed","Both","done","48","F_park.wav","space","388.725269586","136","191295.981539","198178.86567","198945.28937","199711.928253","200478.694513","201244.945079","202012.408517","202778.873955","192062.789846","192829.280946","193578.74701","194345.320658","195111.720553","195878.787944","196645.588832","197412.155369","202021.868175"
"Mixed","Both","tile","25","M_depth.wav","None","722.278628498","136","205912.301915","198178.86567","198945.28937","199711.928253","200478.694513","201244.945079","202012.408517","202778.873955","192062.789846","192829.280946","193578.74701","194345.320658","195111.720553","195878.787944","196645.588832","197412.155369","202788.695342"
"Mixed","Both","tile","25","M_tile.wav","None","721.179840155","136","205912.301915","198178.86567","198945.28937","199711.928253","200478.694513","201244.945079","202012.408517","202778.873955","206678.317203","192829.280946","193578.74701","194345.320658","195111.720553","195878.787944","196645.588832","197412.155369","205922.040444"
"Mixed","Both","tile","25","F_ball.wav","space","482.862117817","136","205912.301915","198178.86567","198945.28937","199711.928253","200478.694513","201244.945079","202012.408517","202778.873955","206678.317203","207445.475799","193578.74701","194345.320658","195111.720553","195878.787944","196645.588832","197412.155369","206687.5725"
"Mixed","Both","tile","25","F_bluff.wav","None","719.100366347","136","205912.301915","198178.86567","198945.28937","199711.928253","200478.694513","201244.945079","202012.408517","202778.873955","206678.317203","207445.475799","208194.891469","194345.320658","195111.720553","195878.787944","196645.588832","197412.155369","207454.910415"
"Mixed","Both","tile","25","F_ball.wav","None","735.451412154","136","205912.301915","198178.86567","198945.28937","199711.928253","200478.694513","201244.945079","202012.408517","202778.873955","206678.317203","207445.475799","208194.891469","208961.554776","195111.720553","195878.787944","196645.588832","197412.155369","208204.508186"
"Mixed","Both","tile","25","M_knife.wav","None","735.095867305","136","205912.301915","198178.86567","198945.28937","199711.928253","200478.694513","201244.945079","202012.408517","202778.873955","206678.317203","207445.475799","208194.891469","208961.554776","209728.272188","195878.787944","196645.588832","197412.155369","208970.926012"
"Mixed","Both","tile","25","F_tile.wav","None","733.869391959","136","205912.301915","198178.86567","198945.28937","199711.928253","200478.694513","201244.945079","202012.408517","202778.873955","206678.317203","207445.475799","208194.891469","208961.554776","209728.272188","210494.87026","196645.588832","197412.155369","209737.858296"
"Mixed","Both","tile","25","F_done.wav","space","562.241379754","136","205912.301915","198178.86567","198945.28937","199711.928253","200478.694513","201244.945079","202012.408517","202778.873955","206678.317203","207445.475799","208194.891469","208961.554776","209728.272188","210494.87026","211261.804709","197412.155369","210504.06125"
"Mixed","Both","tile","25","F_bluff.wav","None","731.65666603","136","205912.301915","198178.86567","198945.28937","199711.928253","200478.694513","201244.945079","202012.408517","202778.873955","206678.317203","207445.475799","208194.891469","208961.554776","209728.272188","210494.87026","211261.804709","212028.252834","211270.791956"
"Mixed","Both","tile","25","F_tile.wav","None","730.116383755","136","205912.301915","212795.040427","198945.28937","199711.928253","200478.694513","201244.945079","202012.408517","202778.873955","206678.317203","207445.475799","208194.891469","208961.554776","209728.272188","210494.87026","211261.804709","212028.252834","212037.811426"
"Mixed","Both","tile","25","F_gnash.wav","space","509.899606463","136","205912.301915","212795.040427","213561.647465","199711.928253","200478.694513","201244.945079","202012.408517","202778.873955","206678.317203","207445.475799","208194.891469","208961.554776","209728.272188","210494.87026","211261.804709","212028.252834","212804.350447"
"Mixed","Both","tile","25","M_depth.wav","None","728.850953165","136","205912.301915","212795.040427","213561.647465","214328.756285","200478.694513","201244.945079","202012.408517","202778.873955","206678.317203","207445.475799","208194.891469","208961.554776","209728.272188","210494.87026","211261.804709","212028.252834","213570.907091"
"Mixed","Both","tile","25","M_tile.wav","None","727.60561842","136","205912.301915","212795.040427","213561.647465","214328.756285","215094.891222","201244.945079","202012.408517","202778.873955","206678.317203","207445.475799","208194.891469","208961.554776","209728.272188","210494.87026","211261.804709","212028.252834","214337.853597"
"Mixed","Both","tile","25","M_ball.wav","space","561.810088344","136","205912.301915","212795.040427","213561.647465","214328.756285","215094.891222","215861.308121","202012.408517","202778.873955","206678.317203","207445.475799","208194.891469","208961.554776","209728.272188","210494.87026","211261.804709","212028.252834","215104.384889"
"Mixed","Both","tile","25","M_reek.wav","None","726.38656327","136","205912.301915","212795.040427","213561.647465","214328.756285","215094.891222","215861.308121","216628.109008","202778.873955","206678.317203","207445.475799","208194.891469","208961.554776","209728.272188","210494.87026","211261.804709","212028.252834","215870.642875"
"Mixed","Both","tile","25","M_priest.wav","None","725.143701886","136","205912.301915","212795.040427","213561.647465","214328.756285","215094.891222","215861.308121","216628.109008","217395.283682","206678.317203","207445.475799","208194.891469","208961.554776","209728.272188","210494.87026","211261.804709","212028.252834","216637.763752"
"Mixed","Both","tile","30","F_cling.wav","None","723.856629455","136","220528.097322","212795.040427","213561.647465","214328.756285","215094.891222","215861.308121","216628.109008","217395.283682","206678.317203","207445.475799","208194.891469","208961.554776","209728.272188","210494.87026","211261.804709","212028.252834","217404.895142"
"Mixed","Both","tile","30","M_bluff.wav","None","723.449762445","136","220528.097322","212795.040427","213561.647465","214328.756285","215094.891222","215861.308121","216628.109008","217395.283682","221294.748571","207445.475799","208194.891469","208961.554776","209728.272188","210494.87026","211261.804709","212028.252834","220536.922873"
"Mixed","Both","tile","30","F_park.wav","None","723.489954486","136","220528.097322","212795.040427","213561.647465","214328.756285","215094.891222","215861.308121","216628.109008","217395.283682","221294.748571","222061.782263","208194.891469","208961.554776","209728.272188","210494.87026","211261.804709","212028.252834","221303.50085"
"Mixed","Both","tile","30","M_tile.wav","None","721.82971437","136","220528.097322","212795.040427","213561.647465","214328.756285","215094.891222","215861.308121","216628.109008","217395.283682","221294.748571","222061.782263","222828.403523","208961.554776","209728.272188","210494.87026","211261.804709","212028.252834","222071.16803"
"Mixed","Both","tile","30","M_cling.wav","space","531.997494516","136","220528.097322","212795.040427","213561.647465","214328.756285","215094.891222","215861.308121","216628.109008","217395.283682","221294.748571","222061.782263","222828.403523","223594.6612","209728.272188","210494.87026","211261.804709","212028.252834","222837.955623"
"Mixed","Both","tile","30","M_tile.wav","None","720.431340975","136","220528.097322","212795.040427","213561.647465","214328.756285","215094.891222","215861.308121","216628.109008","217395.283682","221294.748571","222061.782263","222828.403523","223594.6612","224361.116436","210494.87026","211261.804709","212028.252834","223603.897019"
"Mixed","Both","tile","30","F_knife.wav","space","623.540411005","136","220528.097322","212795.040427","213561.647465","214328.756285","215094.891222","215861.308121","216628.109008","217395.283682","221294.748571","222061.782263","222828.403523","223594.6612","224361.116436","225111.068824","211261.804709","212028.252834","224370.36895"
"Mixed","Both","tile","30","F_jaw.wav","None","735.28755235","136","220528.097322","212795.040427","213561.647465","214328.756285","215094.891222","215861.308121","216628.109008","217395.283682","221294.748571","222061.782263","222828.403523","223594.6612","224361.116436","225111.068824","225877.781598","212028.252834","225120.432021"
"Mixed","Both","tile","30","F_tile.wav","None","734.680961818","136","220528.097322","212795.040427","213561.647465","214328.756285","215094.891222","215861.308121","216628.109008","217395.283682","221294.748571","222061.782263","222828.403523","223594.6612","224361.116436","225111.068824","225877.781598","226644.618967","225887.075541"
"Mixed","Both","tile","30","M_greet.wav","space","619.794513565","136","220528.097322","227410.807699","213561.647465","214328.756285","215094.891222","215861.308121","216628.109008","217395.283682","221294.748571","222061.782263","222828.403523","223594.6612","224361.116436","225111.068824","225877.781598","226644.618967","226654.010608"
"Mixed","Both","tile","30","F_dime.wav","None","733.650499955","136","220528.097322","227410.807699","228177.876636","214328.756285","215094.891222","215861.308121","216628.109008","217395.283682","221294.748571","222061.782263","222828.403523","223594.6612","224361.116436","225111.068824","225877.781598","226644.618967","227419.708379"
"Mixed","Both","tile","30","M_done.wav","None","732.364045922","136","220528.097322","227410.807699","228177.876636","228944.814177","215094.891222","215861.308121","216628.109008","217395.283682","221294.748571","222061.782263","222828.403523","223594.6612","224361.116436","225111.068824","225877.781598","226644.618967","228186.887999"
"Mixed","Both","tile","30","M_priest.wav","None","731.094595976","136","220528.097322","227410.807699","228177.876636","228944.814177","229711.218091","215861.308121","216628.109008","217395.283682","221294.748571","222061.782263","222828.403523","223594.6612","224361.116436","225111.068824","225877.781598","226644.618967","228954.051851"
"Mixed","Both","tile","30","M_lash.wav","None","730.409167241","136","220528.097322","227410.807699","228177.876636","228944.814177","229711.218091","230477.785246","216628.109008","217395.283682","221294.748571","222061.782263","222828.403523","223594.6612","224361.116436","225111.068824","225877.781598","226644.618967","229720.839754"
"Mixed","Both","tile","30","F_tile.wav","None","730.080829235","136","220528.097322","227410.807699","228177.876636","228944.814177","229711.218091","230477.785246","231244.369406","217395.283682","221294.748571","222061.782263","222828.403523","223594.6612","224361.116436","225111.068824","225877.781598","226644.618967","230486.899253"
"Mixed","Both","tile","30","F_gnash.wav","space","587.751571205","136","220528.097322","227410.807699","228177.876636","228944.814177","229711.218091","230477.785246","231244.369406","232011.220069","221294.748571","222061.782263","222828.403523","223594.6612","224361.116436","225111.068824","225877.781598","226644.618967","231253.943766"
"Mixed","Both","done","42","F_gnash.wav","None","727.332931012","136","235144.808179","227410.807699","228177.876636","228944.814177","229711.218091","230477.785246","231244.369406","232011.220069","221294.748571","222061.782263","222828.403523","223594.6612","224361.116436","225111.068824","225877.781598","226644.618967","232020.80556"
"Mixed","Both","done","42","M_depth.wav","None","722.379417624","136","235144.808179","227410.807699","228177.876636","228944.814177","229711.218091","230477.785246","231244.369406","232011.220069","235911.413053","222061.782263","222828.403523","223594.6612","224361.116436","225111.068824","225877.781598","226644.618967","235154.047399"
"Mixed","Both","done","42","M_jolt.wav","None","721.103784512","136","235144.808179","227410.807699","228177.876636","228944.814177","229711.218091","230477.785246","231244.369406","232011.220069","235911.413053","236677.812638","222828.403523","223594.6612","224361.116436","225111.068824","225877.781598","226644.618967","235921.382532"
"Mixed","Both","done","42","M_lash.wav","None","721.259915037","136","235144.808179","227410.807699","228177.876636","228944.814177","229711.218091","230477.785246","231244.369406","232011.220069","235911.413053","236677.812638","237444.711842","223594.6612","224361.116436","225111.068824","225877.781598","226644.618967","236687.430901"
"Mixed","Both","done","42","M_tile.wav","None","720.082597691","136","235144.808179","227410.807699","228177.876636","228944.814177","229711.218091","230477.785246","231244.369406","232011.220069","235911.413053","236677.812638","237444.711842","238211.550139","224361.116436","225111.068824","225877.781598","226644.618967","237454.671427"
"Mixed","Both","done","42","M_done.wav","None","719.685314922","136","235144.808179","227410.807699","228177.876636","228944.814177","229711.218091","230477.785246","231244.369406","232011.220069","235911.413053","236677.812638","237444.711842","238211.550139","238977.843679","225111.068824","225877.781598","226644.618967","238220.983208"
"Mixed","Both","done","42","F_knife.wav","space","550.117917242","136","235144.808179","227410.807699","228177.876636","228944.814177","229711.218091","230477.785246","231244.369406","232011.220069","235911.413053","236677.812638","237444.711842","238211.550139","238977.843679","239727.413315","225877.781598","226644.618967","238987.346621"
"Mixed","Both","done","42","M_bluff.wav","None","735.201603267","136","235144.808179","227410.807699","228177.876636","228944.814177","229711.218091","230477.785246","231244.369406","232011.220069","235911.413053","236677.812638","237444.711842","238211.550139","238977.843679","239727.413315","240493.591535","226644.618967","239736.945628"
"Mixed","Both","done","42","F_done.wav","None","735.76181836","136","235144.808179","227410.807699","228177.876636","228944.814177","229711.218091","230477.785246","231244.369406","232011.220069","235911.413053","236677.812638","237444.711842","238211.550139","238977.843679","239727.413315","240493.591535","241260.426431","240502.499635"
"Mixed","Both","done","42","F_depth.wav","None","735.69936608","136","235144.808179","242027.399835","228177.876636","228944.814177","229711.218091","230477.785246","231244.369406","232011.220069","235911.413053","236677.812638","237444.711842","238211.550139","238977.843679","239727.413315","240493.591535","241260.426431","241269.394201"
"Mixed","Both","done","42","M_done.wav","space","0.0479212030768","136","235144.808179","242027.399835","242794.066234","228944.814177","229711.218091","230477.785246","231244.369406","232011.220069","235911.413053","236677.812638","237444.711842","238211.550139","238977.843679","239727.413315","240493.591535","241260.426431","242036.915762"
"Mixed","Both","done","42","F_jolt.wav","space","669.795873924","136","235144.808179","242027.399835","242794.066234","243560.916279","229711.218091","230477.785246","231244.369406","232011.220069","235911.413053","236677.812638","237444.711842","238211.550139","238977.843679","239727.413315","240493.591535","241260.426431","242803.539496"
"Mixed","Both","done","42","F_tile.wav","None","730.290446198","136","235144.808179","242027.399835","242794.066234","243560.916279","244327.409543","230477.785246","231244.369406","232011.220069","235911.413053","236677.812638","237444.711842","238211.550139","238977.843679","239727.413315","240493.591535","241260.426431","243570.511663"
"Mixed","Both","done","42","F_done.wav","None","730.024251272","136","235144.808179","242027.399835","242794.066234","243560.916279","244327.409543","245094.038842","231244.369406","232011.220069","235911.413053","236677.812638","237444.711842","238211.550139","238977.843679","239727.413315","240493.591535","241260.426431","244336.771813"
"Mixed","Both","done","42","F_cave.wav","space","489.759379532","136","235144.808179","242027.399835","242794.066234","243560.916279","244327.409543","245094.038842","245860.691946","232011.220069","235911.413053","236677.812638","237444.711842","238211.550139","238977.843679","239727.413315","240493.591535","241260.426431","245103.511485"
"Mixed","Both","done","42","M_jolt.wav","None","728.414096637","136","235144.808179","242027.399835","242794.066234","243560.916279","244327.409543","245094.038842","245860.691946","246626.828428","235911.413053","236677.812638","237444.711842","238211.550139","238977.843679","239727.413315","240493.591535","241260.426431","245869.525227"
"Mixed","Both","done","40","F_priest.wav","None","728.108327952","136","249761.002105","242027.399835","242794.066234","243560.916279","244327.409543","245094.038842","245860.691946","246626.828428","235911.413053","236677.812638","237444.711842","238211.550139","238977.843679","239727.413315","240493.591535","241260.426431","246635.922957"
"Mixed","Both","done","40","F_tile.wav","None","721.228070557","136","249761.002105","242027.399835","242794.066234","243560.916279","244327.409543","245094.038842","245860.691946","246626.828428","250527.280187","236677.812638","237444.711842","238211.550139","238977.843679","239727.413315","240493.591535","241260.426431","249770.566262"
"Mixed","Both","done","40","M_priest.wav","None","720.624571783","136","249761.002105","242027.399835","242794.066234","243560.916279","244327.409543","245094.038842","245860.691946","246626.828428","250527.280187","251293.760775","237444.711842","238211.550139","238977.843679","239727.413315","240493.591535","241260.426431","250536.604738"
"Mixed","Both","done","40","F_done.wav","None","720.007778727","136","249761.002105","242027.399835","242794.066234","243560.916279","244327.409543","245094.038842","245860.691946","246626.828428","250527.280187","251293.760775","252060.921535","238211.550139","238977.843679","239727.413315","240493.591535","241260.426431","251303.274228"
"Mixed","Both","done","40","F_greet.wav","space","409.975723946","136","249761.002105","242027.399835","242794.066234","243560.916279","244327.409543","245094.038842","245860.691946","246626.828428","250527.280187","251293.760775","252060.921535","252810.165925","238977.843679","239727.413315","240493.591535","241260.426431","252071.113307"
"Mixed","Both","done","40","M_lash.wav","None","735.24612363","136","249761.002105","242027.399835","242794.066234","243560.916279","244327.409543","245094.038842","245860.691946","246626.828428","250527.280187","251293.760775","252060.921535","252810.165925","253576.789349","239727.413315","240493.591535","241260.426431","252819.522012"
"Mixed","Both","done","40","F_greet.wav","None","734.748979216","136","249761.002105","242027.399835","242794.066234","243560.916279","244327.409543","245094.038842","245860.691946","246626.828428","250527.280187","251293.760775","252060.921535","252810.165925","253576.789349","254343.558701","240493.591535","241260.426431","253586.156566"
"Mixed","Both","done","40","F_done.wav","None","734.567496693","136","249761.002105","242027.399835","242794.066234","243560.916279","244327.409543","245094.038842","245860.691946","246626.828428","250527.280187","251293.760775","252060.921535","252810.165925","253576.789349","254343.558701","255110.282296","241260.426431","254352.562026"
"Mixed","Both","done","40","M_cad.wav","space","441.355497809","136","249761.002105","242027.399835","242794.066234","243560.916279","244327.409543","245094.038842","245860.691946","246626.828428","250527.280187","251293.760775","252060.921535","252810.165925","253576.789349","254343.558701","255110.282296","255877.039591","255119.640856"
"Mixed","Both","done","40","M_done.wav","None","731.517539825","136","249761.002105","256643.706917","242794.066234","243560.916279","244327.409543","245094.038842","245860.691946","246626.828428","250527.280187","251293.760775","252060.921535","252810.165925","253576.789349","254343.558701","255110.282296","255877.039591","255886.544697"
"Mixed","Both","done","40","M_cling.wav","None","731.146845617","136","249761.002105","256643.706917","257410.342708","243560.916279","244327.409543","245094.038842","245860.691946","246626.828428","250527.280187","251293.760775","252060.921535","252810.165925","253576.789349","254343.558701","255110.282296","255877.039591","256653.480383"
"Mixed","Both","done","40","M_done.wav","space","61.6051090183","136","249761.002105","256643.706917","257410.342708","258176.967369","244327.409543","245094.038842","245860.691946","246626.828428","250527.280187","251293.760775","252060.921535","252810.165925","253576.789349","254343.558701","255110.282296","255877.039591","257419.314497"
"Mixed","Both","done","40","F_jaw.wav","space","654.45179306","136","249761.002105","256643.706917","257410.342708","258176.967369","258943.525249","245094.038842","245860.691946","246626.828428","250527.280187","251293.760775","252060.921535","252810.165925","253576.789349","254343.558701","255110.282296","255877.039591","258186.431665"
"Mixed","Both","done","40","F_cad.wav","None","728.065353469","136","249761.002105","256643.706917","257410.342708","258176.967369","258943.525249","259710.372203","245860.691946","246626.828428","250527.280187","251293.760775","252060.921535","252810.165925","253576.789349","254343.558701","255110.282296","255877.039591","258953.039631"
"Mixed","Both","done","40","M_park.wav","None","727.767004864","136","249761.002105","256643.706917","257410.342708","258176.967369","258943.525249","259710.372203","260476.839187","246626.828428","250527.280187","251293.760775","252060.921535","252810.165925","253576.789349","254343.558701","255110.282296","255877.039591","259719.562884"
"Mixed","Both","done","40","M_tile.wav","None","728.285482153","136","249761.002105","256643.706917","257410.342708","258176.967369","258943.525249","259710.372203","260476.839187","261243.608539","250527.280187","251293.760775","252060.921535","252810.165925","253576.789349","254343.558701","255110.282296","255877.039591","260485.964633"
"Mixed","Both","ball","8","M_jolt.wav","None","727.957144263","136","264377.081638","256643.706917","257410.342708","258176.967369","258943.525249","259710.372203","260476.839187","261243.608539","250527.280187","251293.760775","252060.921535","252810.165925","253576.789349","254343.558701","255110.282296","255877.039591","261253.003891"
"Mixed","Both","ball","8","F_dime.wav","None","721.44758096","136","264377.081638","256643.706917","257410.342708","258176.967369","258943.525249","259710.372203","260476.839187","261243.608539","265143.717429","251293.760775","252060.921535","252810.165925","253576.789349","254343.558701","255110.282296","255877.039591","264386.963622"
"Mixed","Both","ball","8","M_dime.wav","None","720.932504511","136","264377.081638","256643.706917","257410.342708","258176.967369","258943.525249","259710.372203","260476.839187","261243.608539","265143.717429","265910.419691","252060.921535","252810.165925","253576.789349","254343.558701","255110.282296","255877.039591","265153.629402"
"Mixed","Both","ball","8","M_cad.wav","None","720.12062557","136","264377.081638","256643.706917","257410.342708","258176.967369","258943.525249","259710.372203","260476.839187","261243.608539","265143.717429","265910.419691","266677.056101","252810.165925","253576.789349","254343.558701","255110.282296","255877.039591","265920.720291"
"Mixed","Both","ball","8","M_ball.wav","None","720.304890536","136","264377.081638","256643.706917","257410.342708","258176.967369","258943.525249","259710.372203","260476.839187","261243.608539","265143.717429","265910.419691","266677.056101","267443.808139","253576.789349","254343.558701","255110.282296","255877.039591","266686.744235"
"Mixed","Both","ball","8","F_park.wav","space","394.912987365","136","264377.081638","256643.706917","257410.342708","258176.967369","258943.525249","259710.372203","260476.839187","261243.608539","265143.717429","265910.419691","266677.056101","267443.808139","268193.11931","254343.558701","255110.282296","255877.039591","267453.720113"
"Mixed","Both","ball","8","F_ball.wav","None","736.062640208","136","264377.081638","256643.706917","257410.342708","258176.967369","258943.525249","259710.372203","260476.839187","261243.608539","265143.717429","265910.419691","266677.056101","267443.808139","268193.11931","268959.706561","255110.282296","255877.039591","268202.184468"
"Mixed","Both","ball","8","F_greet.wav","space","487.416493357","136","264377.081638","256643.706917","257410.342708","258176.967369","258943.525249","259710.372203","260476.839187","261243.608539","265143.717429","265910.419691","266677.056101","267443.808139","268193.11931","268959.706561","269726.435721","255877.039591","268969.115516"
"Mixed","Both","ball","8","M_jaw.wav","None","733.204368385","136","264377.081638","256643.706917","257410.342708","258176.967369","258943.525249","259710.372203","260476.839187","261243.608539","265143.717429","265910.419691","266677.056101","267443.808139","268193.11931","268959.706561","269726.435721","270492.725551","269736.05522"
"Mixed","Both","ball","8","M_tile.wav","None","734.151972807","136","264377.081638","271260.004724","257410.342708","258176.967369","258943.525249","259710.372203","260476.839187","261243.608539","265143.717429","265910.419691","266677.056101","267443.808139","268193.11931","268959.706561","269726.435721","270492.725551","270502.04361"
"Mixed","Both","ball","8","F_ball.wav","None","733.612162992","136","264377.081638","271260.004724","272026.56044","258176.967369","258943.525249","259710.372203","260476.839187","261243.608539","265143.717429","265910.419691","266677.056101","267443.808139","268193.11931","268959.706561","269726.435721","270492.725551","271269.034328"
"Mixed","Both","ball","8","F_gnash.wav","space","444.867663202","136","264377.081638","271260.004724","272026.56044","272793.075346","258943.525249","259710.372203","260476.839187","261243.608539","265143.717429","265910.419691","266677.056101","267443.808139","268193.11931","268959.706561","269726.435721","270492.725551","272035.629308"
"Mixed","Both","ball","8","M_ball.wav","None","731.600706349","136","264377.081638","271260.004724","272026.56044","272793.075346","273559.980733","259710.372203","260476.839187","261243.608539","265143.717429","265910.419691","266677.056101","267443.808139","268193.11931","268959.706561","269726.435721","270492.725551","272802.284268"
"Mixed","Both","ball","8","F_gnash.wav","None","730.93135457","136","264377.081638","271260.004724","272026.56044","272793.075346","273559.980733","274326.310136","260476.839187","261243.608539","265143.717429","265910.419691","266677.056101","267443.808139","268193.11931","268959.706561","269726.435721","270492.725551","273569.551073"
"Mixed","Both","ball","8","M_lash.wav","space","448.592536966","136","264377.081638","271260.004724","272026.56044","272793.075346","273559.980733","274326.310136","275093.043007","261243.608539","265143.717429","265910.419691","266677.056101","267443.808139","268193.11931","268959.706561","269726.435721","270492.725551","274335.8273"
"Mixed","Both","ball","8","F_cave.wav","None","729.299248778","136","264377.081638","271260.004724","272026.56044","272793.075346","273559.980733","274326.310136","275093.043007","275859.782679","265143.717429","265910.419691","266677.056101","267443.808139","268193.11931","268959.706561","269726.435721","270492.725551","275102.555224"
"Mixed","Both","tile","32","F_cad.wav","None","729.045729851","136","278993.326886","271260.004724","272026.56044","272793.075346","273559.980733","274326.310136","275093.043007","275859.782679","265143.717429","265910.419691","266677.056101","267443.808139","268193.11931","268959.706561","269726.435721","270492.725551","275869.078786"
"Mixed","Both","tile","32","F_jolt.wav","None","722.879653913","136","278993.326886","271260.004724","272026.56044","272793.075346","273559.980733","274326.310136","275093.043007","275859.782679","279760.136739","265910.419691","266677.056101","267443.808139","268193.11931","268959.706561","269726.435721","270492.725551","279002.79211"
"Mixed","Both","tile","32","F_park.wav","None","722.171655856","136","278993.326886","271260.004724","272026.56044","272793.075346","273559.980733","274326.310136","275093.043007","275859.782679","279760.136739","280526.637114","266677.056101","267443.808139","268193.11931","268959.706561","269726.435721","270492.725551","279769.908041"
"Mixed","Both","tile","32","F_romp.wav","None","722.415590542","136","278993.326886","271260.004724","272026.56044","272793.075346","273559.980733","274326.310136","275093.043007","275859.782679","279760.136739","280526.637114","281293.022169","267443.808139","268193.11931","268959.706561","269726.435721","270492.725551","280536.609994"
"Mixed","Both","tile","32","M_tile.wav","None","722.30119782","136","278993.326886","271260.004724","272026.56044","272793.075346","273559.980733","274326.310136","275093.043007","275859.782679","279760.136739","280526.637114","281293.022169","282060.040402","268193.11931","268959.706561","269726.435721","270492.725551","281302.759152"
"Mixed","Both","tile","32","F_park.wav","space","441.897781217","136","278993.326886","271260.004724","272026.56044","272793.075346","273559.980733","274326.310136","275093.043007","275859.782679","279760.136739","280526.637114","281293.022169","282060.040402","282825.885338","268959.706561","269726.435721","270492.725551","282070.226918"
"Mixed","Both","tile","32","F_tile.wav","None","723.26055076","136","278993.326886","271260.004724","272026.56044","272793.075346","273559.980733","274326.310136","275093.043007","275859.782679","279760.136739","280526.637114","281293.022169","282060.040402","282825.885338","283593.075779","269726.435721","270492.725551","282834.67348"
"Mixed","Both","tile","32","M_park.wav","space","469.535676879","136","278993.326886","271260.004724","272026.56044","272793.075346","273559.980733","274326.310136","275093.043007","275859.782679","279760.136739","280526.637114","281293.022169","282060.040402","282825.885338","283593.075779","284360.002189","270492.725551","283602.585832"
"Mixed","Both","tile","32","M_tile.wav","None","721.049679792","136","278993.326886","271260.004724","272026.56044","272793.075346","273559.980733","274326.310136","275093.043007","275859.782679","279760.136739","280526.637114","281293.022169","282060.040402","282825.885338","283593.075779","284360.002189","285126.409194","284369.396303"
"Mixed","Both","tile","32","M_dime.wav","space","535.663626157","136","278993.326886","285893.267278","272026.56044","272793.075346","273559.980733","274326.310136","275093.043007","275859.782679","279760.136739","280526.637114","281293.022169","282060.040402","282825.885338","283593.075779","284360.002189","285126.409194","285136.415464"
"Mixed","Both","tile","32","F_lash.wav","None","719.237328274","136","278993.326886","285893.267278","286659.138184","272793.075346","273559.980733","274326.310136","275093.043007","275859.782679","279760.136739","280526.637114","281293.022169","282060.040402","282825.885338","283593.075779","284360.002189","285126.409194","285903.013537"
"Mixed","Both","tile","32","M_priest.wav","None","720.845937147","136","278993.326886","285893.267278","286659.138184","287426.390459","273559.980733","274326.310136","275093.043007","275859.782679","279760.136739","280526.637114","281293.022169","282060.040402","282825.885338","283593.075779","284360.002189","285126.409194","286668.17799"
"Mixed","Both","tile","32","F_tile.wav","None","719.719014363","136","278993.326886","285893.267278","286659.138184","287426.390459","288192.888978","274326.310136","275093.043007","275859.782679","279760.136739","280526.637114","281293.022169","282060.040402","282825.885338","283593.075779","284360.002189","285126.409194","287435.89742"
"Mixed","Both","tile","32","M_priest.wav","space","628.923051408","136","278993.326886","285893.267278","286659.138184","287426.390459","288192.888978","288942.193347","275093.043007","275859.782679","279760.136739","280526.637114","281293.022169","282060.040402","282825.885338","283593.075779","284360.002189","285126.409194","288203.060654"
"Mixed","Both","tile","32","M_knife.wav","None","736.319250893","136","278993.326886","285893.267278","286659.138184","287426.390459","288192.888978","288942.193347","289710.290582","275859.782679","279760.136739","280526.637114","281293.022169","282060.040402","282825.885338","283593.075779","284360.002189","285126.409194","288951.371043"
"Mixed","Both","tile","32","M_knife.wav","None","734.348604688","136","278993.326886","285893.267278","286659.138184","287426.390459","288192.888978","288942.193347","289710.290582","290475.797905","279760.136739","280526.637114","281293.022169","282060.040402","282825.885338","283593.075779","284360.002189","285126.409194","289719.421284"
"Mixed","Both","done","45","F_lash.wav","None","735.264983028","136","293609.721154","285893.267278","286659.138184","287426.390459","288192.888978","288942.193347","289710.290582","290475.797905","279760.136739","280526.637114","281293.022169","282060.040402","282825.885338","283593.075779","284360.002189","285126.409194","290485.065569"
"Mixed","Both","done","45","F_done.wav","None","721.954309731","136","293609.721154","285893.267278","286659.138184","287426.390459","288192.888978","288942.193347","289710.290582","290475.797905","294376.170516","280526.637114","281293.022169","282060.040402","282825.885338","283593.075779","284360.002189","285126.409194","293619.269853"
"Mixed","Both","done","45","M_reek.wav","None","722.271826817","136","293609.721154","285893.267278","286659.138184","287426.390459","288192.888978","288942.193347","289710.290582","290475.797905","294376.170516","295142.915134","281293.022169","282060.040402","282825.885338","283593.075779","284360.002189","285126.409194","294385.708394"
"Mixed","Both","done","45","M_greet.wav","space","0.0275160418823","136","293609.721154","285893.267278","286659.138184","287426.390459","288192.888978","288942.193347","289710.290582","290475.797905","294376.170516","295142.915134","295909.629145","282060.040402","282825.885338","283593.075779","284360.002189","285126.409194","295152.907801"
"Mixed","Both","done","45","M_done.wav","None","719.579888042","136","293609.721154","285893.267278","286659.138184","287426.390459","288192.888978","288942.193347","289710.290582","290475.797905","294376.170516","295142.915134","295909.629145","296676.18146","282825.885338","283593.075779","284360.002189","285126.409194","295919.430745"
"Mixed","Both","done","45","F_priest.wav","space","634.036096046","136","293609.721154","285893.267278","286659.138184","287426.390459","288192.888978","288942.193347","289710.290582","290475.797905","294376.170516","295142.915134","295909.629145","296676.18146","297425.386276","283593.075779","284360.002189","285126.409194","296685.704498"
"Mixed","Both","done","45","M_cave.wav","None","735.188308987","136","293609.721154","285893.267278","286659.138184","287426.390459","288192.888978","288942.193347","289710.290582","290475.797905","294376.170516","295142.915134","295909.629145","296676.18146","297425.386276","298192.316087","284360.002189","285126.409194","297434.848717"
"Mixed","Both","done","45","M_cad.wav","None","734.370864811","136","293609.721154","285893.267278","286659.138184","287426.390459","288192.888978","288942.193347","289710.290582","290475.797905","294376.170516","295142.915134","295909.629145","296676.18146","297425.386276","298192.316087","298958.856345","285126.409194","298201.866023"
"Mixed","Both","done","45","F_tile.wav","None","734.594703652","136","293609.721154","285893.267278","286659.138184","287426.390459","288192.888978","288942.193347","289710.290582","290475.797905","294376.170516","295142.915134","295909.629145","296676.18146","297425.386276","298192.316087","298958.856345","299725.493063","298968.315385"
"Mixed","Both","done","45","M_done.wav","None","734.299446805","136","293609.721154","300491.876572","286659.138184","287426.390459","288192.888978","288942.193347","289710.290582","290475.797905","294376.170516","295142.915134","295909.629145","296676.18146","297425.386276","298192.316087","298958.856345","299725.493063","299735.0801"
"Mixed","Both","done","45","F_cling.wav","space","498.521860689","136","293609.721154","300491.876572","301259.048772","287426.390459","288192.888978","288942.193347","289710.290582","290475.797905","294376.170516","295142.915134","295909.629145","296676.18146","297425.386276","298192.316087","298958.856345","299725.493063","300501.136198"
"Mixed","Both","done","45","F_lash.wav","None","732.94312018","136","293609.721154","300491.876572","301259.048772","302025.148463","288192.888978","288942.193347","289710.290582","290475.797905","294376.170516","295142.915134","295909.629145","296676.18146","297425.386276","298192.316087","298958.856345","299725.493063","301268.641992"
"Mixed","Both","done","45","M_greet.wav","None","734.705386334","136","293609.721154","300491.876572","301259.048772","302025.148463","302792.21029","288942.193347","289710.290582","290475.797905","294376.170516","295142.915134","295909.629145","296676.18146","297425.386276","298192.316087","298958.856345","299725.493063","302033.686487"
"Mixed","Both","done","45","F_done.wav","None","733.193547465","136","293609.721154","300491.876572","301259.048772","302025.148463","302792.21029","303559.046422","289710.290582","290475.797905","294376.170516","295142.915134","295909.629145","296676.18146","297425.386276","298192.316087","298958.856345","299725.493063","302801.770428"
"Mixed","Both","done","45","M_cad.wav","space","559.084450244","136","293609.721154","300491.876572","301259.048772","302025.148463","302792.21029","303559.046422","304325.570912","290475.797905","294376.170516","295142.915134","295909.629145","296676.18146","297425.386276","298192.316087","298958.856345","299725.493063","303568.442083"
"Mixed","Both","done","45","F_park.wav","None","731.852679513","136","293609.721154","300491.876572","301259.048772","302025.148463","302792.21029","303559.046422","304325.570912","305092.189699","294376.170516","295142.915134","295909.629145","296676.18146","297425.386276","298192.316087","298958.856345","299725.493063","304334.655239"
"Mixed","Both","cave","17","F_depth.wav","None","731.29153694","136","308225.865922","300491.876572","301259.048772","302025.148463","302792.21029","303559.046422","304325.570912","305092.189699","294376.170516","295142.915134","295909.629145","296676.18146","297425.386276","298192.316087","298958.856345","299725.493063","305101.655231"
"Mixed","Both","cave","17","F_jolt.wav","None","721.86897893","136","308225.865922","300491.876572","301259.048772","302025.148463","302792.21029","303559.046422","304325.570912","305092.189699","308992.465849","295142.915134","295909.629145","296676.18146","297425.386276","298192.316087","298958.856345","299725.493063","308235.22881"
"Mixed","Both","cave","17","F_cave.wav","None","721.289904555","136","308225.865922","300491.876572","301259.048772","302025.148463","302792.21029","303559.046422","304325.570912","305092.189699","308992.465849","309759.230564","295909.629145","296676.18146","297425.386276","298192.316087","298958.856345","299725.493063","309002.294347"
"Mixed","Both","cave","17","M_romp.wav","space","558.192187105","136","308225.865922","300491.876572","301259.048772","302025.148463","302792.21029","303559.046422","304325.570912","305092.189699","308992.465849","309759.230564","310525.107344","296676.18146","297425.386276","298192.316087","298958.856345","299725.493063","309769.162015"
"Mixed","Both","cave","17","M_cave.wav","None","720.536458422","136","308225.865922","300491.876572","301259.048772","302025.148463","302792.21029","303559.046422","304325.570912","305092.189699","308992.465849","309759.230564","310525.107344","311292.482977","297425.386276","298192.316087","298958.856345","299725.493063","310534.331415"
"Mixed","Both","cave","17","M_cling.wav","space","625.490342733","136","308225.865922","300491.876572","301259.048772","302025.148463","302792.21029","303559.046422","304325.570912","305092.189699","308992.465849","309759.230564","310525.107344","311292.482977","312041.406758","298192.316087","298958.856345","299725.493063","311301.827624"
"Mixed","Both","cave","17","M_cad.wav","None","736.267001252","136","308225.865922","300491.876572","301259.048772","302025.148463","302792.21029","303559.046422","304325.570912","305092.189699","308992.465849","309759.230564","310525.107344","311292.482977","312041.406758","312808.467657","298958.856345","299725.493063","312050.203866"
"Mixed","Both","cave","17","M_reek.wav","None","734.025831684","136","308225.865922","300491.876572","301259.048772","302025.148463","302792.21029","303559.046422","304325.570912","305092.189699","308992.465849","309759.230564","310525.107344","311292.482977","312041.406758","312808.467657","313575.086444","299725.493063","312818.4764"
"Mixed","Both","cave","17","M_reek.wav","None","734.402709291","136","308225.865922","300491.876572","301259.048772","302025.148463","302792.21029","303559.046422","304325.570912","305092.189699","308992.465849","309759.230564","310525.107344","311292.482977","312041.406758","312808.467657","313575.086444","314358.183654","313584.640708"
"Mixed","Both","cave","17","F_depth.wav","None","721.186332754","136","308225.865922","315125.670589","301259.048772","302025.148463","302792.21029","303559.046422","304325.570912","305092.189699","308992.465849","309759.230564","310525.107344","311292.482977","312041.406758","312808.467657","313575.086444","314358.183654","314367.029302"
"Mixed","Both","cave","17","F_depth.wav","None","719.743747963","136","308225.865922","315125.670589","315892.035238","302025.148463","302792.21029","303559.046422","304325.570912","305092.189699","308992.465849","309759.230564","310525.107344","311292.482977","312041.406758","312808.467657","313575.086444","314358.183654","315135.127774"
"Mixed","Both","cave","17","F_cave.wav","None","719.18105951","136","308225.865922","315125.670589","315892.035238","316658.937533","302792.21029","303559.046422","304325.570912","305092.189699","308992.465849","309759.230564","310525.107344","311292.482977","312041.406758","312808.467657","313575.086444","314358.183654","315902.099013"
"Mixed","Both","cave","17","F_tile.wav","None","718.763062381","136","308225.865922","315125.670589","315892.035238","316658.937533","317425.392769","303559.046422","304325.570912","305092.189699","308992.465849","309759.230564","310525.107344","311292.482977","312041.406758","312808.467657","313575.086444","314358.183654","316669.019549"
"Mixed","Both","cave","17","M_priest.wav","space","83.7425707141","136","308225.865922","315125.670589","315892.035238","316658.937533","317425.392769","318175.021766","304325.570912","305092.189699","308992.465849","309759.230564","310525.107344","311292.482977","312041.406758","312808.467657","313575.086444","314358.183654","317435.399657"
"Mixed","Both","cave","17","M_cave.wav","None","734.369628131","136","308225.865922","315125.670589","315892.035238","316658.937533","317425.392769","318175.021766","318941.714753","305092.189699","308992.465849","309759.230564","310525.107344","311292.482977","312041.406758","312808.467657","313575.086444","314358.183654","318184.38218"
"Mixed","Both","cave","17","F_gnash.wav","space","471.89711337","136","308225.865922","315125.670589","315892.035238","316658.937533","317425.392769","318175.021766","318941.714753","319708.56789","308992.465849","309759.230564","310525.107344","311292.482977","312041.406758","312808.467657","313575.086444","314358.183654","318951.179358"
"Mixed","Both","ball","5","M_knife.wav","None","730.973710655","136","322841.900935","315125.670589","315892.035238","316658.937533","317425.392769","318175.021766","318941.714753","319708.56789","308992.465849","309759.230564","310525.107344","311292.482977","312041.406758","312808.467657","313575.086444","314358.183654","319718.19821"
"Mixed","Both","ball","5","M_priest.wav","None","721.393167158","136","322841.900935","315125.670589","315892.035238","316658.937533","317425.392769","318175.021766","318941.714753","319708.56789","323608.49406","309759.230564","310525.107344","311292.482977","312041.406758","312808.467657","313575.086444","314358.183654","322852.087141"
"Mixed","Both","ball","5","F_ball.wav","None","721.386983758","136","322841.900935","315125.670589","315892.035238","316658.937533","317425.392769","318175.021766","318941.714753","319708.56789","323608.49406","324375.281344","310525.107344","311292.482977","312041.406758","312808.467657","313575.086444","314358.183654","323618.039668"
"Mixed","Both","ball","5","M_jaw.wav","space","517.93059276","136","322841.900935","315125.670589","315892.035238","316658.937533","317425.392769","318175.021766","318941.714753","319708.56789","323608.49406","324375.281344","325142.184876","311292.482977","312041.406758","312808.467657","313575.086444","314358.183654","324384.997922"
"Mixed","Both","ball","5","M_cave.wav","None","719.207648188","136","322841.900935","315125.670589","315892.035238","316658.937533","317425.392769","318175.021766","318941.714753","319708.56789","323608.49406","324375.281344","325142.184876","325908.717095","312041.406758","312808.467657","313575.086444","314358.183654","325151.772221"
"Mixed","Both","ball","5","F_jaw.wav","None","719.311838271","136","322841.900935","315125.670589","315892.035238","316658.937533","317425.392769","318175.021766","318941.714753","319708.56789","323608.49406","324375.281344","325142.184876","325908.717095","326675.180679","312808.467657","313575.086444","314358.183654","325918.350816"
"Mixed","Both","ball","5","M_cling.wav","None","719.422211754","136","322841.900935","315125.670589","315892.035238","316658.937533","317425.392769","318175.021766","318941.714753","319708.56789","323608.49406","324375.281344","325142.184876","325908.717095","326675.180679","327441.776587","313575.086444","314358.183654","326684.978878"
"Mixed","Both","ball","5","M_priest.wav","None","719.606476719","136","322841.900935","315125.670589","315892.035238","316658.937533","317425.392769","318175.021766","318941.714753","319708.56789","323608.49406","324375.281344","325142.184876","325908.717095","326675.180679","327441.776587","328208.667752","314358.183654","327451.300243"
"Mixed","Both","ball","5","F_ball.wav","None","719.360686955","136","322841.900935","315125.670589","315892.035238","316658.937533","317425.392769","318175.021766","318941.714753","319708.56789","323608.49406","324375.281344","325142.184876","325908.717095","326675.180679","327441.776587","328208.667752","328975.251911","328218.057228"
"Mixed","Both","ball","5","F_romp.wav","space","510.142304469","136","322841.900935","329724.501557","315892.035238","316658.937533","317425.392769","318175.021766","318941.714753","319708.56789","323608.49406","324375.281344","325142.184876","325908.717095","326675.180679","327441.776587","328208.667752","328975.251911","328984.647262"
"Mixed","Both","ball","5","F_park.wav","None","735.194801469","136","322841.900935","329724.501557","330491.238756","316658.937533","317425.392769","318175.021766","318941.714753","319708.56789","323608.49406","324375.281344","325142.184876","325908.717095","326675.180679","327441.776587","328208.667752","328975.251911","329733.961524"
"Mixed","Both","ball","5","M_ball.wav","None","735.431006993","136","322841.900935","329724.501557","330491.238756","331257.880421","317425.392769","318175.021766","318941.714753","319708.56789","323608.49406","324375.281344","325142.184876","325908.717095","326675.180679","327441.776587","328208.667752","328975.251911","330500.366366"
"Mixed","Both","ball","5","F_romp.wav","space","627.025678405","136","322841.900935","329724.501557","330491.238756","331257.880421","332024.528888","318175.021766","318941.714753","319708.56789","323608.49406","324375.281344","325142.184876","325908.717095","326675.180679","327441.776587","328208.667752","328975.251911","331267.630389"
"Mixed","Both","ball","5","M_ball.wav","None","734.210405964","136","322841.900935","329724.501557","330491.238756","331257.880421","332024.528888","332791.189103","318941.714753","319708.56789","323608.49406","324375.281344","325142.184876","325908.717095","326675.180679","327441.776587","328208.667752","328975.251911","332033.866424"
"Mixed","Both","ball","5","F_tile.wav","space","638.457219698","136","322841.900935","329724.501557","330491.238756","331257.880421","332024.528888","332791.189103","333558.158488","319708.56789","323608.49406","324375.281344","325142.184876","325908.717095","326675.180679","327441.776587","328208.667752","328975.251911","332800.213141"
"Mixed","Both","ball","5","F_knife.wav","None","732.844186015","136","322841.900935","329724.501557","330491.238756","331257.880421","332024.528888","332791.189103","333558.158488","334324.645568","323608.49406","324375.281344","325142.184876","325908.717095","326675.180679","327441.776587","328208.667752","328975.251911","333567.27033"
"Mixed","Both","ball","12","F_reek.wav","None","732.660539332","136","337458.527698","329724.501557","330491.238756","331257.880421","332024.528888","332791.189103","333558.158488","334324.645568","323608.49406","324375.281344","325142.184876","325908.717095","326675.180679","327441.776587","328208.667752","328975.251911","334334.141399"
"Mixed","Both","ball","12","M_ball.wav","None","721.986772493","136","337458.527698","329724.501557","330491.238756","331257.880421","332024.528888","332791.189103","333558.158488","334324.645568","338224.862667","324375.281344","325142.184876","325908.717095","326675.180679","327441.776587","328208.667752","328975.251911","337467.817004"
"Mixed","Both","ball","12","F_knife.wav","space","524.592885631","136","337458.527698","329724.501557","330491.238756","331257.880421","332024.528888","332791.189103","333558.158488","334324.645568","338224.862667","338991.51237","325142.184876","325908.717095","326675.180679","327441.776587","328208.667752","328975.251911","338233.913603"
"Mixed","Both","ball","12","M_depth.wav","None","720.500285621","136","337458.527698","329724.501557","330491.238756","331257.880421","332024.528888","332791.189103","333558.158488","334324.645568","338224.862667","338991.51237","339758.461659","325908.717095","326675.180679","327441.776587","328208.667752","328975.251911","339000.686356"
"Mixed","Both","ball","12","M_priest.wav","None","719.59039988","136","337458.527698","329724.501557","330491.238756","331257.880421","332024.528888","332791.189103","333558.158488","334324.645568","338224.862667","338991.51237","339758.461659","340524.919678","326675.180679","327441.776587","328208.667752","328975.251911","339768.00603"
"Mixed","Both","ball","12","F_ball.wav","None","719.780229963","136","337458.527698","329724.501557","330491.238756","331257.880421","332024.528888","332791.189103","333558.158488","334324.645568","338224.862667","338991.51237","339758.461659","340524.919678","341291.456534","327441.776587","328208.667752","328975.251911","340534.541032"
"Mixed","Both","ball","12","F_park.wav","space","439.937646734","136","337458.527698","329724.501557","330491.238756","331257.880421","332024.528888","332791.189103","333558.158488","334324.645568","338224.862667","338991.51237","339758.461659","340524.919678","341291.456534","342041.296075","328208.667752","328975.251911","341301.534532"
"Mixed","Both","ball","12","M_cling.wav","None","735.716988682","136","337458.527698","329724.501557","330491.238756","331257.880421","332024.528888","332791.189103","333558.158488","334324.645568","338224.862667","338991.51237","339758.461659","340524.919678","341291.456534","342041.296075","342808.165599","328975.251911","342050.601767"
"Mixed","Both","ball","12","F_jolt.wav","None","735.544162919","136","337458.527698","329724.501557","330491.238756","331257.880421","332024.528888","332791.189103","333558.158488","334324.645568","338224.862667","338991.51237","339758.461659","340524.919678","341291.456534","342041.296075","342808.165599","343574.186142","342817.452431"
"Mixed","Both","ball","12","F_ball.wav","None","736.454667058","136","337458.527698","344358.324945","330491.238756","331257.880421","332024.528888","332791.189103","333558.158488","334324.645568","338224.862667","338991.51237","339758.461659","340524.919678","341291.456534","342041.296075","342808.165599","343574.186142","343583.284072"
"Mixed","Both","ball","12","F_bluff.wav","space","566.45319541","136","337458.527698","344358.324945","345107.460198","331257.880421","332024.528888","332791.189103","333558.158488","334324.645568","338224.862667","338991.51237","339758.461659","340524.919678","341291.456534","342041.296075","342808.165599","343574.186142","344367.839944"
"Mixed","Both","ball","12","M_jaw.wav","None","734.812977142","136","337458.527698","344358.324945","345107.460198","345890.553698","332024.528888","332791.189103","333558.158488","334324.645568","338224.862667","338991.51237","339758.461659","340524.919678","341291.456534","342041.296075","342808.165599","343574.186142","345116.88863"
"Mixed","Both","ball","12","M_tile.wav","None","722.676529549","136","337458.527698","344358.324945","345107.460198","345890.553698","346658.085771","332791.189103","333558.158488","334324.645568","338224.862667","338991.51237","339758.461659","340524.919678","341291.456534","342041.296075","342808.165599","343574.186142","345899.318034"
"Mixed","Both","ball","12","M_greet.wav","None","721.097910195","136","337458.527698","344358.324945","345107.460198","345890.553698","346658.085771","347424.693118","333558.158488","334324.645568","338224.862667","338991.51237","339758.461659","340524.919678","341291.456534","342041.296075","342808.165599","343574.186142","346667.690739"
"Mixed","Both","ball","12","M_ball.wav","None","721.263315994","136","337458.527698","344358.324945","345107.460198","345890.553698","346658.085771","347424.693118","348191.274186","334324.645568","338224.862667","338991.51237","339758.461659","340524.919678","341291.456534","342041.296075","342808.165599","343574.186142","347434.431648"
"Mixed","Both","ball","12","F_dime.wav","space","428.789304686","136","337458.527698","344358.324945","345107.460198","345890.553698","346658.085771","347424.693118","348191.274186","348957.71922","338224.862667","338991.51237","339758.461659","340524.919678","341291.456534","342041.296075","342808.165599","343574.186142","348201.396086"
"Mixed","Both","ball","2","F_done.wav","None","720.682386542","136","352074.387412","344358.324945","345107.460198","345890.553698","346658.085771","347424.693118","348191.274186","348957.71922","338224.862667","338991.51237","339758.461659","340524.919678","341291.456534","342041.296075","342808.165599","343574.186142","348967.223089"
"Mixed","Both","ball","2","M_romp.wav","None","721.361940959","136","352074.387412","344358.324945","345107.460198","345890.553698","346658.085771","347424.693118","348191.274186","348957.71922","352840.673841","338991.51237","339758.461659","340524.919678","341291.456534","342041.296075","342808.165599","343574.186142","352084.033499"
"Mixed","Both","ball","2","F_cling.wav","None","721.284030238","136","352074.387412","344358.324945","345107.460198","345890.553698","346658.085771","347424.693118","348191.274186","348957.71922","352840.673841","353607.919623","339758.461659","340524.919678","341291.456534","342041.296075","342808.165599","343574.186142","352850.377743"
"Mixed","Both","ball","2","M_ball.wav","None","720.644049463","136","352074.387412","344358.324945","345107.460198","345890.553698","346658.085771","347424.693118","348191.274186","348957.71922","352840.673841","353607.919623","354374.507802","340524.919678","341291.456534","342041.296075","342808.165599","343574.186142","353617.788931"
"Mixed","Both","ball","2","F_done.wav","space","477.801631903","136","352074.387412","344358.324945","345107.460198","345890.553698","346658.085771","347424.693118","348191.274186","348957.71922","352840.673841","353607.919623","354374.507802","355141.406696","341291.456534","342041.296075","342808.165599","343574.186142","354384.229327"
"Mixed","Both","ball","2","F_lash.wav","None","719.73230876","136","352074.387412","344358.324945","345107.460198","345890.553698","346658.085771","347424.693118","348191.274186","348957.71922","352840.673841","353607.919623","354374.507802","355141.406696","355907.81803","342041.296075","342808.165599","343574.186142","355150.820907"
"Mixed","Both","ball","2","F_priest.wav","None","720.169474371","136","352074.387412","344358.324945","345107.460198","345890.553698","346658.085771","347424.693118","348191.274186","348957.71922","352840.673841","353607.919623","354374.507802","355141.406696","355907.81803","356675.002906","342808.165599","343574.186142","355917.170407"
"Mixed","Both","ball","2","M_gnash.wav","None","719.146123389","136","352074.387412","344358.324945","345107.460198","345890.553698","346658.085771","347424.693118","348191.274186","348957.71922","352840.673841","353607.919623","354374.507802","355141.406696","355907.81803","356675.002906","357440.990987","343574.186142","356684.75844"
"Mixed","Both","ball","2","M_lash.wav","None","719.70170096","136","352074.387412","344358.324945","345107.460198","345890.553698","346658.085771","347424.693118","348191.274186","348957.71922","352840.673841","353607.919623","354374.507802","355141.406696","355907.81803","356675.002906","357440.990987","358207.751373","357451.058782"
"Mixed","Both","ball","2","M_cave.wav","None","719.628118677","136","352074.387412","358974.145703","345107.460198","345890.553698","346658.085771","347424.693118","348191.274186","348957.71922","352840.673841","353607.919623","354374.507802","355141.406696","355907.81803","356675.002906","357440.990987","358207.751373","358217.395915"
"Mixed","Both","ball","2","F_ball.wav","None","719.304108992","136","352074.387412","358974.145703","359741.219896","345890.553698","346658.085771","347424.693118","348191.274186","348957.71922","352840.673841","353607.919623","354374.507802","355141.406696","355907.81803","356675.002906","357440.990987","358207.751373","358984.198348"
"Mixed","Both","ball","2","M_done.wav","space","494.560163119","136","352074.387412","358974.145703","359741.219896","360507.646379","346658.085771","347424.693118","348191.274186","348957.71922","352840.673841","353607.919623","354374.507802","355141.406696","355907.81803","356675.002906","357440.990987","358207.751373","359751.306241"
"Mixed","Both","ball","2","M_ball.wav","None","718.878073501","136","352074.387412","358974.145703","359741.219896","360507.646379","361274.181381","347424.693118","348191.274186","348957.71922","352840.673841","353607.919623","354374.507802","355141.406696","355907.81803","356675.002906","357440.990987","358207.751373","360517.438704"
"Mixed","Both","ball","2","F_gnash.wav","space","529.91245559","136","352074.387412","358974.145703","359741.219896","360507.646379","361274.181381","362023.632914","348191.274186","348957.71922","352840.673841","353607.919623","354374.507802","355141.406696","355907.81803","356675.002906","357440.990987","358207.751373","361283.908162"
"Mixed","Both","ball","2","F_ball.wav","None","734.566259896","136","352074.387412","358974.145703","359741.219896","360507.646379","361274.181381","362023.632914","362790.264686","348957.71922","352840.673841","353607.919623","354374.507802","355141.406696","355907.81803","356675.002906","357440.990987","358207.751373","362033.24623"
"Mixed","Both","ball","2","M_jolt.wav","space","566.45814213","136","352074.387412","358974.145703","359741.219896","360507.646379","361274.181381","362023.632914","362790.264686","363557.261278","352840.673841","353607.919623","354374.507802","355141.406696","355907.81803","356675.002906","357440.990987","358207.751373","362799.291507"
"Mixed","Both","tile","27","F_knife.wav","None","733.561459114","136","366690.768385","358974.145703","359741.219896","360507.646379","361274.181381","362023.632914","362790.264686","363557.261278","352840.673841","353607.919623","354374.507802","355141.406696","355907.81803","356675.002906","357440.990987","358207.751373","363566.26151"
"Mixed","Both","tile","27","F_gnash.wav","None","721.85661213","136","366690.768385","358974.145703","359741.219896","360507.646379","361274.181381","362023.632914","362790.264686","363557.261278","367457.593388","353607.919623","354374.507802","355141.406696","355907.81803","356675.002906","357440.990987","358207.751373","366700.608631"
"Mixed","Both","tile","27","M_tile.wav","None","721.569084562","136","366690.768385","358974.145703","359741.219896","360507.646379","361274.181381","362023.632914","362790.264686","363557.261278","367457.593388","368223.980916","354374.507802","355141.406696","355907.81803","356675.002906","357440.990987","358207.751373","367467.687462"
"Mixed","Both","tile","27","M_dime.wav","space","435.891236644","136","366690.768385","358974.145703","359741.219896","360507.646379","361274.181381","362023.632914","362790.264686","363557.261278","367457.593388","368223.980916","368990.738828","355141.406696","355907.81803","356675.002906","357440.990987","358207.751373","368233.736449"
"Mixed","Both","tile","27","F_priest.wav","None","720.221414813","136","366690.768385","358974.145703","359741.219896","360507.646379","361274.181381","362023.632914","362790.264686","363557.261278","367457.593388","368223.980916","368990.738828","369757.375238","355907.81803","356675.002906","357440.990987","358207.751373","369000.723147"
"Mixed","Both","tile","27","F_dime.wav","None","721.244147397","136","366690.768385","358974.145703","359741.219896","360507.646379","361274.181381","362023.632914","362790.264686","363557.261278","367457.593388","368223.980916","368990.738828","369757.375238","370523.99557","356675.002906","357440.990987","358207.751373","369766.968766"
"Mixed","Both","tile","27","F_cave.wav","None","721.661835327","136","366690.768385","358974.145703","359741.219896","360507.646379","361274.181381","362023.632914","362790.264686","363557.261278","367457.593388","368223.980916","368990.738828","369757.375238","370523.99557","371291.187557","357440.990987","358207.751373","370533.490165"
"Mixed","Both","tile","27","M_dime.wav","None","720.760915545","136","366690.768385","358974.145703","359741.219896","360507.646379","361274.181381","362023.632914","362790.264686","363557.261278","367457.593388","368223.980916","368990.738828","369757.375238","370523.99557","371291.187557","372057.399167","358207.751373","371301.272974"
"Mixed","Both","tile","27","F_tile.wav","None","721.821366809","136","366690.768385","358974.145703","359741.219896","360507.646379","361274.181381","362023.632914","362790.264686","363557.261278","367457.593388","368223.980916","368990.738828","369757.375238","370523.99557","371291.187557","372057.399167","372823.390958","372067.324435"
"Mixed","Both","tile","27","M_jaw.wav","space","620.376370498","136","366690.768385","373590.400535","359741.219896","360507.646379","361274.181381","362023.632914","362790.264686","363557.261278","367457.593388","368223.980916","368990.738828","369757.375238","370523.99557","371291.187557","372057.399167","372823.390958","372833.087131"
"Mixed","Both","tile","27","M_jaw.wav","None","721.223433036","136","366690.768385","373590.400535","374357.24316","360507.646379","361274.181381","362023.632914","362790.264686","363557.261278","367457.593388","368223.980916","368990.738828","369757.375238","370523.99557","371291.187557","372057.399167","372823.390958","373600.308489"
"Mixed","Both","tile","27","M_jolt.wav","None","721.098837792","136","366690.768385","373590.400535","374357.24316","375123.667789","361274.181381","362023.632914","362790.264686","363557.261278","367457.593388","368223.980916","368990.738828","369757.375238","370523.99557","371291.187557","372057.399167","372823.390958","374367.05218"
"Mixed","Both","tile","27","M_tile.wav","None","722.068702453","136","366690.768385","373590.400535","374357.24316","375123.667789","375890.427866","362023.632914","362790.264686","363557.261278","367457.593388","368223.980916","368990.738828","369757.375238","370523.99557","371291.187557","372057.399167","372823.390958","375133.176605"
"Mixed","Both","tile","27","M_cling.wav","space","480.780789047","136","366690.768385","373590.400535","374357.24316","375123.667789","375890.427866","376657.089009","362790.264686","363557.261278","367457.593388","368223.980916","368990.738828","369757.375238","370523.99557","371291.187557","372057.399167","372823.390958","375900.5813"
"Mixed","Both","tile","27","F_tile.wav","None","720.258824294","136","366690.768385","373590.400535","374357.24316","375123.667789","375890.427866","376657.089009","377423.695429","363557.261278","367457.593388","368223.980916","368990.738828","369757.375238","370523.99557","371291.187557","372057.399167","372823.390958","376667.0353"
"Mixed","Both","tile","27","F_cad.wav","space","652.136422927","136","366690.768385","373590.400535","374357.24316","375123.667789","375890.427866","376657.089009","377423.695429","378190.026997","367457.593388","368223.980916","368990.738828","369757.375238","370523.99557","371291.187557","372057.399167","372823.390958","377433.167763"
"Mixed","Both","tile","26","M_depth.wav","None","720.302107977","136","381323.629946","373590.400535","374357.24316","375123.667789","375890.427866","376657.089009","377423.695429","378190.026997","367457.593388","368223.980916","368990.738828","369757.375238","370523.99557","371291.187557","372057.399167","372823.390958","378199.188616"
"Mixed","Both","tile","26","M_dime.wav","None","721.610204084","136","381323.629946","373590.400535","374357.24316","375123.667789","375890.427866","376657.089009","377423.695429","378190.026997","382090.369927","368223.980916","368990.738828","369757.375238","370523.99557","371291.187557","372057.399167","372823.390958","381333.367857"
"Mixed","Both","tile","26","F_priest.wav","None","721.97409661","136","381323.629946","373590.400535","374357.24316","375123.667789","375890.427866","376657.089009","377423.695429","378190.026997","382090.369927","382856.977893","368990.738828","369757.375238","370523.99557","371291.187557","372057.399167","372823.390958","382100.038275"
"Mixed","Both","tile","26","M_tile.wav","None","721.906079329","136","381323.629946","373590.400535","374357.24316","375123.667789","375890.427866","376657.089009","377423.695429","378190.026997","382090.369927","382856.977893","383623.004311","369757.375238","370523.99557","371291.187557","372057.399167","372823.390958","382866.499076"
"Mixed","Both","tile","26","M_dime.wav","space","509.145233082","136","381323.629946","373590.400535","374357.24316","375123.667789","375890.427866","376657.089009","377423.695429","378190.026997","382090.369927","382856.977893","383623.004311","384389.60733","370523.99557","371291.187557","372057.399167","372823.390958","383631.95755"
"Mixed","Both","tile","26","F_bluff.wav","None","722.501230543","136","381323.629946","373590.400535","374357.24316","375123.667789","375890.427866","376657.089009","377423.695429","378190.026997","382090.369927","382856.977893","383623.004311","384389.60733","385156.776438","371291.187557","372057.399167","372823.390958","384398.527178"
"Mixed","Both","tile","26","F_tile.wav","None","721.531674964","136","381323.629946","373590.400535","374357.24316","375123.667789","375890.427866","376657.089009","377423.695429","378190.026997","382090.369927","382856.977893","383623.004311","384389.60733","385156.776438","385923.059158","372057.399167","372823.390958","385166.631215"
"Mixed","Both","tile","26","F_park.wav","space","545.023422688","136","381323.629946","373590.400535","374357.24316","375123.667789","375890.427866","376657.089009","377423.695429","378190.026997","382090.369927","382856.977893","383623.004311","384389.60733","385156.776438","385923.059158","386690.272168","372823.390958","385932.055062"
