"Condition","Talker","Target","Trial","current_stimulus","response_response","response_time_response","subject_nr","time_Audio1","time_Audio10","time_Audio11","time_Audio12","time_Audio13","time_Audio14","time_Audio15","time_Audio16","time_Audio2","time_Audio3","time_Audio4","time_Audio5","time_Audio6","time_Audio7","time_Audio8","time_Audio9","time_response"
"Mixed","Female","cave","21","M_bluff.wav","NA","NA","240","239606.596069","NA","NA","NA","NA","NA","NA","NA","NA","NA","NA","NA","NA","NA","NA","NA","NA"
"Mixed","Female","cave","21","F_cave.wav","None","717.285232386","240","239606.596069","NA","NA","NA","NA","NA","NA","NA","240356.056877","NA","NA","NA","NA","NA","NA","NA","239619.93364"
"Mixed","Female","cave","21","M_tile.wav","space","540.853654034","240","239606.596069","NA","NA","NA","NA","NA","NA","NA","240356.056877","241123.115303","NA","NA","NA","NA","NA","NA","240365.543743"
"Mixed","Female","cave","21","F_cave.wav","None","733.513537911","240","239606.596069","NA","NA","NA","NA","NA","NA","NA","240356.056877","241123.115303","241889.467276","NA","NA","NA","NA","NA","241132.462424"
"Mixed","Female","cave","21","M_done.wav","space","303.880200488","240","239606.596069","NA","NA","NA","NA","NA","NA","NA","240356.056877","241123.115303","241889.467276","242656.361533","NA","NA","NA","NA","241898.483276"
"Mixed","Female","cave","21","F_tile.wav","None","728.61011012","240","239606.596069","NA","NA","NA","NA","NA","NA","NA","240356.056877","241123.115303","241889.467276","242656.361533","243422.999797","NA","NA","NA","242665.90714"
"Mixed","Female","cave","21","M_cling.wav","None","726.649666438","240","239606.596069","NA","NA","NA","NA","NA","NA","NA","240356.056877","241123.115303","241889.467276","242656.361533","243422.999797","244190.329055","NA","NA","243432.267461"
"Mixed","Female","cave","21","F_cave.wav","None","723.282501684","240","239606.596069","NA","NA","NA","NA","NA","NA","NA","240356.056877","241123.115303","241889.467276","242656.361533","243422.999797","244190.329055","244956.734515","NA","244200.202382"
"Mixed","Female","cave","21","F_depth.wav","space","315.731593873","240","239606.596069","NA","NA","NA","NA","NA","NA","NA","240356.056877","241123.115303","241889.467276","242656.361533","243422.999797","244190.329055","244956.734515","245722.992501","244966.502415"
"Mixed","Female","cave","21","F_park.wav","None","720.708665904","240","239606.596069","246473.125753","NA","NA","NA","NA","NA","NA","240356.056877","241123.115303","241889.467276","242656.361533","243422.999797","244190.329055","244956.734515","245722.992501","245732.211935"
"Mixed","Female","cave","21","F_cave.wav","None","734.919640585","240","239606.596069","246473.125753","247239.548835","NA","NA","NA","NA","NA","240356.056877","241123.115303","241889.467276","242656.361533","243422.999797","244190.329055","244956.734515","245722.992501","246482.389398"
"Mixed","Female","cave","21","M_priest.wav","space","409.380263533","240","239606.596069","246473.125753","247239.548835","248006.252953","NA","NA","NA","NA","240356.056877","241123.115303","241889.467276","242656.361533","243422.999797","244190.329055","244956.734515","245722.992501","247248.837832"
"Mixed","Female","cave","21","F_jaw.wav","None","730.910949293","240","239606.596069","246473.125753","247239.548835","248006.252953","248773.331783","NA","NA","NA","240356.056877","241123.115303","241889.467276","242656.361533","243422.999797","244190.329055","244956.734515","245722.992501","248015.299251"
"Mixed","Female","cave","21","M_ball.wav","None","728.405439877","240","239606.596069","246473.125753","247239.548835","248006.252953","248773.331783","249539.912542","NA","NA","240356.056877","241123.115303","241889.467276","242656.361533","243422.999797","244190.329055","244956.734515","245722.992501","248783.031976"
"Mixed","Female","cave","21","M_park.wav","None","726.957599283","240","239606.596069","246473.125753","247239.548835","248006.252953","248773.331783","249539.912542","250306.609858","NA","240356.056877","241123.115303","241889.467276","242656.361533","243422.999797","244190.329055","244956.734515","245722.992501","249549.323661"
"Mixed","Female","cave","21","M_reek.wav","None","724.899458","240","239606.596069","246473.125753","247239.548835","248006.252953","248773.331783","249539.912542","250306.609858","251073.585117","240356.056877","241123.115303","241889.467276","242656.361533","243422.999797","244190.329055","244956.734515","245722.992501","250316.233376"
"Mixed","Male","done","41","F_ball.wav","None","722.76062367","240","254206.695869","246473.125753","247239.548835","248006.252953","248773.331783","249539.912542","250306.609858","251073.585117","240356.056877","241123.115303","241889.467276","242656.361533","243422.999797","244190.329055","244956.734515","245722.992501","251083.122068"
"Mixed","Male","done","41","M_done.wav","None","721.469841083","240","254206.695869","246473.125753","247239.548835","248006.252953","248773.331783","249539.912542","250306.609858","251073.585117","254973.14554","241123.115303","241889.467276","242656.361533","243422.999797","244190.329055","244956.734515","245722.992501","254216.403172"
"Mixed","Male","done","41","F_greet.wav","space","339.418613003","240","254206.695869","246473.125753","247239.548835","248006.252953","248773.331783","249539.912542","250306.609858","251073.585117","254973.14554","255722.758769","241889.467276","242656.361533","243422.999797","244190.329055","244956.734515","245722.992501","254982.557586"
"Mixed","Male","done","41","F_jolt.wav","None","736.14889849","240","254206.695869","246473.125753","247239.548835","248006.252953","248773.331783","249539.912542","250306.609858","251073.585117","254973.14554","255722.758769","256490.207057","242656.361533","243422.999797","244190.329055","244956.734515","245722.992501","255731.942339"
"Mixed","Male","done","41","M_done.wav","None","733.128003543","240","254206.695869","246473.125753","247239.548835","248006.252953","248773.331783","249539.912542","250306.609858","251073.585117","254973.14554","255722.758769","256490.207057","257256.55161","243422.999797","244190.329055","244956.734515","245722.992501","256499.456171"
"Mixed","Male","done","41","M_cave.wav","space","367.78831284","240","254206.695869","246473.125753","247239.548835","248006.252953","248773.331783","249539.912542","250306.609858","251073.585117","254973.14554","255722.758769","256490.207057","257256.55161","258023.011175","244190.329055","244956.734515","245722.992501","257266.13741"
"Mixed","Male","done","41","M_dime.wav","None","729.547511903","240","254206.695869","246473.125753","247239.548835","248006.252953","248773.331783","249539.912542","250306.609858","251073.585117","254973.14554","255722.758769","256490.207057","257256.55161","258023.011175","258789.634908","244956.734515","245722.992501","258032.437443"
"Mixed","Male","done","41","F_bluff.wav","None","727.655704017","240","254206.695869","246473.125753","247239.548835","248006.252953","248773.331783","249539.912542","250306.609858","251073.585117","254973.14554","255722.758769","256490.207057","257256.55161","258023.011175","258789.634908","259556.320475","245722.992501","258799.054683"
"Mixed","Male","done","41","F_greet.wav","None","725.389182568","240","254206.695869","246473.125753","247239.548835","248006.252953","248773.331783","249539.912542","250306.609858","251073.585117","254973.14554","255722.758769","256490.207057","257256.55161","258023.011175","258789.634908","259556.320475","260323.46114","259565.949249"
"Mixed","Male","done","41","F_romp.wav","None","722.906551673","240","254206.695869","261089.88144","247239.548835","248006.252953","248773.331783","249539.912542","250306.609858","251073.585117","254973.14554","255722.758769","256490.207057","257256.55161","258023.011175","258789.634908","259556.320475","260323.46114","260333.373422"
"Mixed","Male","done","41","F_knife.wav","None","721.199008636","240","254206.695869","261089.88144","261856.514757","248006.252953","248773.331783","249539.912542","250306.609858","251073.585117","254973.14554","255722.758769","256490.207057","257256.55161","258023.011175","258789.634908","259556.320475","260323.46114","261099.414062"
"Mixed","Male","done","41","M_done.wav","None","718.899406143","240","254206.695869","261089.88144","261856.514757","262605.850043","248773.331783","249539.912542","250306.609858","251073.585117","254973.14554","255722.758769","256490.207057","257256.55161","258023.011175","258789.634908","259556.320475","260323.46114","261866.369843"
"Mixed","Male","done","41","M_lash.wav","space","513.777210028","240","254206.695869","261089.88144","261856.514757","262605.850043","263372.867967","249539.912542","250306.609858","251073.585117","254973.14554","255722.758769","256490.207057","257256.55161","258023.011175","258789.634908","259556.320475","260323.46114","262615.947518"
"Mixed","Male","done","41","M_done.wav","None","732.433918049","240","254206.695869","261089.88144","261856.514757","262605.850043","263372.867967","264139.474387","250306.609858","251073.585117","254973.14554","255722.758769","256490.207057","257256.55161","258023.011175","258789.634908","259556.320475","260323.46114","263382.276304"
"Mixed","Male","done","41","F_cling.wav","space","500.464990851","240","254206.695869","261089.88144","261856.514757","262605.850043","263372.867967","264139.474387","264906.338036","251073.585117","254973.14554","255722.758769","256490.207057","257256.55161","258023.011175","258789.634908","259556.320475","260323.46114","264149.207042"
"Mixed","Male","done","41","M_cave.wav","None","728.287027916","240","254206.695869","261089.88144","261856.514757","262605.850043","263372.867967","264139.474387","264906.338036","265672.840884","254973.14554","255722.758769","256490.207057","257256.55161","258023.011175","258789.634908","259556.320475","260323.46114","264915.781308"
"Mixed","Female","cave","23","M_jaw.wav","None","726.044621784","240","268806.456201","261089.88144","261856.514757","262605.850043","263372.867967","264139.474387","264906.338036","265672.840884","254973.14554","255722.758769","256490.207057","257256.55161","258023.011175","258789.634908","259556.320475","260323.46114","265682.512942"
"Mixed","Female","cave","23","F_cad.wav","None","721.241674037","240","268806.456201","261089.88144","261856.514757","262605.850043","263372.867967","264139.474387","264906.338036","265672.840884","269573.013462","255722.758769","256490.207057","257256.55161","258023.011175","258789.634908","259556.320475","260323.46114","268816.004591"
"Mixed","Female","cave","23","M_bluff.wav","None","719.296070514","240","268806.456201","261089.88144","261856.514757","262605.850043","263372.867967","264139.474387","264906.338036","265672.840884","269573.013462","270322.584026","256490.207057","257256.55161","258023.011175","258789.634908","259556.320475","260323.46114","269582.68552"
"Mixed","Female","cave","23","F_cave.wav","None","735.085664666","240","268806.456201","261089.88144","261856.514757","262605.850043","263372.867967","264139.474387","264906.338036","265672.840884","269573.013462","270322.584026","271089.311022","257256.55161","258023.011175","258789.634908","259556.320475","260323.46114","270332.026062"
"Mixed","Female","cave","23","F_bluff.wav","space","374.847579398","240","268806.456201","261089.88144","261856.514757","262605.850043","263372.867967","264139.474387","264906.338036","265672.840884","269573.013462","270322.584026","271089.311022","271855.926408","258023.011175","258789.634908","259556.320475","260323.46114","271098.701736"
"Mixed","Female","cave","23","M_dime.wav","None","731.038636295","240","268806.456201","261089.88144","261856.514757","262605.850043","263372.867967","264139.474387","264906.338036","265672.840884","269573.013462","270322.584026","271089.311022","271855.926408","272622.547359","258789.634908","259556.320475","260323.46114","271864.990329"
"Mixed","Female","cave","23","F_cave.wav","None","728.406985756","240","268806.456201","261089.88144","261856.514757","262605.850043","263372.867967","264139.474387","264906.338036","265672.840884","269573.013462","270322.584026","271089.311022","271855.926408","272622.547359","273389.095036","259556.320475","260323.46114","272632.187572"
"Mixed","Female","cave","23","M_gnash.wav","space","282.768254052","240","268806.456201","261089.88144","261856.514757","262605.850043","263372.867967","264139.474387","264906.338036","265672.840884","269573.013462","270322.584026","271089.311022","271855.926408","272622.547359","273389.095036","274156.316703","260323.46114","273398.656411"
"Mixed","Female","cave","23","F_lash.wav","None","723.943196936","240","268806.456201","261089.88144","261856.514757","262605.850043","263372.867967","264139.474387","264906.338036","265672.840884","269573.013462","270322.584026","271089.311022","271855.926408","272622.547359","273389.095036","274156.316703","274923.003198","274165.913942"
"Mixed","Female","cave","23","F_gnash.wav","None","721.688733087","240","268806.456201","275689.770386","261856.514757","262605.850043","263372.867967","264139.474387","264906.338036","265672.840884","269573.013462","270322.584026","271089.311022","271855.926408","272622.547359","273389.095036","274156.316703","274923.003198","274932.678038"
"Mixed","Female","cave","23","M_jaw.wav","None","719.514344237","240","268806.456201","275689.770386","276439.596942","262605.850043","263372.867967","264139.474387","264906.338036","265672.840884","269573.013462","270322.584026","271089.311022","271855.926408","272622.547359","273389.095036","274156.316703","274923.003198","275699.512007"
"Mixed","Female","cave","23","F_cave.wav","None","735.526849516","240","268806.456201","275689.770386","276439.596942","277205.455481","263372.867967","264139.474387","264906.338036","265672.840884","269573.013462","270322.584026","271089.311022","271855.926408","272622.547359","273389.095036","274156.316703","274923.003198","276448.892122"
"Mixed","Female","cave","23","M_cling.wav","space","289.832776412","240","268806.456201","275689.770386","276439.596942","277205.455481","277972.458256","264139.474387","264906.338036","265672.840884","269573.013462","270322.584026","271089.311022","271855.926408","272622.547359","273389.095036","274156.316703","274923.003198","277215.49916"
"Mixed","Female","cave","23","M_jolt.wav","None","731.641207589","240","268806.456201","275689.770386","276439.596942","277205.455481","277972.458256","278738.401198","264906.338036","265672.840884","269573.013462","270322.584026","271089.311022","271855.926408","272622.547359","273389.095036","274156.316703","274923.003198","277981.831965"
"Mixed","Female","cave","23","F_cave.wav","None","734.192783246","240","268806.456201","275689.770386","276439.596942","277205.455481","277972.458256","278738.401198","279505.736021","265672.840884","269573.013462","270322.584026","271089.311022","271855.926408","272622.547359","273389.095036","274156.316703","274923.003198","278747.162752"
"Mixed","Female","cave","23","M_priest.wav","space","446.462977561","240","268806.456201","275689.770386","276439.596942","277205.455481","277972.458256","278738.401198","279505.736021","280272.361919","269573.013462","270322.584026","271089.311022","271855.926408","272622.547359","273389.095036","274156.316703","274923.003198","279514.783557"
"Mixed","Male","done","37","F_gnash.wav","None","728.605781798","240","283405.95312","275689.770386","276439.596942","277205.455481","277972.458256","278738.401198","279505.736021","280272.361919","269573.013462","270322.584026","271089.311022","271855.926408","272622.547359","273389.095036","274156.316703","274923.003198","280282.015426"
"Mixed","Male","done","37","M_priest.wav","None","721.698626527","240","283405.95312","275689.770386","276439.596942","277205.455481","277972.458256","278738.401198","279505.736021","280272.361919","284172.626011","270322.584026","271089.311022","271855.926408","272622.547359","273389.095036","274156.316703","274923.003198","283415.434729"
"Mixed","Male","done","37","F_park.wav","None","719.367179554","240","283405.95312","275689.770386","276439.596942","277205.455481","277972.458256","278738.401198","279505.736021","280272.361919","284172.626011","284922.214816","271089.311022","271855.926408","272622.547359","273389.095036","274156.316703","274923.003198","284182.556844"
"Mixed","Male","done","37","M_done.wav","None","735.708022839","240","283405.95312","275689.770386","276439.596942","277205.455481","277972.458256","278738.401198","279505.736021","280272.361919","284172.626011","284922.214816","285688.810724","271855.926408","272622.547359","273389.095036","274156.316703","274923.003198","284931.516179"
"Mixed","Male","done","37","F_lash.wav","space","342.805873719","240","283405.95312","275689.770386","276439.596942","277205.455481","277972.458256","278738.401198","279505.736021","280272.361919","284172.626011","284922.214816","285688.810724","286455.519479","272622.547359","273389.095036","274156.316703","274923.003198","285698.250595"
"Mixed","Male","done","37","F_knife.wav","None","732.044982957","240","283405.95312","275689.770386","276439.596942","277205.455481","277972.458256","278738.401198","279505.736021","280272.361919","284172.626011","284922.214816","285688.810724","286455.519479","287222.162999","273389.095036","274156.316703","274923.003198","286464.535479"
"Mixed","Male","done","37","F_cave.wav","None","729.4077673","240","283405.95312","275689.770386","276439.596942","277205.455481","277972.458256","278738.401198","279505.736021","280272.361919","284172.626011","284922.214816","285688.810724","286455.519479","287222.162999","287988.934516","274156.316703","274923.003198","287232.10929"
"Mixed","Male","done","37","M_done.wav","None","727.188857971","240","283405.95312","275689.770386","276439.596942","277205.455481","277972.458256","278738.401198","279505.736021","280272.361919","284172.626011","284922.214816","285688.810724","286455.519479","287222.162999","287988.934516","288755.529187","274923.003198","287999.059197"
"Mixed","Male","done","37","F_cad.wav","space","316.468963167","240","283405.95312","275689.770386","276439.596942","277205.455481","277972.458256","278738.401198","279505.736021","280272.361919","284172.626011","284922.214816","285688.810724","286455.519479","287222.162999","287988.934516","288755.529187","289522.087067","288764.517053"
"Mixed","Male","done","37","M_done.wav","None","724.03223766","240","283405.95312","290289.065727","276439.596942","277205.455481","277972.458256","278738.401198","279505.736021","280272.361919","284172.626011","284922.214816","285688.810724","286455.519479","287222.162999","287988.934516","288755.529187","289522.087067","289531.193654"
"Mixed","Male","done","37","F_depth.wav","space","381.866653915","240","283405.95312","290289.065727","291055.386474","277205.455481","277972.458256","278738.401198","279505.736021","280272.361919","284172.626011","284922.214816","285688.810724","286455.519479","287222.162999","287988.934516","288755.529187","289522.087067","290299.055611"
"Mixed","Male","done","37","M_romp.wav","None","719.658726361","240","283405.95312","290289.065727","291055.386474","291805.005578","277972.458256","278738.401198","279505.736021","280272.361919","284172.626011","284922.214816","285688.810724","286455.519479","287222.162999","287988.934516","288755.529187","289522.087067","291064.952487"
"Mixed","Male","done","37","M_done.wav","None","734.859352582","240","283405.95312","290289.065727","291055.386474","291805.005578","292571.988257","278738.401198","279505.736021","280272.361919","284172.626011","284922.214816","285688.810724","286455.519479","287222.162999","287988.934516","288755.529187","289522.087067","291814.358572"
"Mixed","Male","done","37","M_jaw.wav","space","531.513644266","240","283405.95312","290289.065727","291055.386474","291805.005578","292571.988257","293338.305912","279505.736021","280272.361919","284172.626011","284922.214816","285688.810724","286455.519479","287222.162999","287988.934516","288755.529187","289522.087067","292581.390718"
"Mixed","Male","done","37","F_cave.wav","None","730.993806617","240","283405.95312","290289.065727","291055.386474","291805.005578","292571.988257","293338.305912","294105.155958","280272.361919","284172.626011","284922.214816","285688.810724","286455.519479","287222.162999","287988.934516","288755.529187","289522.087067","293347.417755"
"Mixed","Male","done","37","M_cave.wav","None","728.557860479","240","283405.95312","290289.065727","291055.386474","291805.005578","292571.988257","293338.305912","294105.155958","294871.925","284172.626011","284922.214816","285688.810724","286455.519479","287222.162999","287988.934516","288755.529187","289522.087067","294114.876555"
"Mixed","Female","cave","20","M_reek.wav","None","726.985733723","240","298005.353269","290289.065727","291055.386474","291805.005578","292571.988257","293338.305912","294105.155958","294871.925","284172.626011","284922.214816","285688.810724","286455.519479","287222.162999","287988.934516","288755.529187","289522.087067","294881.332718"
"Mixed","Female","cave","20","F_cave.wav","None","721.305672196","240","298005.353269","290289.065727","291055.386474","291805.005578","292571.988257","293338.305912","294105.155958","294871.925","298772.089231","284922.214816","285688.810724","286455.519479","287222.162999","287988.934516","288755.529187","289522.087067","298015.241127"
"Mixed","Female","cave","20","M_done.wav","space","426.163837546","240","298005.353269","290289.065727","291055.386474","291805.005578","292571.988257","293338.305912","294105.155958","294871.925","298772.089231","299521.367939","285688.810724","286455.519479","287222.162999","287988.934516","288755.529187","289522.087067","298782.50546"
"Mixed","Female","cave","20","M_gnash.wav","None","735.738012241","240","298005.353269","290289.065727","291055.386474","291805.005578","292571.988257","293338.305912","294105.155958","294871.925","298772.089231","299521.367939","300288.293113","286455.519479","287222.162999","287988.934516","288755.529187","289522.087067","299530.474217"
"Mixed","Female","cave","20","F_jolt.wav","None","733.178089024","240","298005.353269","290289.065727","291055.386474","291805.005578","292571.988257","293338.305912","294105.155958","294871.925","298772.089231","299521.367939","300288.293113","301055.196644","287222.162999","287988.934516","288755.529187","289522.087067","300297.84985"
"Mixed","Female","cave","20","M_jaw.wav","None","731.233412982","240","298005.353269","290289.065727","291055.386474","291805.005578","292571.988257","293338.305912","294105.155958","294871.925","298772.089231","299521.367939","300288.293113","301055.196644","301821.341783","287988.934516","288755.529187","289522.087067","301064.830056"
"Mixed","Female","cave","20","M_jolt.wav","None","730.613528285","240","298005.353269","290289.065727","291055.386474","291805.005578","292571.988257","293338.305912","294105.155958","294871.925","298772.089231","299521.367939","300288.293113","301055.196644","301821.341783","302588.21718","288755.529187","289522.087067","301830.602646"
"Mixed","Female","cave","20","F_jaw.wav","None","728.23014087","240","298005.353269","290289.065727","291055.386474","291805.005578","292571.988257","293338.305912","294105.155958","294871.925","298772.089231","299521.367939","300288.293113","301055.196644","301821.341783","302588.21718","303354.826692","289522.087067","302597.725688"
"Mixed","Female","cave","20","F_cave.wav","None","726.317309309","240","298005.353269","290289.065727","291055.386474","291805.005578","292571.988257","293338.305912","294105.155958","294871.925","298772.089231","299521.367939","300288.293113","301055.196644","301821.341783","302588.21718","303354.826692","304121.999201","303364.195455"
"Mixed","Female","cave","20","M_ball.wav","space","388.451036299","240","298005.353269","304888.643958","291055.386474","291805.005578","292571.988257","293338.305912","294105.155958","294871.925","298772.089231","299521.367939","300288.293113","301055.196644","301821.341783","302588.21718","303354.826692","304121.999201","304132.059267"
"Mixed","Female","cave","20","M_lash.wav","None","721.716249245","240","298005.353269","304888.643958","305655.253779","291805.005578","292571.988257","293338.305912","294105.155958","294871.925","298772.089231","299521.367939","300288.293113","301055.196644","301821.341783","302588.21718","303354.826692","304121.999201","304898.320653"
"Mixed","Female","cave","20","F_cave.wav","None","725.766060059","240","298005.353269","304888.643958","305655.253779","306405.080025","292571.988257","293338.305912","294105.155958","294871.925","298772.089231","299521.367939","300288.293113","301055.196644","301821.341783","302588.21718","303354.826692","304121.999201","305659.464358"
"Mixed","Female","cave","20","F_dime.wav","space","321.917456691","240","298005.353269","304888.643958","305655.253779","306405.080025","307171.491359","293338.305912","294105.155958","294871.925","298772.089231","299521.367939","300288.293113","301055.196644","301821.341783","302588.21718","303354.826692","304121.999201","306414.532882"
"Mixed","Female","cave","20","F_cave.wav","None","733.790862956","240","298005.353269","304888.643958","305655.253779","306405.080025","307171.491359","307938.335531","294105.155958","294871.925","298772.089231","299521.367939","300288.293113","301055.196644","301821.341783","302588.21718","303354.826692","304121.999201","307180.997084"
"Mixed","Female","cave","20","M_depth.wav","space","460.408994113","240","298005.353269","304888.643958","305655.253779","306405.080025","307171.491359","307938.335531","308704.65906","294871.925","298772.089231","299521.367939","300288.293113","301055.196644","301821.341783","302588.21718","303354.826692","304121.999201","307947.991202"
"Mixed","Female","cave","20","F_depth.wav","None","730.010956991","240","298005.353269","304888.643958","305655.253779","306405.080025","307171.491359","307938.335531","308704.65906","309471.519927","298772.089231","299521.367939","300288.293113","301055.196644","301821.341783","302588.21718","303354.826692","304121.999201","308713.907247"
"Mixed","Female","ball","10","M_jolt.wav","None","727.955598268","240","312605.116693","304888.643958","305655.253779","306405.080025","307171.491359","307938.335531","308704.65906","309471.519927","298772.089231","299521.367939","300288.293113","301055.196644","301821.341783","302588.21718","303354.826692","304121.999201","309481.100161"
"Mixed","Female","ball","10","M_park.wav","None","721.253731637","240","312605.116693","304888.643958","305655.253779","306405.080025","307171.491359","307938.335531","308704.65906","309471.519927","313371.714456","299521.367939","300288.293113","301055.196644","301821.341783","302588.21718","303354.826692","304121.999201","312614.709294"
"Mixed","Female","ball","10","F_cling.wav","None","719.353885273","240","312605.116693","304888.643958","305655.253779","306405.080025","307171.491359","307938.335531","308704.65906","309471.519927","313371.714456","314121.27389","300288.293113","301055.196644","301821.341783","302588.21718","303354.826692","304121.999201","313381.691973"
"Mixed","Female","ball","10","F_ball.wav","None","735.20067567","240","312605.116693","304888.643958","305655.253779","306405.080025","307171.491359","307938.335531","308704.65906","309471.519927","313371.714456","314121.27389","314887.547025","301055.196644","301821.341783","302588.21718","303354.826692","304121.999201","314130.788889"
"Mixed","Female","ball","10","M_jolt.wav","space","519.759020885","240","312605.116693","304888.643958","305655.253779","306405.080025","307171.491359","307938.335531","308704.65906","309471.519927","313371.714456","314121.27389","314887.547025","315654.209095","301821.341783","302588.21718","303354.826692","304121.999201","314896.43441"
"Mixed","Female","ball","10","M_done.wav","None","732.617564849","240","312605.116693","304888.643958","305655.253779","306405.080025","307171.491359","307938.335531","308704.65906","309471.519927","313371.714456","314121.27389","314887.547025","315654.209095","316421.228256","302588.21718","303354.826692","304121.999201","315663.203762"
"Mixed","Female","ball","10","F_ball.wav","None","730.495116324","240","312605.116693","304888.643958","305655.253779","306405.080025","307171.491359","307938.335531","308704.65906","309471.519927","313371.714456","314121.27389","314887.547025","315654.209095","316421.228256","317187.785209","303354.826692","304121.999201","316430.302689"
"Mixed","Female","ball","10","M_reek.wav","space","338.812331669","240","312605.116693","304888.643958","305655.253779","306405.080025","307171.491359","307938.335531","308704.65906","309471.519927","313371.714456","314121.27389","314887.547025","315654.209095","316421.228256","317187.785209","317954.65535","304121.999201","317197.286296"
"Mixed","Female","ball","10","F_jolt.wav","None","727.25409281","240","312605.116693","304888.643958","305655.253779","306405.080025","307171.491359","307938.335531","308704.65906","309471.519927","313371.714456","314121.27389","314887.547025","315654.209095","316421.228256","317187.785209","317954.65535","318721.244148","317963.412576"
"Mixed","Female","ball","10","F_cling.wav","None","724.288539146","240","312605.116693","319488.138095","305655.253779","306405.080025","307171.491359","307938.335531","308704.65906","309471.519927","313371.714456","314121.27389","314887.547025","315654.209095","316421.228256","317187.785209","317954.65535","318721.244148","318731.239596"
"Mixed","Female","ball","10","F_ball.wav","None","723.007340916","240","312605.116693","319488.138095","320254.89137","306405.080025","307171.491359","307938.335531","308704.65906","309471.519927","313371.714456","314121.27389","314887.547025","315654.209095","316421.228256","317187.785209","317954.65535","318721.244148","319497.548286"
"Mixed","Female","ball","10","M_tile.wav","space","343.543552095","240","312605.116693","319488.138095","320254.89137","321021.491916","307171.491359","307938.335531","308704.65906","309471.519927","313371.714456","314121.27389","314887.547025","315654.209095","316421.228256","317187.785209","317954.65535","318721.244148","320264.487063"
"Mixed","Female","ball","10","F_ball.wav","None","719.702628441","240","312605.116693","319488.138095","320254.89137","321021.491916","321770.957671","307938.335531","308704.65906","309471.519927","313371.714456","314121.27389","314887.547025","315654.209095","316421.228256","317187.785209","317954.65535","318721.244148","321030.929932"
"Mixed","Female","ball","10","M_park.wav","space","427.784813102","240","312605.116693","319488.138095","320254.89137","321021.491916","321770.957671","322537.630562","308704.65906","309471.519927","313371.714456","314121.27389","314887.547025","315654.209095","316421.228256","317187.785209","317954.65535","318721.244148","321780.208331"
"Mixed","Female","ball","10","M_cad.wav","None","733.158611343","240","312605.116693","319488.138095","320254.89137","321021.491916","321770.957671","322537.630562","323304.437633","309471.519927","313371.714456","314121.27389","314887.547025","315654.209095","316421.228256","317187.785209","317954.65535","318721.244148","322547.182044"
"Mixed","Female","ball","10","F_bluff.wav","None","731.618947349","240","312605.116693","319488.138095","320254.89137","321021.491916","321770.957671","322537.630562","323304.437633","324071.086718","313371.714456","314121.27389","314887.547025","315654.209095","316421.228256","317187.785209","317954.65535","318721.244148","323314.024051"
"Mixed","Female","tile","35","M_park.wav","None","730.156884878","240","327204.692451","319488.138095","320254.89137","321021.491916","321770.957671","322537.630562","323304.437633","324071.086718","313371.714456","314121.27389","314887.547025","315654.209095","316421.228256","317187.785209","317954.65535","318721.244148","324080.441568"
"Mixed","Female","tile","35","F_jolt.wav","None","721.621334204","240","327204.692451","319488.138095","320254.89137","321021.491916","321770.957671","322537.630562","323304.437633","324071.086718","327970.968059","314121.27389","314887.547025","315654.209095","316421.228256","317187.785209","317954.65535","318721.244148","327214.220435"
"Mixed","Female","tile","35","M_reek.wav","None","720.622407622","240","327204.692451","319488.138095","320254.89137","321021.491916","321770.957671","322537.630562","323304.437633","324071.086718","327970.968059","328738.047508","314887.547025","315654.209095","316421.228256","317187.785209","317954.65535","318721.244148","327980.28148"
"Mixed","Female","tile","35","M_cave.wav","None","718.068667804","240","327204.692451","319488.138095","320254.89137","321021.491916","321770.957671","322537.630562","323304.437633","324071.086718","327970.968059","328738.047508","329487.602613","315654.209095","316421.228256","317187.785209","317954.65535","318721.244148","328748.168171"
"Mixed","Female","tile","35","M_done.wav","None","736.062640208","240","327204.692451","319488.138095","320254.89137","321021.491916","321770.957671","322537.630562","323304.437633","324071.086718","327970.968059","328738.047508","329487.602613","330253.885642","316421.228256","317187.785209","317954.65535","318721.244148","329496.540084"
"Mixed","Female","tile","35","F_gnash.wav","None","734.480620013","240","327204.692451","319488.138095","320254.89137","321021.491916","321770.957671","322537.630562","323304.437633","324071.086718","327970.968059","328738.047508","329487.602613","330253.885642","331020.868012","317187.785209","317954.65535","318721.244148","330263.441761"
"Mixed","Female","tile","35","F_tile.wav","None","732.675070292","240","327204.692451","319488.138095","320254.89137","321021.491916","321770.957671","322537.630562","323304.437633","324071.086718","327970.968059","328738.047508","329487.602613","330253.885642","331020.868012","331787.434858","317954.65535","318721.244148","331030.556146"
"Mixed","Female","tile","35","M_greet.wav","space","482.407329488","240","327204.692451","319488.138095","320254.89137","321021.491916","321770.957671","322537.630562","323304.437633","324071.086718","327970.968059","328738.047508","329487.602613","330253.885642","331020.868012","331787.434858","332554.027674","318721.244148","331797.27665"
"Mixed","Female","tile","35","F_tile.wav","b","0.0231877202168","240","327204.692451","319488.138095","320254.89137","321021.491916","321770.957671","322537.630562","323304.437633","324071.086718","327970.968059","328738.047508","329487.602613","330253.885642","331020.868012","331787.434858","332554.027674","333320.77724","332564.521195"
"Mixed","Female","tile","35","M_park.wav","space","389.297232963","240","327204.692451","334087.339139","320254.89137","321021.491916","321770.957671","322537.630562","323304.437633","324071.086718","327970.968059","328738.047508","329487.602613","330253.885642","331020.868012","331787.434858","332554.027674","333320.77724","333330.320065"
"Mixed","Female","tile","35","M_jolt.wav","None","725.854173419","240","327204.692451","334087.339139","334853.661432","321021.491916","321770.957671","322537.630562","323304.437633","324071.086718","327970.968059","328738.047508","329487.602613","330253.885642","331020.868012","331787.434858","332554.027674","333320.77724","334096.868979"
"Mixed","Female","tile","35","F_tile.wav","None","724.894202198","240","327204.692451","334087.339139","334853.661432","335621.147439","321770.957671","322537.630562","323304.437633","324071.086718","327970.968059","328738.047508","329487.602613","330253.885642","331020.868012","331787.434858","332554.027674","333320.77724","334862.856442"
"Mixed","Female","tile","35","M_reek.wav","space","367.988345562","240","327204.692451","334087.339139","334853.661432","335621.147439","336387.719541","322537.630562","323304.437633","324071.086718","327970.968059","328738.047508","329487.602613","330253.885642","331020.868012","331787.434858","332554.027674","333320.77724","335631.579436"
"Mixed","Female","tile","35","F_tile.wav","None","720.383419655","240","327204.692451","334087.339139","334853.661432","335621.147439","336387.719541","337154.275566","323304.437633","324071.086718","327970.968059","328738.047508","329487.602613","330253.885642","331020.868012","331787.434858","332554.027674","333320.77724","336397.537218"
"Mixed","Female","tile","35","F_knife.wav","space","331.584258471","240","327204.692451","334087.339139","334853.661432","335621.147439","336387.719541","337154.275566","337903.833763","324071.086718","327970.968059","328738.047508","329487.602613","330253.885642","331020.868012","331787.434858","332554.027674","333320.77724","337163.954117"
"Mixed","Female","tile","35","F_dime.wav","None","734.86368102","240","327204.692451","334087.339139","334853.661432","335621.147439","336387.719541","337154.275566","337903.833763","338670.224692","327970.968059","328738.047508","329487.602613","330253.885642","331020.868012","331787.434858","332554.027674","333320.77724","337913.291567"
"Mixed","Female","tile","31","M_cave.wav","None","734.063241165","240","341803.980681","334087.339139","334853.661432","335621.147439","336387.719541","337154.275566","337903.833763","338670.224692","327970.968059","328738.047508","329487.602613","330253.885642","331020.868012","331787.434858","332554.027674","333320.77724","338679.593455"
"Mixed","Female","tile","31","F_tile.wav","None","721.983062453","240","341803.980681","334087.339139","334853.661432","335621.147439","336387.719541","337154.275566","337903.833763","338670.224692","342570.510426","328738.047508","329487.602613","330253.885642","331020.868012","331787.434858","332554.027674","333320.77724","341813.855554"
"Mixed","Female","tile","31","F_ball.wav","space","379.591475823","240","341803.980681","334087.339139","334853.661432","335621.147439","336387.719541","337154.275566","337903.833763","338670.224692","342570.510426","343320.59483","329487.602613","330253.885642","331020.868012","331787.434858","332554.027674","333320.77724","342579.784274"
"Mixed","Female","tile","31","M_greet.wav","None","735.187999788","240","341803.980681","334087.339139","334853.661432","335621.147439","336387.719541","337154.275566","337903.833763","338670.224692","342570.510426","343320.59483","344086.9332","330253.885642","331020.868012","331787.434858","332554.027674","333320.77724","343330.15064"
"Mixed","Female","tile","31","F_priest.wav","None","734.051492764","240","341803.980681","334087.339139","334853.661432","335621.147439","336387.719541","337154.275566","337903.833763","338670.224692","342570.510426","343320.59483","344086.9332","344853.811998","331020.868012","331787.434858","332554.027674","333320.77724","344096.528893"
"Mixed","Female","tile","31","M_bluff.wav","None","733.021958498","240","341803.980681","334087.339139","334853.661432","335621.147439","336387.719541","337154.275566","337903.833763","338670.224692","342570.510426","343320.59483","344086.9332","344853.811998","345620.340816","331787.434858","332554.027674","333320.77724","344863.036996"
"Mixed","Female","tile","31","F_romp.wav","None","731.809395715","240","341803.980681","334087.339139","334853.661432","335621.147439","336387.719541","337154.275566","337903.833763","338670.224692","342570.510426","343320.59483","344086.9332","344853.811998","345620.340816","346386.917247","332554.027674","333320.77724","345629.733385"
"Mixed","Female","tile","31","F_tile.wav","None","730.060424074","240","341803.980681","334087.339139","334853.661432","335621.147439","336387.719541","337154.275566","337903.833763","338670.224692","342570.510426","343320.59483","344086.9332","344853.811998","345620.340816","346386.917247","347153.501715","333320.77724","346396.411223"
"Mixed","Female","tile","31","M_lash.wav","space","401.520557352","240","341803.980681","334087.339139","334853.661432","335621.147439","336387.719541","337154.275566","337903.833763","338670.224692","342570.510426","343320.59483","344086.9332","344853.811998","345620.340816","346386.917247","347153.501715","347920.043519","347157.703019"
"Mixed","Female","tile","31","F_cling.wav","None","727.057770127","240","341803.980681","348686.832039","334853.661432","335621.147439","336387.719541","337154.275566","337903.833763","338670.224692","342570.510426","343320.59483","344086.9332","344853.811998","345620.340816","346386.917247","347153.501715","347920.043519","347929.277793"
"Mixed","Female","tile","31","F_tile.wav","None","725.46554741","240","341803.980681","348686.832039","349454.038557","335621.147439","336387.719541","337154.275566","337903.833763","338670.224692","342570.510426","343320.59483","344086.9332","344853.811998","345620.340816","346386.917247","347153.501715","347920.043519","348696.207913"
"Mixed","Female","tile","31","M_bluff.wav","space","439.70978877","240","341803.980681","348686.832039","349454.038557","350220.482045","336387.719541","337154.275566","337903.833763","338670.224692","342570.510426","343320.59483","344086.9332","344853.811998","345620.340816","346386.917247","347153.501715","347920.043519","349463.447821"
"Mixed","Female","tile","31","M_ball.wav","None","722.662307788","240","341803.980681","348686.832039","349454.038557","350220.482045","350986.969125","337154.275566","337903.833763","338670.224692","342570.510426","343320.59483","344086.9332","344853.811998","345620.340816","346386.917247","347153.501715","347920.043519","350230.368666"
"Mixed","Female","tile","31","M_jolt.wav","None","721.38018196","240","341803.980681","348686.832039","349454.038557","350220.482045","350986.969125","351754.126794","337903.833763","338670.224692","342570.510426","343320.59483","344086.9332","344853.811998","345620.340816","346386.917247","347153.501715","347920.043519","350997.010022"
"Mixed","Female","tile","31","F_tile.wav","None","719.903588528","240","341803.980681","348686.832039","349454.038557","350220.482045","350986.969125","351754.126794","352503.468881","338670.224692","342570.510426","343320.59483","344086.9332","344853.811998","345620.340816","346386.917247","347153.501715","347920.043519","351763.62479"
"Mixed","Female","tile","31","M_jaw.wav","space","374.54181083","240","341803.980681","348686.832039","349454.038557","350220.482045","350986.969125","351754.126794","352503.468881","353270.122604","342570.510426","343320.59483","344086.9332","344853.811998","345620.340816","346386.917247","347153.501715","347920.043519","352512.531257"
"Mixed","Female","done","44","M_cave.wav","None","733.686672756","240","356403.824797","348686.832039","349454.038557","350220.482045","350986.969125","351754.126794","352503.468881","353270.122604","342570.510426","343320.59483","344086.9332","344853.811998","345620.340816","346386.917247","347153.501715","347920.043519","353279.470962"
"Mixed","Female","done","44","F_done.wav","None","721.644212725","240","356403.824797","348686.832039","349454.038557","350220.482045","350986.969125","351754.126794","352503.468881","353270.122604","357170.292709","343320.59483","344086.9332","344853.811998","345620.340816","346386.917247","347153.501715","347920.043519","356413.225404"
"Mixed","Female","done","44","M_depth.wav","space","450.77681914","240","356403.824797","348686.832039","349454.038557","350220.482045","350986.969125","351754.126794","352503.468881","353270.122604","357170.292709","357919.920778","344086.9332","344853.811998","345620.340816","346386.917247","347153.501715","347920.043519","357180.129245"
"Mixed","Female","done","44","M_knife.wav","None","735.758417402","240","356403.824797","348686.832039","349454.038557","350220.482045","350986.969125","351754.126794","352503.468881","353270.122604","357170.292709","357919.920778","358686.50803","344853.811998","345620.340816","346386.917247","347153.501715","347920.043519","357928.93987"
"Mixed","Female","done","44","F_bluff.wav","None","733.978837961","240","356403.824797","348686.832039","349454.038557","350220.482045","350986.969125","351754.126794","352503.468881","353270.122604","357170.292709","357919.920778","358686.50803","359453.382809","345620.340816","346386.917247","347153.501715","347920.043519","358695.915748"
"Mixed","Female","done","44","F_greet.wav","None","732.569643529","240","356403.824797","348686.832039","349454.038557","350220.482045","350986.969125","351754.126794","352503.468881","353270.122604","357170.292709","357919.920778","358686.50803","359453.382809","360219.917501","346386.917247","347153.501715","347920.043519","359462.380877"
"Mixed","Female","done","44","F_depth.wav","None","731.77415051","240","356403.824797","348686.832039","349454.038557","350220.482045","350986.969125","351754.126794","352503.468881","353270.122604","357170.292709","357919.920778","358686.50803","359453.382809","360219.917501","360986.537215","347153.501715","347920.043519","360229.299867"
"Mixed","Female","done","44","F_done.wav","None","730.596523965","240","356403.824797","348686.832039","349454.038557","350220.482045","350986.969125","351754.126794","352503.468881","353270.122604","357170.292709","357919.920778","358686.50803","359453.382809","360219.917501","360986.537215","361753.259883","347920.043519","360995.982652"
"Mixed","Female","done","44","M_jaw.wav","space","380.606788443","240","356403.824797","348686.832039","349454.038557","350220.482045","350986.969125","351754.126794","352503.468881","353270.122604","357170.292709","357919.920778","358686.50803","359453.382809","360219.917501","360986.537215","361753.259883","362519.922262","361762.164891"
"Mixed","Female","done","44","M_jolt.wav","None","727.610874339","240","356403.824797","363286.243319","349454.038557","350220.482045","350986.969125","351754.126794","352503.468881","353270.122604","357170.292709","357919.920778","358686.50803","359453.382809","360219.917501","360986.537215","361753.259883","362519.922262","362529.366153"
"Mixed","Female","done","44","M_dime.wav","None","727.523379377","240","356403.824797","363286.243319","364053.097074","350220.482045","350986.969125","351754.126794","352503.468881","353270.122604","357170.292709","357919.920778","358686.50803","359453.382809","360219.917501","360986.537215","361753.259883","362519.922262","363295.270449"
"Mixed","Female","done","44","M_tile.wav","None","725.758949178","240","356403.824797","363286.243319","364053.097074","364819.854987","350986.969125","351754.126794","352503.468881","353270.122604","357170.292709","357919.920778","358686.50803","359453.382809","360219.917501","360986.537215","361753.259883","362519.922262","364062.341242"
"Mixed","Female","done","44","F_done.wav","None","724.317910266","240","356403.824797","363286.243319","364053.097074","364819.854987","365586.809841","351754.126794","352503.468881","353270.122604","357170.292709","357919.920778","358686.50803","359453.382809","360219.917501","360986.537215","361753.259883","362519.922262","364829.533847"
"Mixed","Female","done","44","M_greet.wav","space","346.344627556","240","356403.824797","363286.243319","364053.097074","364819.854987","365586.809841","366353.053296","352503.468881","353270.122604","357170.292709","357919.920778","358686.50803","359453.382809","360219.917501","360986.537215","361753.259883","362519.922262","365596.339372"
"Mixed","Female","done","44","F_done.wav","None","720.765243866","240","356403.824797","363286.243319","364053.097074","364819.854987","365586.809841","366353.053296","367120.137692","353270.122604","357170.292709","357919.920778","358686.50803","359453.382809","360219.917501","360986.537215","361753.259883","362519.922262","366362.619618"
"Mixed","Female","done","44","F_lash.wav","space","348.471713485","240","356403.824797","363286.243319","364053.097074","364819.854987","365586.809841","366353.053296","367120.137692","367869.659407","357170.292709","357919.920778","358686.50803","359453.382809","360219.917501","360986.537215","361753.259883","362519.922262","367130.167768"
"Mixed","Male","ball","5","M_lash.wav","None","734.141151886","240","371003.224019","363286.243319","364053.097074","364819.854987","365586.809841","366353.053296","367120.137692","367869.659407","357170.292709","357919.920778","358686.50803","359453.382809","360219.917501","360986.537215","361753.259883","362519.922262","367879.141325"
"Mixed","Male","ball","5","F_done.wav","None","720.60231166","240","371003.224019","363286.243319","364053.097074","364819.854987","365586.809841","366353.053296","367120.137692","367869.659407","371769.995226","357919.920778","358686.50803","359453.382809","360219.917501","360986.537215","361753.259883","362519.922262","371012.7721"
"Mixed","Male","ball","5","M_bluff.wav","None","719.500431675","240","371003.224019","363286.243319","364053.097074","364819.854987","365586.809841","366353.053296","367120.137692","367869.659407","371769.995226","372519.481078","358686.50803","359453.382809","360219.917501","360986.537215","361753.259883","362519.922262","371779.455503"
"Mixed","Male","ball","5","F_done.wav","None","735.442755395","240","371003.224019","363286.243319","364053.097074","364819.854987","365586.809841","366353.053296","367120.137692","367869.659407","371769.995226","372519.481078","373286.103883","359453.382809","360219.917501","360986.537215","361753.259883","362519.922262","372528.562931"
"Mixed","Male","ball","5","F_jaw.wav","None","733.612472075","240","371003.224019","363286.243319","364053.097074","364819.854987","365586.809841","366353.053296","367120.137692","367869.659407","371769.995226","372519.481078","373286.103883","374052.450601","360219.917501","360986.537215","361753.259883","362519.922262","373295.645163"
"Mixed","Male","ball","5","F_reek.wav","None","733.180871466","240","371003.224019","363286.243319","364053.097074","364819.854987","365586.809841","366353.053296","367120.137692","367869.659407","371769.995226","372519.481078","373286.103883","374052.450601","374819.571479","360986.537215","361753.259883","362519.922262","374061.193604"
"Mixed","Male","ball","5","M_ball.wav","None","730.335894157","240","371003.224019","363286.243319","364053.097074","364819.854987","365586.809841","366353.053296","367120.137692","367869.659407","371769.995226","372519.481078","373286.103883","374052.450601","374819.571479","375586.094732","361753.259883","362519.922262","374829.556416"
"Mixed","Male","ball","5","M_greet.wav","space","362.759671523","240","371003.224019","363286.243319","364053.097074","364819.854987","365586.809841","366353.053296","367120.137692","367869.659407","371769.995226","372519.481078","373286.103883","374052.450601","374819.571479","375586.094732","376352.814926","362519.922262","375595.571395"
"Mixed","Male","ball","5","F_jolt.wav","None","727.199678891","240","371003.224019","363286.243319","364053.097074","364819.854987","365586.809841","366353.053296","367120.137692","367869.659407","371769.995226","372519.481078","373286.103883","374052.450601","374819.571479","375586.094732","376352.814926","377119.172156","376362.18338"
"Mixed","Male","ball","5","F_jolt.wav","None","726.469111512","240","371003.224019","377885.720761","364053.097074","364819.854987","365586.809841","366353.053296","367120.137692","367869.659407","371769.995226","372519.481078","373286.103883","374052.450601","374819.571479","375586.094732","376352.814926","377119.172156","377128.391589"
"Mixed","Male","ball","5","M_ball.wav","None","730.918060173","240","371003.224019","377885.720761","378652.697256","364819.854987","365586.809841","366353.053296","367120.137692","367869.659407","371769.995226","372519.481078","373286.103883","374052.450601","374819.571479","375586.094732","376352.814926","377119.172156","377889.124098"
"Mixed","Male","ball","5","F_romp.wav","space","360.175942071","240","371003.224019","377885.720761","378652.697256","379419.752899","365586.809841","366353.053296","367120.137692","367869.659407","371769.995226","372519.481078","373286.103883","374052.450601","374819.571479","375586.094732","376352.814926","377119.172156","378662.08055"
"Mixed","Male","ball","5","M_ball.wav","None","720.692279865","240","371003.224019","377885.720761","378652.697256","379419.752899","380186.512049","366353.053296","367120.137692","367869.659407","371769.995226","372519.481078","373286.103883","374052.450601","374819.571479","375586.094732","376352.814926","377119.172156","379429.360341"
"Mixed","Male","ball","5","F_greet.wav","space","481.942338636","240","371003.224019","377885.720761","378652.697256","379419.752899","380186.512049","380935.517451","367120.137692","367869.659407","371769.995226","372519.481078","373286.103883","374052.450601","374819.571479","375586.094732","376352.814926","377119.172156","380196.273766"
"Mixed","Male","ball","5","M_ball.wav","None","735.348767834","240","371003.224019","377885.720761","378652.697256","379419.752899","380186.512049","380935.517451","381702.641111","367869.659407","371769.995226","372519.481078","373286.103883","374052.450601","374819.571479","375586.094732","376352.814926","377119.172156","380944.650935"
"Mixed","Male","ball","5","M_gnash.wav","space","294.14569051","240","371003.224019","377885.720761","378652.697256","379419.752899","380186.512049","380935.517451","381702.641111","382469.304109","371769.995226","372519.481078","373286.103883","374052.450601","374819.571479","375586.094732","376352.814926","377119.172156","381712.047592"
"Mixed","Male","done","42","F_romp.wav","None","731.645226828","240","385602.927773","377885.720761","378652.697256","379419.752899","380186.512049","380935.517451","381702.641111","382469.304109","371769.995226","372519.481078","373286.103883","374052.450601","374819.571479","375586.094732","376352.814926","377119.172156","382478.72543"
"Mixed","Male","done","42","M_depth.wav","None","721.02618299","240","385602.927773","377885.720761","378652.697256","379419.752899","380186.512049","380935.517451","381702.641111","382469.304109","386369.506677","372519.481078","373286.103883","374052.450601","374819.571479","375586.094732","376352.814926","377119.172156","385612.849949"
"Mixed","Male","done","42","M_cling.wav","None","720.224506455","240","385602.927773","377885.720761","378652.697256","379419.752899","380186.512049","380935.517451","381702.641111","382469.304109","386369.506677","387135.963459","373286.103883","374052.450601","374819.571479","375586.094732","376352.814926","377119.172156","386379.306422"
"Mixed","Male","done","42","M_done.wav","None","719.505687477","240","385602.927773","377885.720761","378652.697256","379419.752899","380186.512049","380935.517451","381702.641111","382469.304109","386369.506677","387135.963459","387885.413137","374052.450601","374819.571479","375586.094732","376352.814926","377119.172156","387145.772479"
"Mixed","Male","done","42","F_romp.wav","space","375.255064806","240","385602.927773","377885.720761","378652.697256","379419.752899","380186.512049","380935.517451","381702.641111","382469.304109","386369.506677","387135.963459","387885.413137","388652.171668","374819.571479","375586.094732","376352.814926","377119.172156","387894.760567"
"Mixed","Male","done","42","F_cling.wav","None","732.743087574","240","385602.927773","377885.720761","378652.697256","379419.752899","380186.512049","380935.517451","381702.641111","382469.304109","386369.506677","387135.963459","387885.413137","388652.171668","389418.821681","375586.094732","376352.814926","377119.172156","388661.867532"
"Mixed","Male","done","42","M_done.wav","None","732.009428437","240","385602.927773","377885.720761","378652.697256","379419.752899","380186.512049","380935.517451","381702.641111","382469.304109","386369.506677","387135.963459","387885.413137","388652.171668","389418.821681","390185.449743","376352.814926","377119.172156","389427.932596"
"Mixed","Male","done","42","F_greet.wav","space","323.361896444","240","385602.927773","377885.720761","378652.697256","379419.752899","380186.512049","380935.517451","381702.641111","382469.304109","386369.506677","387135.963459","387885.413137","388652.171668","389418.821681","390185.449743","390952.484362","377119.172156","390194.545509"
"Mixed","Male","done","42","M_done.wav","None","728.133370751","240","385602.927773","377885.720761","378652.697256","379419.752899","380186.512049","380935.517451","381702.641111","382469.304109","386369.506677","387135.963459","387885.413137","388652.171668","389418.821681","390185.449743","390952.484362","391719.028639","390961.834265"
"Mixed","Male","done","42","F_greet.wav","space","333.445767988","240","385602.927773","392485.607852","378652.697256","379419.752899","380186.512049","380935.517451","381702.641111","382469.304109","386369.506677","387135.963459","387885.413137","388652.171668","389418.821681","390185.449743","390952.484362","391719.028639","391728.426463"
"Mixed","Male","done","42","M_greet.wav","None","725.138755282","240","385602.927773","392485.607852","393252.021968","379419.752899","380186.512049","380935.517451","381702.641111","382469.304109","386369.506677","387135.963459","387885.413137","388652.171668","389418.821681","390185.449743","390952.484362","391719.028639","392495.327522"
"Mixed","Male","done","42","M_done.wav","None","729.649847024","240","385602.927773","392485.607852","393252.021968","394019.52498","380186.512049","380935.517451","381702.641111","382469.304109","386369.506677","387135.963459","387885.413137","388652.171668","389418.821681","390185.449743","390952.484362","391719.028639","393256.528732"
"Mixed","Male","done","42","M_gnash.wav","space","432.566119009","240","385602.927773","392485.607852","393252.021968","394019.52498","394785.865205","380935.517451","381702.641111","382469.304109","386369.506677","387135.963459","387885.413137","388652.171668","389418.821681","390185.449743","390952.484362","391719.028639","394029.2295"
"Mixed","Male","done","42","F_cad.wav","None","720.500903903","240","385602.927773","392485.607852","393252.021968","394019.52498","394785.865205","395552.601785","381702.641111","382469.304109","386369.506677","387135.963459","387885.413137","388652.171668","389418.821681","390185.449743","390952.484362","391719.028639","394795.693702"
"Mixed","Male","done","42","F_dime.wav","None","719.577105599","240","385602.927773","392485.607852","393252.021968","394019.52498","394785.865205","395552.601785","396302.308383","382469.304109","386369.506677","387135.963459","387885.413137","388652.171668","389418.821681","390185.449743","390952.484362","391719.028639","395562.191603"
"Mixed","Male","done","42","F_cave.wav","None","736.130039208","240","385602.927773","392485.607852","393252.021968","394019.52498","394785.865205","395552.601785","396302.308383","397068.776913","386369.506677","387135.963459","387885.413137","388652.171668","389418.821681","390185.449743","390952.484362","391719.028639","396311.386217"
"Mixed","Male","done","39","F_cad.wav","None","735.840656562","240","400202.370279","392485.607852","393252.021968","394019.52498","394785.865205","395552.601785","396302.308383","397068.776913","386369.506677","387135.963459","387885.413137","388652.171668","389418.821681","390185.449743","390952.484362","391719.028639","397078.01737"
"Mixed","Male","done","39","F_greet.wav","None","721.674202126","240","400202.370279","392485.607852","393252.021968","394019.52498","394785.865205","395552.601785","396302.308383","397068.776913","400968.960931","387135.963459","387885.413137","388652.171668","389418.821681","390185.449743","390952.484362","391719.028639","400212.045119"
"Mixed","Male","done","39","M_cling.wav","None","720.654870383","240","400202.370279","392485.607852","393252.021968","394019.52498","394785.865205","395552.601785","396302.308383","397068.776913","400968.960931","401735.546636","387885.413137","388652.171668","389418.821681","390185.449743","390952.484362","391719.028639","400978.231996"
"Mixed","Male","done","39","M_done.wav","None","720.55562702","240","400202.370279","392485.607852","393252.021968","394019.52498","394785.865205","395552.601785","396302.308383","397068.776913","400968.960931","401735.546636","402502.221383","388652.171668","389418.821681","390185.449743","390952.484362","391719.028639","401744.796369"
"Mixed","Male","done","39","M_jolt.wav","space","381.489776424","240","400202.370279","392485.607852","393252.021968","394019.52498","394785.865205","395552.601785","396302.308383","397068.776913","400968.960931","401735.546636","402502.221383","403251.993216","389418.821681","390185.449743","390952.484362","391719.028639","402512.048025"
"Mixed","Male","done","39","M_done.wav","None","734.39714429","240","400202.370279","392485.607852","393252.021968","394019.52498","394785.865205","395552.601785","396302.308383","397068.776913","400968.960931","401735.546636","402502.221383","403251.993216","404018.643228","390185.449743","390952.484362","391719.028639","403261.425976"
"Mixed","Male","done","39","F_bluff.wav","space","505.38140384","240","400202.370279","392485.607852","393252.021968","394019.52498","394785.865205","395552.601785","396302.308383","397068.776913","400968.960931","401735.546636","402502.221383","403251.993216","404018.643228","404785.259542","390952.484362","391719.028639","404028.071351"
"Mixed","Male","done","39","M_greet.wav","None","731.076973258","240","400202.370279","392485.607852","393252.021968","394019.52498","394785.865205","395552.601785","396302.308383","397068.776913","400968.960931","401735.546636","402502.221383","403251.993216","404018.643228","404785.259542","405551.216706","391719.028639","404794.631705"
"Mixed","Male","done","39","M_knife.wav","None","734.113326645","240","400202.370279","392485.607852","393252.021968","394019.52498","394785.865205","395552.601785","396302.308383","397068.776913","400968.960931","401735.546636","402502.221383","403251.993216","404018.643228","404785.259542","405551.216706","406318.317178","405560.06359"
"Mixed","Male","done","39","M_done.wav","None","732.237286284","240","400202.370279","407084.918961","393252.021968","394019.52498","394785.865205","395552.601785","396302.308383","397068.776913","400968.960931","401735.546636","402502.221383","403251.993216","404018.643228","404785.259542","405551.216706","406318.317178","406327.449735"
"Mixed","Male","done","39","F_cling.wav","space","327.439532615","240","400202.370279","407084.918961","407851.681511","394019.52498","394785.865205","395552.601785","396302.308383","397068.776913","400968.960931","401735.546636","402502.221383","403251.993216","404018.643228","404785.259542","405551.216706","406318.317178","407093.910845"
"Mixed","Male","done","39","F_cave.wav","None","729.263694375","240","400202.370279","407084.918961","407851.681511","408618.547633","394785.865205","395552.601785","396302.308383","397068.776913","400968.960931","401735.546636","402502.221383","403251.993216","404018.643228","404785.259542","405551.216706","406318.317178","407860.985039"
"Mixed","Male","done","39","M_done.wav","None","727.485660696","240","400202.370279","407084.918961","407851.681511","408618.547633","409385.014927","395552.601785","396302.308383","397068.776913","400968.960931","401735.546636","402502.221383","403251.993216","404018.643228","404785.259542","405551.216706","406318.317178","408627.983485"
"Mixed","Male","done","39","F_dime.wav","space","394.896910526","240","400202.370279","407084.918961","407851.681511","408618.547633","409385.014927","410151.624747","396302.308383","397068.776913","400968.960931","401735.546636","402502.221383","403251.993216","404018.643228","404785.259542","405551.216706","406318.317178","409394.51014"
"Mixed","Male","done","39","F_cad.wav","None","725.368777406","240","400202.370279","407084.918961","407851.681511","408618.547633","409385.014927","410151.624747","410918.808078","397068.776913","400968.960931","401735.546636","402502.221383","403251.993216","404018.643228","404785.259542","405551.216706","406318.317178","410160.998457"
"Mixed","Male","done","39","F_cling.wav","None","723.357939161","240","400202.370279","407084.918961","407851.681511","408618.547633","409385.014927","410151.624747","410918.808078","411685.391619","400968.960931","401735.546636","402502.221383","403251.993216","404018.643228","404785.259542","405551.216706","406318.317178","410928.693462"
"Mixed","Female","cave","24","M_park.wav","None","722.890165751","240","414818.71106","407084.918961","407851.681511","408618.547633","409385.014927","410151.624747","410918.808078","411685.391619","400968.960931","401735.546636","402502.221383","403251.993216","404018.643228","404785.259542","405551.216706","406318.317178","411694.846949"
"Mixed","Female","cave","24","F_cave.wav","None","720.919828629","240","414818.71106","407084.918961","407851.681511","408618.547633","409385.014927","410151.624747","410918.808078","411685.391619","415585.354271","401735.546636","402502.221383","403251.993216","404018.643228","404785.259542","405551.216706","406318.317178","414828.407233"
"Mixed","Female","cave","24","M_reek.wav","space","346.120170434","240","414818.71106","407084.918961","407851.681511","408618.547633","409385.014927","410151.624747","410918.808078","411685.391619","415585.354271","416334.965954","402502.221383","403251.993216","404018.643228","404785.259542","405551.216706","406318.317178","415595.051372"
"Mixed","Female","cave","24","M_cling.wav","None","735.169449588","240","414818.71106","407084.918961","407851.681511","408618.547633","409385.014927","410151.624747","410918.808078","411685.391619","415585.354271","416334.965954","417101.219612","403251.993216","404018.643228","404785.259542","405551.216706","406318.317178","416344.561029"
"Mixed","Female","cave","24","F_cave.wav","None","735.495005036","240","414818.71106","407084.918961","407851.681511","408618.547633","409385.014927","410151.624747","410918.808078","411685.391619","415585.354271","416334.965954","417101.219612","417868.160553","404018.643228","404785.259542","405551.216706","406318.317178","417110.011773"
"Mixed","Female","cave","24","M_reek.wav","space","455.509894644","240","414818.71106","407084.918961","407851.681511","408618.547633","409385.014927","410151.624747","410918.808078","411685.391619","415585.354271","416334.965954","417101.219612","417868.160553","418634.822005","404785.259542","405551.216706","406318.317178","417877.580019"
"Mixed","Female","cave","24","M_lash.wav","None","732.174215722","240","414818.71106","407084.918961","407851.681511","408618.547633","409385.014927","410151.624747","410918.808078","411685.391619","415585.354271","416334.965954","417101.219612","417868.160553","418634.822005","419401.500152","405551.216706","406318.317178","418644.214574"
"Mixed","Female","cave","24","F_cave.wav","None","731.165705016","240","414818.71106","407084.918961","407851.681511","408618.547633","409385.014927","410151.624747","410918.808078","411685.391619","415585.354271","416334.965954","417101.219612","417868.160553","418634.822005","419401.500152","420167.701869","406318.317178","419410.872934"
"Mixed","Female","cave","24","M_greet.wav","space","412.57460264","240","414818.71106","407084.918961","407851.681511","408618.547633","409385.014927","410151.624747","410918.808078","411685.391619","415585.354271","416334.965954","417101.219612","417868.160553","418634.822005","419401.500152","420167.701869","420934.325602","420176.434052"
"Mixed","Female","cave","24","M_depth.wav","None","729.115293012","240","414818.71106","421701.392376","407851.681511","408618.547633","409385.014927","410151.624747","410918.808078","411685.391619","415585.354271","416334.965954","417101.219612","417868.160553","418634.822005","419401.500152","420167.701869","420934.325602","420943.14528"
"Mixed","Female","cave","24","F_romp.wav","None","727.6924951","240","414818.71106","421701.392376","422467.65469","408618.547633","409385.014927","410151.624747","410918.808078","411685.391619","415585.354271","416334.965954","417101.219612","417868.160553","418634.822005","419401.500152","420167.701869","420934.325602","421710.170315"
"Mixed","Female","cave","24","F_romp.wav","None","727.182365488","240","414818.71106","421701.392376","422467.65469","423234.610162","409385.014927","410151.624747","410918.808078","411685.391619","415585.354271","416334.965954","417101.219612","417868.160553","418634.822005","419401.500152","420167.701869","420934.325602","422476.466329"
"Mixed","Female","cave","24","M_tile.wav","None","725.232742727","240","414818.71106","421701.392376","422467.65469","423234.610162","424001.803076","410151.624747","410918.808078","411685.391619","415585.354271","416334.965954","417101.219612","417868.160553","418634.822005","419401.500152","420167.701869","420934.325602","423244.087443"
"Mixed","Female","cave","24","F_park.wav","None","723.762023612","240","414818.71106","421701.392376","422467.65469","423234.610162","424001.803076","424768.076212","410918.808078","411685.391619","415585.354271","416334.965954","417101.219612","417868.160553","418634.822005","419401.500152","420167.701869","420934.325602","424011.211413"
"Mixed","Female","cave","24","F_cave.wav","None","722.996829078","240","414818.71106","421701.392376","422467.65469","423234.610162","424001.803076","424768.076212","425535.03292","411685.391619","415585.354271","416334.965954","417101.219612","417868.160553","418634.822005","419401.500152","420167.701869","420934.325602","424777.477128"
"Mixed","Female","cave","24","F_priest.wav","space","459.930090699","240","414818.71106","421701.392376","422467.65469","423234.610162","424001.803076","424768.076212","425535.03292","426301.11437","415585.354271","416334.965954","417101.219612","417868.160553","418634.822005","419401.500152","420167.701869","420934.325602","425544.938092"
"Mixed","Male","cave","17","F_jaw.wav","None","719.993866049","240","429417.984141","421701.392376","422467.65469","423234.610162","424001.803076","424768.076212","425535.03292","426301.11437","415585.354271","416334.965954","417101.219612","417868.160553","418634.822005","419401.500152","420167.701869","420934.325602","426310.26826"
"Mixed","Male","cave","17","F_reek.wav","None","721.385747078","240","429417.984141","421701.392376","422467.65469","423234.610162","424001.803076","424768.076212","425535.03292","426301.11437","430185.055552","416334.965954","417101.219612","417868.160553","418634.822005","419401.500152","420167.701869","420934.325602","429427.087327"
"Mixed","Male","cave","17","M_park.wav","None","719.373672153","240","429417.984141","421701.392376","422467.65469","423234.610162","424001.803076","424768.076212","425535.03292","426301.11437","430185.055552","430951.013025","417101.219612","417868.160553","418634.822005","419401.500152","420167.701869","420934.325602","430194.631458"
"Mixed","Male","cave","17","F_done.wav","None","720.03869561","240","429417.984141","421701.392376","422467.65469","423234.610162","424001.803076","424768.076212","425535.03292","426301.11437","430185.055552","430951.013025","431700.556691","417868.160553","418634.822005","419401.500152","420167.701869","420934.325602","430960.182682"
"Mixed","Male","cave","17","F_romp.wav","None","735.865080846","240","429417.984141","421701.392376","422467.65469","423234.610162","424001.803076","424768.076212","425535.03292","426301.11437","430185.055552","430951.013025","431700.556691","432467.719615","418634.822005","419401.500152","420167.701869","420934.325602","431709.892063"
"Mixed","Male","cave","17","F_dime.wav","None","734.215661767","240","429417.984141","421701.392376","422467.65469","423234.610162","424001.803076","424768.076212","425535.03292","426301.11437","430185.055552","430951.013025","431700.556691","432467.719615","433234.373957","419401.500152","420167.701869","420934.325602","432477.205244"
"Mixed","Male","cave","17","M_cave.wav","None","733.173142304","240","429417.984141","421701.392376","422467.65469","423234.610162","424001.803076","424768.076212","425535.03292","426301.11437","430185.055552","430951.013025","431700.556691","432467.719615","433234.373957","434001.117339","420167.701869","420934.325602","433243.863914"
"Mixed","Male","cave","17","M_bluff.wav","space","407.600375009","240","429417.984141","421701.392376","422467.65469","423234.610162","424001.803076","424768.076212","425535.03292","426301.11437","430185.055552","430951.013025","431700.556691","432467.719615","433234.373957","434001.117339","434767.286284","420934.325602","434005.01442"
"Mixed","Male","cave","17","M_cave.wav","None","731.351515744","240","429417.984141","421701.392376","422467.65469","423234.610162","424001.803076","424768.076212","425535.03292","426301.11437","430185.055552","430951.013025","431700.556691","432467.719615","433234.373957","434001.117339","434767.286284","435534.209911","434776.373702"
"Mixed","Male","cave","17","F_ball.wav","space","556.770007592","240","429417.984141","436301.071087","422467.65469","423234.610162","424001.803076","424768.076212","425535.03292","426301.11437","430185.055552","430951.013025","431700.556691","432467.719615","433234.373957","434001.117339","434767.286284","435534.209911","435543.816425"
"Mixed","Male","cave","17","M_gnash.wav","None","726.962236804","240","429417.984141","436301.071087","437067.607016","423234.610162","424001.803076","424768.076212","425535.03292","426301.11437","430185.055552","430951.013025","431700.556691","432467.719615","433234.373957","434001.117339","434767.286284","435534.209911","436310.713464"
"Mixed","Male","cave","17","M_reek.wav","None","726.592470077","240","429417.984141","436301.071087","437067.607016","437834.33092","424001.803076","424768.076212","425535.03292","426301.11437","430185.055552","430951.013025","431700.556691","432467.719615","433234.373957","434001.117339","434767.286284","435534.209911","437076.977324"
"Mixed","Male","cave","17","M_cave.wav","None","725.568500813","240","429417.984141","436301.071087","437067.607016","437834.33092","438600.802851","424768.076212","425535.03292","426301.11437","430185.055552","430951.013025","431700.556691","432467.719615","433234.373957","434001.117339","434767.286284","435534.209911","437843.723798"
"Mixed","Male","cave","17","F_done.wav","space","410.719585838","240","429417.984141","436301.071087","437067.607016","437834.33092","438600.802851","439368.016789","425535.03292","426301.11437","430185.055552","430951.013025","431700.556691","432467.719615","433234.373957","434001.117339","434767.286284","435534.209911","438609.649427"
"Mixed","Male","cave","17","M_cave.wav","None","721.559809404","240","429417.984141","436301.071087","437067.607016","437834.33092","438600.802851","439368.016789","440134.477281","426301.11437","430185.055552","430951.013025","431700.556691","432467.719615","433234.373957","434001.117339","434767.286284","435534.209911","439378.049339"
"Mixed","Male","cave","17","F_park.wav","space","444.234174909","240","429417.984141","436301.071087","437067.607016","437834.33092","438600.802851","439368.016789","440134.477281","440883.974881","430185.055552","430951.013025","431700.556691","432467.719615","433234.373957","434001.117339","434767.286284","435534.209911","440144.244563"
"Mixed","Male","tile","25","F_lash.wav","None","736.387577374","240","444017.716647","436301.071087","437067.607016","437834.33092","438600.802851","439368.016789","440134.477281","440883.974881","430185.055552","430951.013025","431700.556691","432467.719615","433234.373957","434001.117339","434767.286284","435534.209911","440893.003866"
"Mixed","Male","tile","25","M_tile.wav","None","720.87314399","240","444017.716647","436301.071087","437067.607016","437834.33092","438600.802851","439368.016789","440134.477281","440883.974881","444784.481053","430951.013025","431700.556691","432467.719615","433234.373957","434001.117339","434767.286284","435534.209911","444027.544836"
"Mixed","Male","tile","25","M_greet.wav","space","714.421086363","240","444017.716647","436301.071087","437067.607016","437834.33092","438600.802851","439368.016789","440134.477281","440883.974881","444784.481053","445533.635474","431700.556691","432467.719615","433234.373957","434001.117339","434767.286284","435534.209911","444793.879496"
"Mixed","Male","tile","25","F_jaw.wav","None","735.739248921","240","444017.716647","436301.071087","437067.607016","437834.33092","438600.802851","439368.016789","440134.477281","440883.974881","444784.481053","445533.635474","446300.455839","432467.719615","433234.373957","434001.117339","434767.286284","435534.209911","445542.781944"
"Mixed","Male","tile","25","M_tile.wav","None","734.24657865","240","444017.716647","436301.071087","437067.607016","437834.33092","438600.802851","439368.016789","440134.477281","440883.974881","444784.481053","445533.635474","446300.455839","447067.285789","433234.373957","434001.117339","434767.286284","435534.209911","446310.291757"
"Mixed","Male","tile","25","F_cave.wav","space","391.945269541","240","444017.716647","436301.071087","437067.607016","437834.33092","438600.802851","439368.016789","440134.477281","440883.974881","444784.481053","445533.635474","446300.455839","447067.285789","447833.956516","434001.117339","434767.286284","435534.209911","447076.259433"
"Mixed","Male","tile","25","F_cling.wav","None","732.016848517","240","444017.716647","436301.071087","437067.607016","437834.33092","438600.802851","439368.016789","440134.477281","440883.974881","444784.481053","445533.635474","446300.455839","447067.285789","447833.956516","448600.521816","434767.286284","435534.209911","447843.337027"
"Mixed","Male","tile","25","F_cad.wav","None","732.126294519","240","444017.716647","436301.071087","437067.607016","437834.33092","438600.802851","439368.016789","440134.477281","440883.974881","444784.481053","445533.635474","446300.455839","447067.285789","447833.956516","448600.521816","449367.226243","435534.209911","448609.299756"
"Mixed","Male","tile","25","M_tile.wav","None","730.559114483","240","444017.716647","436301.071087","437067.607016","437834.33092","438600.802851","439368.016789","440134.477281","440883.974881","444784.481053","445533.635474","446300.455839","447067.285789","447833.956516","448600.521816","449367.226243","450133.860797","449376.829665"
"Mixed","Male","tile","25","M_knife.wav","space","348.843025975","240","444017.716647","450900.743305","437067.607016","437834.33092","438600.802851","439368.016789","440134.477281","440883.974881","444784.481053","445533.635474","446300.455839","447067.285789","447833.956516","448600.521816","449367.226243","450133.860797","450143.309016"
"Mixed","Male","tile","25","M_tile.wav","None","727.869649185","240","444017.716647","450900.743305","451667.192976","437834.33092","438600.802851","439368.016789","440134.477281","440883.974881","444784.481053","445533.635474","446300.455839","447067.285789","447833.956516","448600.521816","449367.226243","450133.860797","450910.091972"
"Mixed","Male","tile","25","F_reek.wav","space","575.439206092","240","444017.716647","450900.743305","451667.192976","452433.181675","438600.802851","439368.016789","440134.477281","440883.974881","444784.481053","445533.635474","446300.455839","447067.285789","447833.956516","448600.521816","449367.226243","450133.860797","451676.628829"
"Mixed","Male","tile","25","F_jolt.wav","None","727.027162444","240","444017.716647","450900.743305","451667.192976","452433.181675","453200.325741","439368.016789","440134.477281","440883.974881","444784.481053","445533.635474","446300.455839","447067.285789","447833.956516","448600.521816","449367.226243","450133.860797","452442.039072"
"Mixed","Male","tile","25","M_cling.wav","None","725.326730288","240","444017.716647","450900.743305","451667.192976","452433.181675","453200.325741","453967.808347","440134.477281","440883.974881","444784.481053","445533.635474","446300.455839","447067.285789","447833.956516","448600.521816","449367.226243","450133.860797","453209.551976"
"Mixed","Male","tile","25","F_park.wav","None","723.194079241","240","444017.716647","450900.743305","451667.192976","452433.181675","453200.325741","453967.808347","454734.034798","440883.974881","444784.481053","445533.635474","446300.455839","447067.285789","447833.956516","448600.521816","449367.226243","450133.860797","453977.626333"
"Mixed","Male","tile","25","M_greet.wav","None","728.574246401","240","444017.716647","450900.743305","451667.192976","452433.181675","453200.325741","453967.808347","454734.034798","455500.716655","444784.481053","445533.635474","446300.455839","447067.285789","447833.956516","448600.521816","449367.226243","450133.860797","454737.939917"
"Mixed","Male","tile","30","F_done.wav","None","722.376635298","240","458617.370316","450900.743305","451667.192976","452433.181675","453200.325741","453967.808347","454734.034798","455500.716655","444784.481053","445533.635474","446300.455839","447067.285789","447833.956516","448600.521816","449367.226243","450133.860797","455510.267827"
"Mixed","Male","tile","30","M_tile.wav","None","720.520072617","240","458617.370316","450900.743305","451667.192976","452433.181675","453200.325741","453967.808347","454734.034798","455500.716655","459383.755679","445533.635474","446300.455839","447067.285789","447833.956516","448600.521816","449367.226243","450133.860797","458627.26343"
"Mixed","Male","tile","30","F_romp.wav","space","345.831406186","240","458617.370316","450900.743305","451667.192976","452433.181675","453200.325741","453967.808347","454734.034798","455500.716655","459383.755679","460133.597694","446300.455839","447067.285789","447833.956516","448600.521816","449367.226243","450133.860797","459394.025053"
"Mixed","Male","tile","30","M_tile.wav","None","735.475218156","240","458617.370316","450900.743305","451667.192976","452433.181675","453200.325741","453967.808347","454734.034798","455500.716655","459383.755679","460133.597694","460900.278314","447067.285789","447833.956516","448600.521816","449367.226243","450133.860797","460143.05086"
"Mixed","Male","tile","30","F_knife.wav","space","301.930268644","240","458617.370316","450900.743305","451667.192976","452433.181675","453200.325741","453967.808347","454734.034798","455500.716655","459383.755679","460133.597694","460900.278314","461666.882261","447833.956516","448600.521816","449367.226243","450133.860797","460909.872771"
"Mixed","Male","tile","30","M_depth.wav","None","733.144080383","240","458617.370316","450900.743305","451667.192976","452433.181675","453200.325741","453967.808347","454734.034798","455500.716655","459383.755679","460133.597694","460900.278314","461666.882261","462433.484971","448600.521816","449367.226243","450133.860797","461676.370981"
"Mixed","Male","tile","30","F_bluff.wav","None","733.172214823","240","458617.370316","450900.743305","451667.192976","452433.181675","453200.325741","453967.808347","454734.034798","455500.716655","459383.755679","460133.597694","460900.278314","461666.882261","462433.484971","463199.94639","449367.226243","450133.860797","462442.950812"
"Mixed","Male","tile","30","M_gnash.wav","None","732.531924848","240","458617.370316","450900.743305","451667.192976","452433.181675","453200.325741","453967.808347","454734.034798","455500.716655","459383.755679","460133.597694","460900.278314","461666.882261","462433.484971","463199.94639","463967.123846","450133.860797","463209.845378"
"Mixed","Male","tile","30","M_romp.wav","None","732.039727038","240","458617.370316","450900.743305","451667.192976","452433.181675","453200.325741","453967.808347","454734.034798","455500.716655","459383.755679","460133.597694","460900.278314","461666.882261","462433.484971","463199.94639","463967.123846","464733.375648","463976.457672"
"Mixed","Male","tile","30","F_depth.wav","None","731.430972344","240","458617.370316","465499.913433","451667.192976","452433.181675","453200.325741","453967.808347","454734.034798","455500.716655","459383.755679","460133.597694","460900.278314","461666.882261","462433.484971","463199.94639","463967.123846","464733.375648","464742.918782"
"Mixed","Male","tile","30","F_jolt.wav","None","730.986077455","240","458617.370316","465499.913433","466266.763169","452433.181675","453200.325741","453967.808347","454734.034798","455500.716655","459383.755679","460133.597694","460900.278314","461666.882261","462433.484971","463199.94639","463967.123846","464733.375648","465509.241385"
"Mixed","Male","tile","30","M_lash.wav","None","729.914186988","240","458617.370316","465499.913433","466266.763169","467033.412563","453200.325741","453967.808347","454734.034798","455500.716655","459383.755679","460133.597694","460900.278314","461666.882261","462433.484971","463199.94639","463967.123846","464733.375648","466276.357007"
"Mixed","Male","tile","30","M_tile.wav","None","729.554313584","240","458617.370316","465499.913433","466266.763169","467033.412563","467799.71476","453967.808347","454734.034798","455500.716655","459383.755679","460133.597694","460900.278314","461666.882261","462433.484971","463199.94639","463967.123846","464733.375648","467042.827392"
"Mixed","Male","tile","30","F_priest.wav","space","394.375032512","240","458617.370316","465499.913433","466266.763169","467033.412563","467799.71476","468566.720318","454734.034798","455500.716655","459383.755679","460133.597694","460900.278314","461666.882261","462433.484971","463199.94639","463967.123846","464733.375648","467809.217084"
"Mixed","Male","tile","30","M_tile.wav","None","726.35255463","240","458617.370316","465499.913433","466266.763169","467033.412563","467799.71476","468566.720318","469333.201215","455500.716655","459383.755679","460133.597694","460900.278314","461666.882261","462433.484971","463199.94639","463967.123846","464733.375648","468576.402269"
"Mixed","Male","tile","30","F_romp.wav","space","428.872471326","240","458617.370316","465499.913433","466266.763169","467033.412563","467799.71476","468566.720318","469333.201215","470100.01045","459383.755679","460133.597694","460900.278314","461666.882261","462433.484971","463199.94639","463967.123846","464733.375648","469342.681278"
"Mixed","Male","ball","2","F_reek.wav","None","723.777482053","240","473233.482621","465499.913433","466266.763169","467033.412563","467799.71476","468566.720318","469333.201215","470100.01045","459383.755679","460133.597694","460900.278314","461666.882261","462433.484971","463199.94639","463967.123846","464733.375648","470109.384159"
"Mixed","Male","ball","2","M_ball.wav","None","720.49812146","240","473233.482621","465499.913433","466266.763169","467033.412563","467799.71476","468566.720318","469333.201215","470100.01045","474000.0371","460133.597694","460900.278314","461666.882261","462433.484971","463199.94639","463967.123846","464733.375648","473243.189306"
"Mixed","Male","ball","2","M_priest.wav","space","441.575008212","240","473233.482621","465499.913433","466266.763169","467033.412563","467799.71476","468566.720318","469333.201215","470100.01045","474000.0371","474750.013603","460900.278314","461666.882261","462433.484971","463199.94639","463967.123846","464733.375648","474009.833444"
"Mixed","Male","ball","2","M_ball.wav","None","734.958286863","240","473233.482621","465499.913433","466266.763169","467033.412563","467799.71476","468566.720318","469333.201215","470100.01045","474000.0371","474750.013603","475516.342698","461666.882261","462433.484971","463199.94639","463967.123846","464733.375648","474759.623209"
"Mixed","Male","ball","2","F_jolt.wav","space","549.804110313","240","473233.482621","465499.913433","466266.763169","467033.412563","467799.71476","468566.720318","469333.201215","470100.01045","474000.0371","474750.013603","475516.342698","476283.019609","462433.484971","463199.94639","463967.123846","464733.375648","475525.593976"
"Mixed","Male","ball","2","M_depth.wav","None","732.52172221","240","473233.482621","465499.913433","466266.763169","467033.412563","467799.71476","468566.720318","469333.201215","470100.01045","474000.0371","474750.013603","475516.342698","476283.019609","477049.730219","463199.94639","463967.123846","464733.375648","476292.54141"
"Mixed","Male","ball","2","M_ball.wav","None","732.192456722","240","473233.482621","465499.913433","466266.763169","467033.412563","467799.71476","468566.720318","469333.201215","470100.01045","474000.0371","474750.013603","475516.342698","476283.019609","477049.730219","477816.445157","463967.123846","464733.375648","477058.988917"
"Mixed","Male","ball","2","F_lash.wav","space","337.45105844","240","473233.482621","465499.913433","466266.763169","467033.412563","467799.71476","468566.720318","469333.201215","470100.01045","474000.0371","474750.013603","475516.342698","476283.019609","477049.730219","477816.445157","478583.229659","464733.375648","477825.847619"
"Mixed","Male","ball","2","M_ball.wav","None","729.176199413","240","473233.482621","465499.913433","466266.763169","467033.412563","467799.71476","468566.720318","469333.201215","470100.01045","474000.0371","474750.013603","475516.342698","476283.019609","477049.730219","477816.445157","478583.229659","479349.781355","478592.891205"
"Mixed","Male","ball","2","M_knife.wav","space","292.230076506","240","473233.482621","480116.28915","466266.763169","467033.412563","467799.71476","468566.720318","469333.201215","470100.01045","474000.0371","474750.013603","475516.342698","476283.019609","477049.730219","477816.445157","478583.229659","479349.781355","479358.988422"
"Mixed","Male","ball","2","F_done.wav","None","726.839496521","240","473233.482621","480116.28915","480882.946583","467033.412563","467799.71476","468566.720318","469333.201215","470100.01045","474000.0371","474750.013603","475516.342698","476283.019609","477049.730219","477816.445157","478583.229659","479349.781355","480125.673062"
"Mixed","Male","ball","2","F_romp.wav","None","726.362757152","240","473233.482621","480116.28915","480882.946583","481649.302266","467799.71476","468566.720318","469333.201215","470100.01045","474000.0371","474750.013603","475516.342698","476283.019609","477049.730219","477816.445157","478583.229659","479349.781355","480892.393256"
"Mixed","Male","ball","2","F_jaw.wav","None","725.967020262","240","473233.482621","480116.28915","480882.946583","481649.302266","482416.282781","468566.720318","469333.201215","470100.01045","474000.0371","474750.013603","475516.342698","476283.019609","477049.730219","477816.445157","478583.229659","479349.781355","481658.709675"
"Mixed","Male","ball","2","M_done.wav","None","725.41051521","240","473233.482621","480116.28915","480882.946583","481649.302266","482416.282781","483182.806653","469333.201215","470100.01045","474000.0371","474750.013603","475516.342698","476283.019609","477049.730219","477816.445157","478583.229659","479349.781355","482425.357524"
"Mixed","Male","ball","2","F_cling.wav","None","724.752293434","240","473233.482621","480116.28915","480882.946583","481649.302266","482416.282781","483182.806653","483949.08288","470100.01045","474000.0371","474750.013603","475516.342698","476283.019609","477049.730219","477816.445157","478583.229659","479349.781355","483192.33742"
"Mixed","Male","ball","2","F_dime.wav","None","724.991899799","240","473233.482621","480116.28915","480882.946583","481649.302266","482416.282781","483182.806653","483949.08288","484716.526221","474000.0371","474750.013603","475516.342698","476283.019609","477049.730219","477816.445157","478583.229659","479349.781355","483958.254701"
"Mixed","Male","tile","28","M_lash.wav","None","723.1050384","240","487849.629862","480116.28915","480882.946583","481649.302266","482416.282781","483182.806653","483949.08288","484716.526221","474000.0371","474750.013603","475516.342698","476283.019609","477049.730219","477816.445157","478583.229659","479349.781355","484726.177874"
"Mixed","Male","tile","28","M_tile.wav","None","721.749330289","240","487849.629862","480116.28915","480882.946583","481649.302266","482416.282781","483182.806653","483949.08288","484716.526221","488616.619652","474750.013603","475516.342698","476283.019609","477049.730219","477816.445157","478583.229659","479349.781355","487859.164031"
"Mixed","Male","tile","28","F_knife.wav","space","480.523250764","240","487849.629862","480116.28915","480882.946583","481649.302266","482416.282781","483182.806653","483949.08288","484716.526221","488616.619652","489366.022646","475516.342698","476283.019609","477049.730219","477816.445157","478583.229659","479349.781355","488626.479376"
"Mixed","Male","tile","28","F_cling.wav","None","736.245050211","240","487849.629862","480116.28915","480882.946583","481649.302266","482416.282781","483182.806653","483949.08288","484716.526221","488616.619652","489366.022646","490132.59784","476283.019609","477049.730219","477816.445157","478583.229659","479349.781355","489375.147783"
"Mixed","Male","tile","28","M_tile.wav","None","735.64031464","240","487849.629862","480116.28915","480882.946583","481649.302266","482416.282781","483182.806653","483949.08288","484716.526221","488616.619652","489366.022646","490132.59784","490898.951359","477049.730219","477816.445157","478583.229659","479349.781355","490141.981752"
"Mixed","Male","tile","28","M_cave.wav","space","390.845862916","240","487849.629862","480116.28915","480882.946583","481649.302266","482416.282781","483182.806653","483949.08288","484716.526221","488616.619652","489366.022646","490132.59784","490898.951359","491665.334249","477816.445157","478583.229659","479349.781355","490908.060419"
"Mixed","Male","tile","28","F_knife.wav","None","734.919331502","240","487849.629862","480116.28915","480882.946583","481649.302266","482416.282781","483182.806653","483949.08288","484716.526221","488616.619652","489366.022646","490132.59784","490898.951359","491665.334249","492432.451417","478583.229659","479349.781355","491674.436199"
"Mixed","Male","tile","28","M_priest.wav","None","733.981929719","240","487849.629862","480116.28915","480882.946583","481649.302266","482416.282781","483182.806653","483949.08288","484716.526221","488616.619652","489366.022646","490132.59784","490898.951359","491665.334249","492432.451417","493199.334234","479349.781355","492442.058858"
"Mixed","Male","tile","28","M_romp.wav","None","733.602578752","240","487849.629862","480116.28915","480882.946583","481649.302266","482416.282781","483182.806653","483949.08288","484716.526221","488616.619652","489366.022646","490132.59784","490898.951359","491665.334249","492432.451417","493199.334234","493965.944364","493209.008456"
"Mixed","Male","tile","28","F_reek.wav","None","733.150882064","240","487849.629862","494732.379813","480882.946583","481649.302266","482416.282781","483182.806653","483949.08288","484716.526221","488616.619652","489366.022646","490132.59784","490898.951359","491665.334249","492432.451417","493199.334234","493965.944364","493975.676092"
"Mixed","Male","tile","28","F_cling.wav","None","733.060913743","240","487849.629862","494732.379813","495499.292311","481649.302266","482416.282781","483182.806653","483949.08288","484716.526221","488616.619652","489366.022646","490132.59784","490898.951359","491665.334249","492432.451417","493199.334234","493965.944364","494741.924803"
"Mixed","Male","tile","28","M_tile.wav","None","732.64168005","240","487849.629862","494732.379813","495499.292311","496265.818038","482416.282781","483182.806653","483949.08288","484716.526221","488616.619652","489366.022646","490132.59784","490898.951359","491665.334249","492432.451417","493199.334234","493965.944364","495508.710541"
"Mixed","Male","tile","28","F_lash.wav","space","359.445065493","240","487849.629862","494732.379813","495499.292311","496265.818038","497032.585535","483182.806653","483949.08288","484716.526221","488616.619652","489366.022646","490132.59784","490898.951359","491665.334249","492432.451417","493199.334234","493965.944364","496275.292536"
"Mixed","Male","tile","28","M_tile.wav","None","730.209134636","240","487849.629862","494732.379813","495499.292311","496265.818038","497032.585535","497798.881549","483949.08288","484716.526221","488616.619652","489366.022646","490132.59784","490898.951359","491665.334249","492432.451417","493199.334234","493965.944364","497042.218946"
"Mixed","Male","tile","28","F_jaw.wav","space","410.24222807","240","487849.629862","494732.379813","495499.292311","496265.818038","497032.585535","497798.881549","498565.772714","484716.526221","488616.619652","489366.022646","490132.59784","490898.951359","491665.334249","492432.451417","493199.334234","493965.944364","497808.453435"
"Mixed","Male","tile","28","F_ball.wav","None","729.027488851","240","487849.629862","494732.379813","495499.292311","496265.818038","497032.585535","497798.881549","498565.772714","499332.714582","488616.619652","489366.022646","490132.59784","490898.951359","491665.334249","492432.451417","493199.334234","493965.944364","498575.209184"
"Mixed","Female","cave","19","M_cad.wav","None","728.231995716","240","502465.990121","494732.379813","495499.292311","496265.818038","497032.585535","497798.881549","498565.772714","499332.714582","488616.619652","489366.022646","490132.59784","490898.951359","491665.334249","492432.451417","493199.334234","493965.944364","499342.255243"
"Mixed","Female","cave","19","F_cave.wav","None","720.696608303","240","502465.990121","494732.379813","495499.292311","496265.818038","497032.585535","497798.881549","498565.772714","499332.714582","503232.595305","489366.022646","490132.59784","490898.951359","491665.334249","492432.451417","493199.334234","493965.944364","502475.63961"
"Mixed","Female","cave","19","M_greet.wav","space","423.884949298","240","502465.990121","494732.379813","495499.292311","496265.818038","497032.585535","497798.881549","498565.772714","499332.714582","503232.595305","503982.081774","490132.59784","490898.951359","491665.334249","492432.451417","493199.334234","493965.944364","503242.643931"
"Mixed","Female","cave","19","M_priest.wav","None","735.719152959","240","502465.990121","494732.379813","495499.292311","496265.818038","497032.585535","497798.881549","498565.772714","499332.714582","503232.595305","503982.081774","504748.525262","490898.951359","491665.334249","492432.451417","493199.334234","493965.944364","503991.199491"
"Mixed","Female","cave","19","F_cave.wav","None","735.076389625","240","502465.990121","494732.379813","495499.292311","496265.818038","497032.585535","497798.881549","498565.772714","499332.714582","503232.595305","503982.081774","504748.525262","505515.547205","491665.334249","492432.451417","493199.334234","493965.944364","504757.629066"
"Mixed","Female","cave","19","F_lash.wav","space","381.364253582","240","502465.990121","494732.379813","495499.292311","496265.818038","497032.585535","497798.881549","498565.772714","499332.714582","503232.595305","503982.081774","504748.525262","505515.547205","506282.206802","492432.451417","493199.334234","493965.944364","505525.114145"
"Mixed","Female","cave","19","M_ball.wav","None","732.264184044","240","502465.990121","494732.379813","495499.292311","496265.818038","497032.585535","497798.881549","498565.772714","499332.714582","503232.595305","503982.081774","504748.525262","505515.547205","506282.206802","507048.894224","493199.334234","493965.944364","506291.670171"
