"Condition","Talker","Target","Trial","current_stimulus","response_response","response_time_response","subject_nr","time_Audio1","time_Audio10","time_Audio11","time_Audio12","time_Audio13","time_Audio14","time_Audio15","time_Audio16","time_Audio2","time_Audio3","time_Audio4","time_Audio5","time_Audio6","time_Audio7","time_Audio8","time_Audio9","time_response"
"Blocked","Male","done","20","M_romp.wav","NA","NA","221","390556.382927","NA","NA","NA","NA","NA","NA","NA","NA","NA","NA","NA","NA","NA","NA","NA","NA"
"Blocked","Male","done","20","M_done.wav","None","719.057391747","221","390556.382927","NA","NA","NA","NA","NA","NA","NA","391323.561929","NA","NA","NA","NA","NA","NA","NA","390570.760235"
"Blocked","Male","done","20","M_depth.wav","space","680.206228397","221","390556.382927","NA","NA","NA","NA","NA","NA","NA","391323.561929","392089.659456","NA","NA","NA","NA","NA","NA","391333.939512"
"Blocked","Male","done","20","M_priest.wav","None","723.131317878","221","390556.382927","NA","NA","NA","NA","NA","NA","NA","391323.561929","392089.659456","392856.588649","NA","NA","NA","NA","NA","392099.683349"
"Blocked","Male","done","20","M_cave.wav","None","723.105656813","221","390556.382927","NA","NA","NA","NA","NA","NA","NA","391323.561929","392089.659456","392856.588649","393623.247318","NA","NA","NA","NA","392866.520409"
"Blocked","Male","done","20","M_knife.wav","None","723.24169139","221","390556.382927","NA","NA","NA","NA","NA","NA","NA","391323.561929","392089.659456","392856.588649","393623.247318","394389.922065","NA","NA","NA","393633.259462"
"Blocked","Male","done","20","M_done.wav","None","723.012596805","221","390556.382927","NA","NA","NA","NA","NA","NA","NA","391323.561929","392089.659456","392856.588649","393623.247318","394389.922065","395155.760198","NA","NA","394400.109199"
"Blocked","Male","done","20","M_bluff.wav","space","529.542998062","221","390556.382927","NA","NA","NA","NA","NA","NA","NA","391323.561929","392089.659456","392856.588649","393623.247318","394389.922065","395155.760198","395922.598804","NA","395164.490835"
"Blocked","Male","done","20","M_done.wav","None","728.222720747","221","390556.382927","NA","NA","NA","NA","NA","NA","NA","391323.561929","392089.659456","392856.588649","393623.247318","394389.922065","395155.760198","395922.598804","396689.528615","395931.58296"
"Blocked","Male","done","20","M_reek.wav","space","554.869542859","221","390556.382927","397456.132253","NA","NA","NA","NA","NA","NA","391323.561929","392089.659456","392856.588649","393623.247318","394389.922065","395155.760198","395922.598804","396689.528615","396699.080097"
"Blocked","Male","done","20","M_tile.wav","None","726.619986192","221","390556.382927","397456.132253","398223.0599","NA","NA","NA","NA","NA","391323.561929","392089.659456","392856.588649","393623.247318","394389.922065","395155.760198","395922.598804","396689.528615","397465.855633"
"Blocked","Male","done","20","M_done.wav","None","726.725103814","221","390556.382927","397456.132253","398223.0599","398989.606959","NA","NA","NA","NA","391323.561929","392089.659456","392856.588649","393623.247318","394389.922065","395155.760198","395922.598804","396689.528615","398232.498535"
"Blocked","Male","done","20","M_romp.wav","space","494.887573615","221","390556.382927","397456.132253","398223.0599","398989.606959","399756.286034","NA","NA","NA","391323.561929","392089.659456","392856.588649","393623.247318","394389.922065","395155.760198","395922.598804","396689.528615","398999.027044"
"Blocked","Male","done","20","M_park.wav","None","726.687075963","221","390556.382927","397456.132253","398223.0599","398989.606959","399756.286034","400523.039309","NA","NA","391323.561929","392089.659456","392856.588649","393623.247318","394389.922065","395155.760198","395922.598804","396689.528615","399765.937068"
"Blocked","Male","done","20","M_gnash.wav","None","727.115894028","221","390556.382927","397456.132253","398223.0599","398989.606959","399756.286034","400523.039309","401289.713437","NA","391323.561929","392089.659456","392856.588649","393623.247318","394389.922065","395155.760198","395922.598804","396689.528615","400532.522773"
"Blocked","Male","done","20","M_romp.wav","None","727.176491244","221","390556.382927","397456.132253","398223.0599","398989.606959","399756.286034","400523.039309","401289.713437","402055.914536","391323.561929","392089.659456","392856.588649","393623.247318","394389.922065","395155.760198","395922.598804","396689.528615","401299.474845"
"Blocked","Male","ball","4","M_depth.wav","None","728.989770214","221","405205.900376","397456.132253","398223.0599","398989.606959","399756.286034","400523.039309","401289.713437","402055.914536","391323.561929","392089.659456","392856.588649","393623.247318","394389.922065","395155.760198","395922.598804","396689.528615","402064.683819"
"Blocked","Male","ball","4","M_jaw.wav","None","725.566954978","221","405205.900376","397456.132253","398223.0599","398989.606959","399756.286034","400523.039309","401289.713437","402055.914536","405972.492883","392089.659456","392856.588649","393623.247318","394389.922065","395155.760198","395922.598804","396689.528615","405214.75097"
"Blocked","Male","ball","4","M_jaw.wav","None","726.055442748","221","405205.900376","397456.132253","398223.0599","398989.606959","399756.286034","400523.039309","401289.713437","402055.914536","405972.492883","406739.339218","392856.588649","393623.247318","394389.922065","395155.760198","395922.598804","396689.528615","405981.404384"
"Blocked","Male","ball","4","M_ball.wav","None","726.226722632","221","405205.900376","397456.132253","398223.0599","398989.606959","399756.286034","400523.039309","401289.713437","402055.914536","405972.492883","406739.339218","407506.479265","393623.247318","394389.922065","395155.760198","395922.598804","396689.528615","406748.235261"
"Blocked","Male","ball","4","M_reek.wav","space","513.927466367","221","405205.900376","397456.132253","398223.0599","398989.606959","399756.286034","400523.039309","401289.713437","402055.914536","405972.492883","406739.339218","407506.479265","408272.610182","394389.922065","395155.760198","395922.598804","396689.528615","407515.703954"
"Blocked","Male","ball","4","M_ball.wav","None","726.144483546","221","405205.900376","397456.132253","398223.0599","398989.606959","399756.286034","400523.039309","401289.713437","402055.914536","405972.492883","406739.339218","407506.479265","408272.610182","409039.185376","395155.760198","395922.598804","396689.528615","408281.759743"
"Blocked","Male","ball","4","M_lash.wav","space","493.52506375","221","405205.900376","397456.132253","398223.0599","398989.606959","399756.286034","400523.039309","401289.713437","402055.914536","405972.492883","406739.339218","407506.479265","408272.610182","409039.185376","409805.981935","395922.598804","396689.528615","409048.101823"
"Blocked","Male","ball","4","M_tile.wav","None","726.470966518","221","405205.900376","397456.132253","398223.0599","398989.606959","399756.286034","400523.039309","401289.713437","402055.914536","405972.492883","406739.339218","407506.479265","408272.610182","409039.185376","409805.981935","410572.340401","396689.528615","409815.22301"
"Blocked","Male","ball","4","M_jolt.wav","None","728.057315064","221","405205.900376","397456.132253","398223.0599","398989.606959","399756.286034","400523.039309","401289.713437","402055.914536","405972.492883","406739.339218","407506.479265","408272.610182","409039.185376","409805.981935","410572.340401","411339.410575","410581.028681"
"Blocked","Male","ball","4","M_park.wav","None","726.57391995","221","405205.900376","412105.816962","398223.0599","398989.606959","399756.286034","400523.039309","401289.713437","402055.914536","405972.492883","406739.339218","407506.479265","408272.610182","409039.185376","409805.981935","410572.340401","411339.410575","411349.025745"
"Blocked","Male","ball","4","M_cling.wav","None","727.127024133","221","405205.900376","412105.816962","412872.595589","398989.606959","399756.286034","400523.039309","401289.713437","402055.914536","405972.492883","406739.339218","407506.479265","408272.610182","409039.185376","409805.981935","410572.340401","411339.410575","412115.500459"
"Blocked","Male","ball","4","M_cling.wav","None","727.67208991","221","405205.900376","412105.816962","412872.595589","413639.280847","399756.286034","400523.039309","401289.713437","402055.914536","405972.492883","406739.339218","407506.479265","408272.610182","409039.185376","409805.981935","410572.340401","411339.410575","412881.956931"
"Blocked","Male","ball","4","M_ball.wav","None","728.024852273","221","405205.900376","412105.816962","412872.595589","413639.280847","414405.563257","400523.039309","401289.713437","402055.914536","405972.492883","406739.339218","407506.479265","408272.610182","409039.185376","409805.981935","410572.340401","411339.410575","413648.683"
"Blocked","Male","ball","4","M_jaw.wav","space","462.788671546","221","405205.900376","412105.816962","412872.595589","413639.280847","414405.563257","415172.620446","401289.713437","402055.914536","405972.492883","406739.339218","407506.479265","408272.610182","409039.185376","409805.981935","410572.340401","411339.410575","414414.645111"
"Blocked","Male","ball","4","M_ball.wav","None","728.854663132","221","405205.900376","412105.816962","412872.595589","413639.280847","414405.563257","415172.620446","415939.21419","402055.914536","405972.492883","406739.339218","407506.479265","408272.610182","409039.185376","409805.981935","410572.340401","411339.410575","415182.140702"
"Blocked","Male","ball","4","M_cad.wav","space","496.816791128","221","405205.900376","412105.816962","412872.595589","413639.280847","414405.563257","415172.620446","415939.21419","416705.885536","405972.492883","406739.339218","407506.479265","408272.610182","409039.185376","409805.981935","410572.340401","411339.410575","415948.603358"
"Blocked","Male","cave","12","M_dime.wav","None","729.432810054","221","419839.523421","412105.816962","412872.595589","413639.280847","414405.563257","415172.620446","415939.21419","416705.885536","405972.492883","406739.339218","407506.479265","408272.610182","409039.185376","409805.981935","410572.340401","411339.410575","416715.232965"
"Blocked","Male","cave","12","M_cave.wav","None","722.883363967","221","419839.523421","412105.816962","412872.595589","413639.280847","414405.563257","415172.620446","415939.21419","416705.885536","420605.390926","406739.339218","407506.479265","408272.610182","409039.185376","409805.981935","410572.340401","411339.410575","419849.684894"
"Blocked","Male","cave","12","M_park.wav","space","503.110863225","221","419839.523421","412105.816962","412872.595589","413639.280847","414405.563257","415172.620446","415939.21419","416705.885536","420605.390926","421373.067691","407506.479265","408272.610182","409039.185376","409805.981935","410572.340401","411339.410575","420614.150934"
"Blocked","Male","cave","12","M_park.wav","None","723.626298204","221","419839.523421","412105.816962","412872.595589","413639.280847","414405.563257","415172.620446","415939.21419","416705.885536","420605.390926","421373.067691","422139.046806","408272.610182","409039.185376","409805.981935","410572.340401","411339.410575","421382.800655"
"Blocked","Male","cave","12","M_cave.wav","None","725.029618436","221","419839.523421","412105.816962","412872.595589","413639.280847","414405.563257","415172.620446","415939.21419","416705.885536","420605.390926","421373.067691","422139.046806","422905.502969","409039.185376","409805.981935","410572.340401","411339.410575","422148.38156"
"Blocked","Male","cave","12","M_ball.wav","space","441.920968864","221","419839.523421","412105.816962","412872.595589","413639.280847","414405.563257","415172.620446","415939.21419","416705.885536","420605.390926","421373.067691","422139.046806","422905.502969","423672.324262","409805.981935","410572.340401","411339.410575","422915.284164"
"Blocked","Male","cave","12","M_priest.wav","None","725.161942974","221","419839.523421","412105.816962","412872.595589","413639.280847","414405.563257","415172.620446","415939.21419","416705.885536","420605.390926","421373.067691","422139.046806","422905.502969","423672.324262","424438.753837","410572.340401","411339.410575","423681.778974"
"Blocked","Male","cave","12","M_tile.wav","None","726.376051476","221","419839.523421","412105.816962","412872.595589","413639.280847","414405.563257","415172.620446","415939.21419","416705.885536","420605.390926","421373.067691","422139.046806","422905.502969","423672.324262","424438.753837","425205.432911","411339.410575","424447.706457"
"Blocked","Male","cave","12","M_priest.wav","None","726.085741349","221","419839.523421","412105.816962","412872.595589","413639.280847","414405.563257","415172.620446","415939.21419","416705.885536","420605.390926","421373.067691","422139.046806","422905.502969","423672.324262","424438.753837","425205.432911","425972.262552","425214.674296"
"Blocked","Male","cave","12","M_jaw.wav","None","725.482551716","221","419839.523421","426738.233319","412872.595589","413639.280847","414405.563257","415172.620446","415939.21419","416705.885536","420605.390926","421373.067691","422139.046806","422905.502969","423672.324262","424438.753837","425205.432911","425972.262552","425981.716027"
"Blocked","Male","cave","12","M_romp.wav","None","730.966908974","221","419839.523421","426738.233319","427505.556394","413639.280847","414405.563257","415172.620446","415939.21419","416705.885536","420605.390926","421373.067691","422139.046806","422905.502969","423672.324262","424438.753837","425205.432911","425972.262552","426746.907378"
"Blocked","Male","cave","12","M_cave.wav","None","730.426480732","221","419839.523421","426738.233319","427505.556394","428271.73987","414405.563257","415172.620446","415939.21419","416705.885536","420605.390926","421373.067691","422139.046806","422905.502969","423672.324262","424438.753837","425205.432911","425972.262552","427514.54024"
"Blocked","Male","cave","12","M_gnash.wav","space","508.141359707","221","419839.523421","426738.233319","427505.556394","428271.73987","429038.672463","415172.620446","415939.21419","416705.885536","420605.390926","421373.067691","422139.046806","422905.502969","423672.324262","424438.753837","425205.432911","425972.262552","428280.890359"
"Blocked","Male","cave","12","M_done.wav","None","730.251490808","221","419839.523421","426738.233319","427505.556394","428271.73987","429038.672463","429805.143467","415939.21419","416705.885536","420605.390926","421373.067691","422139.046806","422905.502969","423672.324262","424438.753837","425205.432911","425972.262552","429048.395843"
"Blocked","Male","cave","12","M_cave.wav","None","731.503936346","221","419839.523421","426738.233319","427505.556394","428271.73987","429038.672463","429805.143467","430572.118108","416705.885536","420605.390926","421373.067691","422139.046806","422905.502969","423672.324262","424438.753837","425205.432911","425972.262552","429814.052185"
"Blocked","Male","cave","12","M_depth.wav","space","423.448711255","221","419839.523421","426738.233319","427505.556394","428271.73987","429038.672463","429805.143467","430572.118108","431338.894571","420605.390926","421373.067691","422139.046806","422905.502969","423672.324262","424438.753837","425205.432911","425972.262552","430581.479141"
"Blocked","Male","ball","1","M_cling.wav","None","730.084539289","221","434471.72707","426738.233319","427505.556394","428271.73987","429038.672463","429805.143467","430572.118108","431338.894571","420605.390926","421373.067691","422139.046806","422905.502969","423672.324262","424438.753837","425205.432911","425972.262552","431348.511287"
"Blocked","Male","ball","1","M_ball.wav","None","537.72980567","221","434471.72707","426738.233319","427505.556394","428271.73987","429038.672463","429805.143467","430572.118108","431338.894571","435238.677596","421373.067691","422139.046806","422905.502969","423672.324262","424438.753837","425205.432911","425972.262552","434668.007638"
"Blocked","Male","ball","1","M_park.wav","space","652.768983622","221","434471.72707","426738.233319","427505.556394","428271.73987","429038.672463","429805.143467","430572.118108","431338.894571","435238.677596","436005.343376","422139.046806","422905.502969","423672.324262","424438.753837","425205.432911","425972.262552","435248.046976"
"Blocked","Male","ball","1","M_knife.wav","None","724.956345279","221","434471.72707","426738.233319","427505.556394","428271.73987","429038.672463","429805.143467","430572.118108","431338.894571","435238.677596","436005.343376","436771.89971","422905.502969","423672.324262","424438.753837","425205.432911","425972.262552","436014.381327"
"Blocked","Male","ball","1","M_cad.wav","None","725.011068265","221","434471.72707","426738.233319","427505.556394","428271.73987","429038.672463","429805.143467","430572.118108","431338.894571","435238.677596","436005.343376","436771.89971","437538.452953","423672.324262","424438.753837","425205.432911","425972.262552","436781.344219"
"Blocked","Male","ball","1","M_jolt.wav","None","725.357338073","221","434471.72707","426738.233319","427505.556394","428271.73987","429038.672463","429805.143467","430572.118108","431338.894571","435238.677596","436005.343376","436771.89971","437538.452953","438305.382146","424438.753837","425205.432911","425972.262552","437547.977846"
"Blocked","Male","ball","1","M_ball.wav","None","725.401549309","221","434471.72707","426738.233319","427505.556394","428271.73987","429038.672463","429805.143467","430572.118108","431338.894571","435238.677596","436005.343376","436771.89971","437538.452953","438305.382146","439071.828725","425205.432911","425972.262552","438314.951869"
"Blocked","Male","ball","1","M_lash.wav","space","363.497658967","221","434471.72707","426738.233319","427505.556394","428271.73987","429038.672463","429805.143467","430572.118108","431338.894571","435238.677596","436005.343376","436771.89971","437538.452953","438305.382146","439071.828725","439838.53006","425972.262552","439081.21882"
"Blocked","Male","ball","1","M_ball.wav","None","726.260422103","221","434471.72707","426738.233319","427505.556394","428271.73987","429038.672463","429805.143467","430572.118108","431338.894571","435238.677596","436005.343376","436771.89971","437538.452953","438305.382146","439071.828725","439838.53006","440605.168015","439847.992192"
"Blocked","Male","ball","1","M_lash.wav","space","366.553180866","221","434471.72707","441371.759904","427505.556394","428271.73987","429038.672463","429805.143467","430572.118108","431338.894571","435238.677596","436005.343376","436771.89971","437538.452953","438305.382146","439071.828725","439838.53006","440605.168015","440614.133311"
"Blocked","Male","ball","1","M_jaw.wav","None","727.00242883","221","434471.72707","441371.759904","442137.930395","428271.73987","429038.672463","429805.143467","430572.118108","431338.894571","435238.677596","436005.343376","436771.89971","437538.452953","438305.382146","439071.828725","439838.53006","440605.168015","441381.20163"
"Blocked","Male","ball","1","M_cad.wav","None","728.708116818","221","434471.72707","441371.759904","442137.930395","442904.914311","429038.672463","429805.143467","430572.118108","431338.894571","435238.677596","436005.343376","436771.89971","437538.452953","438305.382146","439071.828725","439838.53006","440605.168015","442146.721938"
"Blocked","Male","ball","1","M_ball.wav","None","727.678582465","221","434471.72707","441371.759904","442137.930395","442904.914311","443672.132268","429805.143467","430572.118108","431338.894571","435238.677596","436005.343376","436771.89971","437538.452953","438305.382146","439071.828725","439838.53006","440605.168015","442914.778363"
"Blocked","Male","ball","1","M_bluff.wav","space","387.326586846","221","434471.72707","441371.759904","442137.930395","442904.914311","443672.132268","444438.360573","430572.118108","431338.894571","435238.677596","436005.343376","436771.89971","437538.452953","438305.382146","439071.828725","439838.53006","440605.168015","443681.264516"
"Blocked","Male","ball","1","M_jaw.wav","None","724.53772981","221","434471.72707","441371.759904","442137.930395","442904.914311","443672.132268","444438.360573","445205.024499","431338.894571","435238.677596","436005.343376","436771.89971","437538.452953","438305.382146","439071.828725","439838.53006","440605.168015","444452.027101"
"Blocked","Male","ball","1","M_bluff.wav","None","729.561424567","221","434471.72707","441371.759904","442137.930395","442904.914311","443672.132268","444438.360573","445205.024499","445971.657198","435238.677596","436005.343376","436771.89971","437538.452953","438305.382146","439071.828725","439838.53006","440605.168015","445214.229401"
"Blocked","Male","cave","10","M_jolt.wav","None","729.778461522","221","449105.146992","441371.759904","442137.930395","442904.914311","443672.132268","444438.360573","445205.024499","445971.657198","435238.677596","436005.343376","436771.89971","437538.452953","438305.382146","439071.828725","439838.53006","440605.168015","445981.082229"
"Blocked","Male","cave","10","M_cave.wav","None","723.622588179","221","449105.146992","441371.759904","442137.930395","442904.914311","443672.132268","444438.360573","445205.024499","445971.657198","449871.584914","436005.343376","436771.89971","437538.452953","438305.382146","439071.828725","439838.53006","440605.168015","449114.981982"
"Blocked","Male","cave","10","M_depth.wav","space","387.454892174","221","449105.146992","441371.759904","442137.930395","442904.914311","443672.132268","444438.360573","445205.024499","445971.657198","449871.584914","450638.24482","436771.89971","437538.452953","438305.382146","439071.828725","439838.53006","440605.168015","449880.935745"
"Blocked","Male","cave","10","M_cad.wav","None","724.976132115","221","449105.146992","441371.759904","442137.930395","442904.914311","443672.132268","444438.360573","445205.024499","445971.657198","449871.584914","450638.24482","451404.40078","437538.452953","438305.382146","439071.828725","439838.53006","440605.168015","450647.557005"
"Blocked","Male","cave","10","M_jolt.wav","None","726.312362574","221","449105.146992","441371.759904","442137.930395","442904.914311","443672.132268","444438.360573","445205.024499","445971.657198","449871.584914","450638.24482","451404.40078","452171.022349","438305.382146","439071.828725","439838.53006","440605.168015","451413.350618"
"Blocked","Male","cave","10","M_cling.wav","None","726.735306409","221","449105.146992","441371.759904","442137.930395","442904.914311","443672.132268","444438.360573","445205.024499","445971.657198","449871.584914","450638.24482","451404.40078","452171.022349","452938.090359","439071.828725","439838.53006","440605.168015","452179.885929"
"Blocked","Male","cave","10","M_dime.wav","None","726.389036601","221","449105.146992","441371.759904","442137.930395","442904.914311","443672.132268","444438.360573","445205.024499","445971.657198","449871.584914","450638.24482","451404.40078","452171.022349","452938.090359","453704.723058","439838.53006","440605.168015","452947.401616"
"Blocked","Male","cave","10","M_greet.wav","None","727.415170069","221","449105.146992","441371.759904","442137.930395","442904.914311","443672.132268","444438.360573","445205.024499","445971.657198","449871.584914","450638.24482","451404.40078","452171.022349","452938.090359","453704.723058","454471.363487","440605.168015","453713.595604"
"Blocked","Male","cave","10","M_cave.wav","None","727.167525343","221","449105.146992","441371.759904","442137.930395","442904.914311","443672.132268","444438.360573","445205.024499","445971.657198","449871.584914","450638.24482","451404.40078","452171.022349","452938.090359","453704.723058","454471.363487","455238.088009","454480.931973"
"Blocked","Male","cave","10","M_depth.wav","space","444.443173415","221","449105.146992","456004.505836","442137.930395","442904.914311","443672.132268","444438.360573","445205.024499","445971.657198","449871.584914","450638.24482","451404.40078","452171.022349","452938.090359","453704.723058","454471.363487","455238.088009","455247.795622"
"Blocked","Male","cave","10","M_cave.wav","None","728.12533236","221","449105.146992","456004.505836","456771.20006","442904.914311","443672.132268","444438.360573","445205.024499","445971.657198","449871.584914","450638.24482","451404.40078","452171.022349","452938.090359","453704.723058","454471.363487","455238.088009","456013.906752"
"Blocked","Male","cave","10","M_depth.wav","space","512.081724621","221","449105.146992","456004.505836","456771.20006","457537.91067","443672.132268","444438.360573","445205.024499","445971.657198","449871.584914","450638.24482","451404.40078","452171.022349","452938.090359","453704.723058","454471.363487","455238.088009","456780.088064"
"Blocked","Male","cave","10","M_bluff.wav","None","728.493553208","221","449105.146992","456004.505836","456771.20006","457537.91067","458304.334061","444438.360573","445205.024499","445971.657198","449871.584914","450638.24482","451404.40078","452171.022349","452938.090359","453704.723058","454471.363487","455238.088009","457547.368473"
"Blocked","Male","cave","10","M_cave.wav","None","729.545038572","221","449105.146992","456004.505836","456771.20006","457537.91067","458304.334061","459071.224299","445205.024499","445971.657198","449871.584914","450638.24482","451404.40078","452171.022349","452938.090359","453704.723058","454471.363487","455238.088009","458313.467237"
"Blocked","Male","cave","10","M_cling.wav","space","427.743075226","221","449105.146992","456004.505836","456771.20006","457537.91067","458304.334061","459071.224299","459837.920378","445971.657198","449871.584914","450638.24482","451404.40078","452171.022349","452938.090359","453704.723058","454471.363487","455238.088009","459080.357783"
"Blocked","Male","cave","10","M_lash.wav","None","729.604708278","221","449105.146992","456004.505836","456771.20006","457537.91067","458304.334061","459071.224299","459837.920378","460604.354899","449871.584914","450638.24482","451404.40078","452171.022349","452938.090359","453704.723058","454471.363487","455238.088009","459847.286667"
"Blocked","Male","done","23","M_cad.wav","None","730.053313193","221","463738.390068","456004.505836","456771.20006","457537.91067","458304.334061","459071.224299","459837.920378","460604.354899","449871.584914","450638.24482","451404.40078","452171.022349","452938.090359","453704.723058","454471.363487","455238.088009","460614.12249"
"Blocked","Male","done","23","M_cad.wav","None","723.053407171","221","463738.390068","456004.505836","456771.20006","457537.91067","458304.334061","459071.224299","459837.920378","460604.354899","464504.39639","450638.24482","451404.40078","452171.022349","452938.090359","453704.723058","454471.363487","455238.088009","463748.144983"
"Blocked","Male","done","23","M_lash.wav","None","725.23305194","221","463738.390068","456004.505836","456771.20006","457537.91067","458304.334061","459071.224299","459837.920378","460604.354899","464504.39639","465271.056914","451404.40078","452171.022349","452938.090359","453704.723058","454471.363487","455238.088009","464513.20772"
"Blocked","Male","done","23","M_knife.wav","None","724.98942641","221","463738.390068","456004.505836","456771.20006","457537.91067","458304.334061","459071.224299","459837.920378","460604.354899","464504.39639","465271.056914","466037.440423","452171.022349","452938.090359","453704.723058","454471.363487","455238.088009","465280.605614"
"Blocked","Male","done","23","M_done.wav","None","726.312053404","221","463738.390068","456004.505836","456771.20006","457537.91067","458304.334061","459071.224299","459837.920378","460604.354899","464504.39639","465271.056914","466037.440423","466803.981608","452938.090359","453704.723058","454471.363487","455238.088009","466046.530624"
"Blocked","Male","done","23","M_gnash.wav","space","406.93751561","221","463738.390068","456004.505836","456771.20006","457537.91067","458304.334061","459071.224299","459837.920378","460604.354899","464504.39639","465271.056914","466037.440423","466803.981608","467571.008189","453704.723058","454471.363487","455238.088009","466812.969165"
"Blocked","Male","done","23","M_priest.wav","None","725.69247779","221","463738.390068","456004.505836","456771.20006","457537.91067","458304.334061","459071.224299","459837.920378","460604.354899","464504.39639","465271.056914","466037.440423","466803.981608","467571.008189","468337.304203","454471.363487","455238.088009","467580.467229"
"Blocked","Male","done","23","M_priest.wav","None","727.277589671","221","463738.390068","456004.505836","456771.20006","457537.91067","458304.334061","459071.224299","459837.920378","460604.354899","464504.39639","465271.056914","466037.440423","466803.981608","467571.008189","468337.304203","469104.110346","455238.088009","468346.120789"
"Blocked","Male","done","23","M_done.wav","None","726.53403708","221","463738.390068","456004.505836","456771.20006","457537.91067","458304.334061","459071.224299","459837.920378","460604.354899","464504.39639","465271.056914","466037.440423","466803.981608","467571.008189","468337.304203","469104.110346","469870.809208","469113.687798"
"Blocked","Male","done","23","M_greet.wav","space","395.910986394","221","463738.390068","470637.594946","456771.20006","457537.91067","458304.334061","459071.224299","459837.920378","460604.354899","464504.39639","465271.056914","466037.440423","466803.981608","467571.008189","468337.304203","469104.110346","469870.809208","469879.918268"
"Blocked","Male","done","23","M_ball.wav","None","727.354882023","221","463738.390068","470637.594946","471404.042144","457537.91067","458304.334061","459071.224299","459837.920378","460604.354899","464504.39639","465271.056914","466037.440423","466803.981608","467571.008189","468337.304203","469104.110346","469870.809208","470647.193731"
"Blocked","Male","done","23","M_done.wav","None","728.390908931","221","463738.390068","470637.594946","471404.042144","472170.861272","458304.334061","459071.224299","459837.920378","460604.354899","464504.39639","465271.056914","466037.440423","466803.981608","467571.008189","468337.304203","469104.110346","469870.809208","471413.354328"
"Blocked","Male","done","23","M_tile.wav","space","454.736661806","221","463738.390068","470637.594946","471404.042144","472170.861272","472937.795411","459071.224299","459837.920378","460604.354899","464504.39639","465271.056914","466037.440423","466803.981608","467571.008189","468337.304203","469104.110346","469870.809208","472180.984408"
"Blocked","Male","done","23","M_done.wav","None","728.526325169","221","463738.390068","470637.594946","471404.042144","472170.861272","472937.795411","473703.8849","459837.920378","460604.354899","464504.39639","465271.056914","466037.440423","466803.981608","467571.008189","468337.304203","469104.110346","469870.809208","472947.268364"
"Blocked","Male","done","23","M_cave.wav","space","450.303171587","221","463738.390068","470637.594946","471404.042144","472170.861272","472937.795411","473703.8849","474470.825841","460604.354899","464504.39639","465271.056914","466037.440423","466803.981608","467571.008189","468337.304203","469104.110346","469870.809208","473713.381968"
"Blocked","Male","done","23","M_bluff.wav","None","729.407458159","221","463738.390068","470637.594946","471404.042144","472170.861272","472937.795411","473703.8849","474470.825841","475237.516355","464504.39639","465271.056914","466037.440423","466803.981608","467571.008189","468337.304203","469104.110346","469870.809208","474480.35228"
"Blocked","Male","cave","8","M_romp.wav","None","729.92562619","221","478371.092716","470637.594946","471404.042144","472170.861272","472937.795411","473703.8849","474470.825841","475237.516355","464504.39639","465271.056914","466037.440423","466803.981608","467571.008189","468337.304203","469104.110346","469870.809208","475247.18563"
"Blocked","Male","cave","8","M_bluff.wav","None","722.516070629","221","478371.092716","470637.594946","471404.042144","472170.861272","472937.795411","473703.8849","474470.825841","475237.516355","479137.299689","465271.056914","466037.440423","466803.981608","467571.008189","468337.304203","469104.110346","469870.809208","478381.154637"
"Blocked","Male","cave","8","M_cave.wav","None","724.391801807","221","478371.092716","470637.594946","471404.042144","472170.861272","472937.795411","473703.8849","474470.825841","475237.516355","479137.299689","479904.072751","466037.440423","466803.981608","467571.008189","468337.304203","469104.110346","469870.809208","479146.82922"
"Blocked","Male","cave","8","M_dime.wav","None","724.961910324","221","478371.092716","470637.594946","471404.042144","472170.861272","472937.795411","473703.8849","474470.825841","475237.516355","479137.299689","479904.072751","480670.575599","466803.981608","467571.008189","468337.304203","469104.110346","469870.809208","479913.589606"
"Blocked","Male","cave","8","M_priest.wav","space","0.0352453207597","221","478371.092716","470637.594946","471404.042144","472170.861272","472937.795411","473703.8849","474470.825841","475237.516355","479137.299689","479904.072751","480670.575599","481436.921389","467571.008189","468337.304203","469104.110346","469870.809208","480680.089981"
"Blocked","Male","cave","8","M_jaw.wav","None","726.878142697","221","478371.092716","470637.594946","471404.042144","472170.861272","472937.795411","473703.8849","474470.825841","475237.516355","479137.299689","479904.072751","480670.575599","481436.921389","482203.498747","468337.304203","469104.110346","469870.809208","481445.923168"
"Blocked","Male","cave","8","M_cave.wav","None","727.45659879","221","478371.092716","470637.594946","471404.042144","472170.861272","472937.795411","473703.8849","474470.825841","475237.516355","479137.299689","479904.072751","480670.575599","481436.921389","482203.498747","482970.544806","469104.110346","469870.809208","482212.583074"
"Blocked","Male","cave","8","M_dime.wav","space","431.364068078","221","478371.092716","470637.594946","471404.042144","472170.861272","472937.795411","473703.8849","474470.825841","475237.516355","479137.299689","479904.072751","480670.575599","481436.921389","482203.498747","482970.544806","483736.946247","469870.809208","482979.995189"
"Blocked","Male","cave","8","M_cling.wav","None","727.950033266","221","478371.092716","470637.594946","471404.042144","472170.861272","472937.795411","473703.8849","474470.825841","475237.516355","479137.299689","479904.072751","480670.575599","481436.921389","482203.498747","482970.544806","483736.946247","484503.649127","483745.863312"
"Blocked","Male","cave","8","M_cave.wav","None","728.10369049","221","478371.092716","485270.495153","471404.042144","472170.861272","472937.795411","473703.8849","474470.825841","475237.516355","479137.299689","479904.072751","480670.575599","481436.921389","482203.498747","482970.544806","483736.946247","484503.649127","484513.011706"
"Blocked","Male","cave","8","M_jaw.wav","space","419.302439463","221","478371.092716","485270.495153","486036.984089","472170.861272","472937.795411","473703.8849","474470.825841","475237.516355","479137.299689","479904.072751","480670.575599","481436.921389","482203.498747","482970.544806","483736.946247","484503.649127","485280.028703"
"Blocked","Male","cave","8","M_cave.wav","None","728.745217144","221","478371.092716","485270.495153","486036.984089","486803.77632","472937.795411","473703.8849","474470.825841","475237.516355","479137.299689","479904.072751","480670.575599","481436.921389","482203.498747","482970.544806","483736.946247","484503.649127","486046.368619"
"Blocked","Male","cave","8","M_priest.wav","space","541.800949271","221","478371.092716","485270.495153","486036.984089","486803.77632","487570.441791","473703.8849","474470.825841","475237.516355","479137.299689","479904.072751","480670.575599","481436.921389","482203.498747","482970.544806","483736.946247","484503.649127","486813.49568"
"Blocked","Male","cave","8","M_bluff.wav","None","729.352735172","221","478371.092716","485270.495153","486036.984089","486803.77632","487570.441791","488337.0782","474470.825841","475237.516355","479137.299689","479904.072751","480670.575599","481436.921389","482203.498747","482970.544806","483736.946247","484503.649127","487579.799423"
"Blocked","Male","cave","8","M_jaw.wav","None","729.203406299","221","478371.092716","485270.495153","486036.984089","486803.77632","487570.441791","488337.0782","489103.725739","475237.516355","479137.299689","479904.072751","480670.575599","481436.921389","482203.498747","482970.544806","483736.946247","484503.649127","488346.732944"
"Blocked","Male","cave","8","M_knife.wav","None","730.086394309","221","478371.092716","485270.495153","486036.984089","486803.77632","487570.441791","488337.0782","489103.725739","489870.077094","479137.299689","479904.072751","480670.575599","481436.921389","482203.498747","482970.544806","483736.946247","484503.649127","489113.279695"
"Blocked","Male","cave","7","M_jolt.wav","None","731.645535969","221","493003.840812","485270.495153","486036.984089","486803.77632","487570.441791","488337.0782","489103.725739","489870.077094","479137.299689","479904.072751","480670.575599","481436.921389","482203.498747","482970.544806","483736.946247","484503.649127","489879.320025"
"Blocked","Male","cave","7","M_greet.wav","None","723.413280444","221","493003.840812","485270.495153","486036.984089","486803.77632","487570.441791","488337.0782","489103.725739","489870.077094","493770.181656","479904.072751","480670.575599","481436.921389","482203.498747","482970.544806","483736.946247","484503.649127","493013.662817"
"Blocked","Male","cave","7","M_cave.wav","None","724.861430237","221","493003.840812","485270.495153","486036.984089","486803.77632","487570.441791","488337.0782","489103.725739","489870.077094","493770.181656","494536.915762","480670.575599","481436.921389","482203.498747","482970.544806","483736.946247","484503.649127","493779.6206"
"Blocked","Male","cave","7","M_park.wav","space","488.490238902","221","493003.840812","485270.495153","486036.984089","486803.77632","487570.441791","488337.0782","489103.725739","489870.077094","493770.181656","494536.915762","495303.31813","481436.921389","482203.498747","482970.544806","483736.946247","484503.649127","494546.557212"
"Blocked","Male","cave","7","M_cave.wav","None","725.315600197","221","493003.840812","485270.495153","486036.984089","486803.77632","487570.441791","488337.0782","489103.725739","489870.077094","493770.181656","494536.915762","495303.31813","496070.048527","482203.498747","482970.544806","483736.946247","484503.649127","495313.166106"
"Blocked","Male","cave","7","M_gnash.wav","space","475.732051476","221","493003.840812","485270.495153","486036.984089","486803.77632","487570.441791","488337.0782","489103.725739","489870.077094","493770.181656","494536.915762","495303.31813","496070.048527","496836.833647","482970.544806","483736.946247","484503.649127","496079.261159"
"Blocked","Male","cave","7","M_park.wav","None","725.554588193","221","493003.840812","485270.495153","486036.984089","486803.77632","487570.441791","488337.0782","489103.725739","489870.077094","493770.181656","494536.915762","495303.31813","496070.048527","496836.833647","497603.158723","483736.946247","484503.649127","496846.440161"
"Blocked","Male","cave","7","M_gnash.wav","None","726.196114847","221","493003.840812","485270.495153","486036.984089","486803.77632","487570.441791","488337.0782","489103.725739","489870.077094","493770.181656","494536.915762","495303.31813","496070.048527","496836.833647","497603.158723","498370.062254","484503.649127","497612.539234"
"Blocked","Male","cave","7","M_depth.wav","None","726.588760081","221","493003.840812","485270.495153","486036.984089","486803.77632","487570.441791","488337.0782","489103.725739","489870.077094","493770.181656","494536.915762","495303.31813","496070.048527","496836.833647","497603.158723","498370.062254","499136.741947","498379.518821"
"Blocked","Male","cave","7","M_tile.wav","None","727.305724096","221","493003.840812","499903.280041","486036.984089","486803.77632","487570.441791","488337.0782","489103.725739","489870.077094","493770.181656","494536.915762","495303.31813","496070.048527","496836.833647","497603.158723","498370.062254","499136.741947","499146.375977"
"Blocked","Male","cave","7","M_tile.wav","None","728.489533998","221","493003.840812","499903.280041","500670.036099","486803.77632","487570.441791","488337.0782","489103.725739","489870.077094","493770.181656","494536.915762","495303.31813","496070.048527","496836.833647","497603.158723","498370.062254","499136.741947","499912.46392"
"Blocked","Male","cave","7","M_done.wav","None","729.080047677","221","493003.840812","499903.280041","500670.036099","501436.532763","487570.441791","488337.0782","489103.725739","489870.077094","493770.181656","494536.915762","495303.31813","496070.048527","496836.833647","497603.158723","498370.062254","499136.741947","500679.559755"
"Blocked","Male","cave","7","M_cave.wav","None","730.062897434","221","493003.840812","499903.280041","500670.036099","501436.532763","502202.936059","488337.0782","489103.725739","489870.077094","493770.181656","494536.915762","495303.31813","496070.048527","496836.833647","497603.158723","498370.062254","499136.741947","501446.070951"
"Blocked","Male","cave","7","M_bluff.wav","space","430.806635515","221","493003.840812","499903.280041","500670.036099","501436.532763","502202.936059","502969.878546","489103.725739","489870.077094","493770.181656","494536.915762","495303.31813","496070.048527","496836.833647","497603.158723","498370.062254","499136.741947","502211.99998"
"Blocked","Male","cave","7","M_cave.wav","None","731.188583493","221","493003.840812","499903.280041","500670.036099","501436.532763","502202.936059","502969.878546","503736.587919","489870.077094","493770.181656","494536.915762","495303.31813","496070.048527","496836.833647","497603.158723","498370.062254","499136.741947","502979.242671"
"Blocked","Male","cave","7","M_greet.wav","space","384.848284346","221","493003.840812","499903.280041","500670.036099","501436.532763","502202.936059","502969.878546","503736.587919","504503.254318","493770.181656","494536.915762","495303.31813","496070.048527","496836.833647","497603.158723","498370.062254","499136.741947","503745.932876"
"Blocked","Male","done","24","M_park.wav","None","732.545528284","221","507636.952183","499903.280041","500670.036099","501436.532763","502202.936059","502969.878546","503736.587919","504503.254318","493770.181656","494536.915762","495303.31813","496070.048527","496836.833647","497603.158723","498370.062254","499136.741947","504512.072759"
"Blocked","Male","done","24","M_done.wav","None","723.583941988","221","507636.952183","499903.280041","500670.036099","501436.532763","502202.936059","502969.878546","503736.587919","504503.254318","508402.934698","494536.915762","495303.31813","496070.048527","496836.833647","497603.158723","498370.062254","499136.741947","507646.708025"
"Blocked","Male","done","24","M_cave.wav","space","398.610345059","221","507636.952183","499903.280041","500670.036099","501436.532763","502202.936059","502969.878546","503736.587919","504503.254318","508402.934698","509169.798966","495303.31813","496070.048527","496836.833647","497603.158723","498370.062254","499136.741947","508412.007586"
"Blocked","Male","done","24","M_priest.wav","None","724.662015928","221","507636.952183","499903.280041","500670.036099","501436.532763","502202.936059","502969.878546","503736.587919","504503.254318","508402.934698","509169.798966","509936.425791","496070.048527","496836.833647","497603.158723","498370.062254","499136.741947","509179.381983"
"Blocked","Male","done","24","M_done.wav","None","725.660324169","221","507636.952183","499903.280041","500670.036099","501436.532763","502202.936059","502969.878546","503736.587919","504503.254318","508402.934698","509169.798966","509936.425791","510703.080441","496836.833647","497603.158723","498370.062254","499136.741947","509945.725918"
"Blocked","Male","done","24","M_reek.wav","space","418.125431286","221","507636.952183","499903.280041","500670.036099","501436.532763","502202.936059","502969.878546","503736.587919","504503.254318","508402.934698","509169.798966","509936.425791","510703.080441","511469.296689","497603.158723","498370.062254","499136.741947","510712.451677"
"Blocked","Male","done","24","M_done.wav","None","727.306342436","221","507636.952183","499903.280041","500670.036099","501436.532763","502202.936059","502969.878546","503736.587919","504503.254318","508402.934698","509169.798966","509936.425791","510703.080441","511469.296689","512236.369955","498370.062254","499136.741947","511478.385344"
"Blocked","Male","done","24","M_gnash.wav","space","508.535550776","221","507636.952183","499903.280041","500670.036099","501436.532763","502202.936059","502969.878546","503736.587919","504503.254318","508402.934698","509169.798966","509936.425791","510703.080441","511469.296689","512236.369955","513002.982249","499136.741947","512246.018516"
"Blocked","Male","done","24","M_cling.wav","None","727.356427873","221","507636.952183","499903.280041","500670.036099","501436.532763","502202.936059","502969.878546","503736.587919","504503.254318","508402.934698","509169.798966","509936.425791","510703.080441","511469.296689","512236.369955","513002.982249","513769.653594","513011.975989"
"Blocked","Male","done","24","M_park.wav","None","727.602835948","221","507636.952183","514536.255376","500670.036099","501436.532763","502202.936059","502969.878546","503736.587919","504503.254318","508402.934698","509169.798966","509936.425791","510703.080441","511469.296689","512236.369955","513002.982249","513769.653594","513779.169521"
"Blocked","Male","done","24","M_gnash.wav","None","728.523851809","221","507636.952183","514536.255376","515302.628683","501436.532763","502202.936059","502969.878546","503736.587919","504503.254318","508402.934698","509169.798966","509936.425791","510703.080441","511469.296689","512236.369955","513002.982249","513769.653594","514545.65351"
"Blocked","Male","done","24","M_cad.wav","None","729.934901276","221","507636.952183","514536.255376","515302.628683","516069.546127","502202.936059","502969.878546","503736.587919","504503.254318","508402.934698","509169.798966","509936.425791","510703.080441","511469.296689","512236.369955","513002.982249","513769.653594","515312.072264"
"Blocked","Male","done","24","M_done.wav","None","730.488932968","221","507636.952183","514536.255376","515302.628683","516069.546127","516836.178826","502969.878546","503736.587919","504503.254318","508402.934698","509169.798966","509936.425791","510703.080441","511469.296689","512236.369955","513002.982249","513769.653594","516078.94426"
"Blocked","Male","done","24","M_jaw.wav","space","548.769320012","221","507636.952183","514536.255376","515302.628683","516069.546127","516836.178826","517602.482878","503736.587919","504503.254318","508402.934698","509169.798966","509936.425791","510703.080441","511469.296689","512236.369955","513002.982249","513769.653594","516845.601075"
"Blocked","Male","done","24","M_ball.wav","None","731.905547495","221","507636.952183","514536.255376","515302.628683","516069.546127","516836.178826","517602.482878","518369.519662","504503.254318","508402.934698","509169.798966","509936.425791","510703.080441","511469.296689","512236.369955","513002.982249","513769.653594","517611.724881"
"Blocked","Male","done","24","M_gnash.wav","None","732.064151423","221","507636.952183","514536.255376","515302.628683","516069.546127","516836.178826","517602.482878","518369.519662","519135.988811","508402.934698","509169.798966","509936.425791","510703.080441","511469.296689","512236.369955","513002.982249","513769.653594","518379.024768"
"Blocked","Male","ball","3","M_jaw.wav","None","732.994133199","221","522269.690076","514536.255376","515302.628683","516069.546127","516836.178826","517602.482878","518369.519662","519135.988811","508402.934698","509169.798966","509936.425791","510703.080441","511469.296689","512236.369955","513002.982249","513769.653594","519145.519269"
"Blocked","Male","ball","3","M_lash.wav","None","722.406624627","221","522269.690076","514536.255376","515302.628683","516069.546127","516836.178826","517602.482878","518369.519662","519135.988811","523036.305153","509169.798966","509936.425791","510703.080441","511469.296689","512236.369955","513002.982249","513769.653594","522279.518883"
"Blocked","Male","ball","3","M_gnash.wav","None","723.213556965","221","522269.690076","514536.255376","515302.628683","516069.546127","516836.178826","517602.482878","518369.519662","519135.988811","523036.305153","523802.769355","509936.425791","510703.080441","511469.296689","512236.369955","513002.982249","513769.653594","523046.336465"
"Blocked","Male","ball","3","M_cave.wav","None","725.042294376","221","522269.690076","514536.255376","515302.628683","516069.546127","516836.178826","517602.482878","518369.519662","519135.988811","523036.305153","523802.769355","524569.301574","510703.080441","511469.296689","512236.369955","513002.982249","513769.653594","523812.383907"
"Blocked","Male","ball","3","M_park.wav","None","726.238471063","221","522269.690076","514536.255376","515302.628683","516069.546127","516836.178826","517602.482878","518369.519662","519135.988811","523036.305153","523802.769355","524569.301574","525336.20356","511469.296689","512236.369955","513002.982249","513769.653594","524578.764015"
"Blocked","Male","ball","3","M_tile.wav","None","726.538983799","221","522269.690076","514536.255376","515302.628683","516069.546127","516836.178826","517602.482878","518369.519662","519135.988811","523036.305153","523802.769355","524569.301574","525336.20356","526102.465874","512236.369955","513002.982249","513769.653594","525345.790596"
"Blocked","Male","ball","3","M_ball.wav","None","728.193040472","221","522269.690076","514536.255376","515302.628683","516069.546127","516836.178826","517602.482878","518369.519662","519135.988811","523036.305153","523802.769355","524569.301574","525336.20356","526102.465874","526869.197198","513002.982249","513769.653594","526111.796609"
"Blocked","Male","ball","3","M_cad.wav","space","331.426272969","221","522269.690076","514536.255376","515302.628683","516069.546127","516836.178826","517602.482878","518369.519662","519135.988811","523036.305153","523802.769355","524569.301574","525336.20356","526102.465874","526869.197198","527635.8738","513769.653594","526878.665513"
"Blocked","Male","ball","3","M_cave.wav","None","729.25967515","221","522269.690076","514536.255376","515302.628683","516069.546127","516836.178826","517602.482878","518369.519662","519135.988811","523036.305153","523802.769355","524569.301574","525336.20356","526102.465874","526869.197198","527635.8738","528402.334291","527645.277498"
"Blocked","Male","ball","3","M_ball.wav","None","731.200641094","221","522269.690076","529169.16826","515302.628683","516069.546127","516836.178826","517602.482878","518369.519662","519135.988811","523036.305153","523802.769355","524569.301574","525336.20356","526102.465874","526869.197198","527635.8738","528402.334291","528411.613395"
"Blocked","Male","ball","3","M_cad.wav","space","391.385672847","221","522269.690076","529169.16826","529935.64421","516069.546127","516836.178826","517602.482878","518369.519662","519135.988811","523036.305153","523802.769355","524569.301574","525336.20356","526102.465874","526869.197198","527635.8738","528402.334291","529178.64214"
"Blocked","Male","ball","3","M_dime.wav","None","732.585101985","221","522269.690076","529169.16826","529935.64421","530702.091717","516836.178826","517602.482878","518369.519662","519135.988811","523036.305153","523802.769355","524569.301574","525336.20356","526102.465874","526869.197198","527635.8738","528402.334291","529944.474709"
"Blocked","Male","ball","3","M_ball.wav","None","733.816214823","221","522269.690076","529169.16826","529935.64421","530702.091717","531469.008543","517602.482878","518369.519662","519135.988811","523036.305153","523802.769355","524569.301574","525336.20356","526102.465874","526869.197198","527635.8738","528402.334291","530710.942311"
"Blocked","Male","ball","3","M_gnash.wav","space","379.435345239","221","522269.690076","529169.16826","529935.64421","530702.091717","531469.008543","532235.741722","518369.519662","519135.988811","523036.305153","523802.769355","524569.301574","525336.20356","526102.465874","526869.197198","527635.8738","528402.334291","531478.52818"
"Blocked","Male","ball","3","M_ball.wav","None","733.684817809","221","522269.690076","529169.16826","529935.64421","530702.091717","531469.008543","532235.741722","533001.767213","519135.988811","523036.305153","523802.769355","524569.301574","525336.20356","526102.465874","526869.197198","527635.8738","528402.334291","532245.321648"
"Blocked","Male","ball","3","M_romp.wav","space","447.53857817","221","522269.690076","529169.16826","529935.64421","530702.091717","531469.008543","532235.741722","533001.767213","533769.383689","523036.305153","523802.769355","524569.301574","525336.20356","526102.465874","526869.197198","527635.8738","528402.334291","533010.345429"
"Blocked","Male","tile","15","M_reek.wav","None","735.756562426","221","536919.096533","529169.16826","529935.64421","530702.091717","531469.008543","532235.741722","533001.767213","533769.383689","523036.305153","523802.769355","524569.301574","525336.20356","526102.465874","526869.197198","527635.8738","528402.334291","533778.077535"
"Blocked","Male","tile","15","M_tile.wav","None","722.956018799","221","536919.096533","529169.16826","529935.64421","530702.091717","531469.008543","532235.741722","533001.767213","533769.383689","537685.637718","523802.769355","524569.301574","525336.20356","526102.465874","526869.197198","527635.8738","528402.334291","536928.927503"
"Blocked","Male","tile","15","M_reek.wav","space","490.812410819","221","536919.096533","529169.16826","529935.64421","530702.091717","531469.008543","532235.741722","533001.767213","533769.383689","537685.637718","538452.504149","524569.301574","525336.20356","526102.465874","526869.197198","527635.8738","528402.334291","537694.93599"
"Blocked","Male","tile","15","M_lash.wav","None","723.574048563","221","536919.096533","529169.16826","529935.64421","530702.091717","531469.008543","532235.741722","533001.767213","533769.383689","537685.637718","538452.504149","539218.857668","525336.20356","526102.465874","526869.197198","527635.8738","528402.334291","538462.314406"
"Blocked","Male","tile","15","M_ball.wav","None","724.651813332","221","536919.096533","529169.16826","529935.64421","530702.091717","531469.008543","532235.741722","533001.767213","533769.383689","537685.637718","538452.504149","539218.857668","539985.542926","526102.465874","526869.197198","527635.8738","528402.334291","539228.908459"
"Blocked","Male","tile","15","M_cave.wav","None","726.875978522","221","536919.096533","529169.16826","529935.64421","530702.091717","531469.008543","532235.741722","533001.767213","533769.383689","537685.637718","538452.504149","539218.857668","539985.542926","540752.138525","526869.197198","527635.8738","528402.334291","539994.845217"
"Blocked","Male","tile","15","M_bluff.wav","None","728.390908931","221","536919.096533","529169.16826","529935.64421","530702.091717","531469.008543","532235.741722","533001.767213","533769.383689","537685.637718","538452.504149","539218.857668","539985.542926","540752.138525","541518.82502","527635.8738","528402.334291","540761.149269"
"Blocked","Male","tile","15","M_tile.wav","None","729.087776926","221","536919.096533","529169.16826","529935.64421","530702.091717","531469.008543","532235.741722","533001.767213","533769.383689","537685.637718","538452.504149","539218.857668","539985.542926","540752.138525","541518.82502","542285.090735","528402.334291","541528.216352"
"Blocked","Male","tile","15","M_priest.wav","space","403.515009559","221","536919.096533","529169.16826","529935.64421","530702.091717","531469.008543","532235.741722","533001.767213","533769.383689","537685.637718","538452.504149","539218.857668","539985.542926","540752.138525","541518.82502","542285.090735","543052.046516","542294.05665"
"Blocked","Male","tile","15","M_tile.wav","None","730.197386161","221","536919.096533","543818.257818","529935.64421","530702.091717","531469.008543","532235.741722","533001.767213","533769.383689","537685.637718","538452.504149","539218.857668","539985.542926","540752.138525","541518.82502","542285.090735","543052.046516","543061.8206"
"Blocked","Male","tile","15","M_cling.wav","space","382.544971784","221","536919.096533","543818.257818","544585.2878","530702.091717","531469.008543","532235.741722","533001.767213","533769.383689","537685.637718","538452.504149","539218.857668","539985.542926","540752.138525","541518.82502","542285.090735","543052.046516","543827.023391"
"Blocked","Male","tile","15","M_park.wav","None","731.870302174","221","536919.096533","543818.257818","544585.2878","545351.724795","531469.008543","532235.741722","533001.767213","533769.383689","537685.637718","538452.504149","539218.857668","539985.542926","540752.138525","541518.82502","542285.090735","543052.046516","544594.761989"
"Blocked","Male","tile","15","M_ball.wav","space","384.032386122","221","536919.096533","543818.257818","544585.2878","545351.724795","546118.672228","532235.741722","533001.767213","533769.383689","537685.637718","538452.504149","539218.857668","539985.542926","540752.138525","541518.82502","542285.090735","543052.046516","545361.504753"
"Blocked","Male","tile","15","M_tile.wav","None","732.750507668","221","536919.096533","543818.257818","544585.2878","545351.724795","546118.672228","546884.949692","533001.767213","533769.383689","537685.637718","538452.504149","539218.857668","539985.542926","540752.138525","541518.82502","542285.090735","543052.046516","546128.553594"
"Blocked","Male","tile","15","M_jolt.wav","space","435.607109903","221","536919.096533","543818.257818","544585.2878","545351.724795","546118.672228","546884.949692","547651.930207","533769.383689","537685.637718","538452.504149","539218.857668","539985.542926","540752.138525","541518.82502","542285.090735","543052.046516","546893.897984"
"Blocked","Male","tile","15","M_gnash.wav","None","735.325580186","221","536919.096533","543818.257818","544585.2878","545351.724795","546118.672228","546884.949692","547651.930207","548435.893401","537685.637718","538452.504149","539218.857668","539985.542926","540752.138525","541518.82502","542285.090735","543052.046516","547661.164481"
"Blocked","Male","cave","9","M_jolt.wav","None","718.72503456","221","551569.061349","543818.257818","544585.2878","545351.724795","546118.672228","546884.949692","547651.930207","548435.893401","537685.637718","538452.504149","539218.857668","539985.542926","540752.138525","541518.82502","542285.090735","543052.046516","548445.895652"
"Blocked","Male","cave","9","M_priest.wav","None","722.954472934","221","551569.061349","543818.257818","544585.2878","545351.724795","546118.672228","546884.949692","547651.930207","548435.893401","552335.124867","538452.504149","539218.857668","539985.542926","540752.138525","541518.82502","542285.090735","543052.046516","551578.895103"
"Blocked","Male","cave","9","M_cad.wav","None","724.657996732","221","551569.061349","543818.257818","544585.2878","545351.724795","546118.672228","546884.949692","547651.930207","548435.893401","552335.124867","553101.430774","539218.857668","539985.542926","540752.138525","541518.82502","542285.090735","543052.046516","552344.837117"
"Blocked","Male","cave","9","M_cave.wav","None","726.540529649","221","551569.061349","543818.257818","544585.2878","545351.724795","546118.672228","546884.949692","547651.930207","548435.893401","552335.124867","553101.430774","553868.454264","539985.542926","540752.138525","541518.82502","542285.090735","543052.046516","553110.92877"
"Blocked","Male","cave","9","M_depth.wav","space","475.451634775","221","551569.061349","543818.257818","544585.2878","545351.724795","546118.672228","546884.949692","547651.930207","548435.893401","552335.124867","553101.430774","553868.454264","554635.087582","540752.138525","541518.82502","542285.090735","543052.046516","553877.827355"
"Blocked","Male","cave","9","M_cad.wav","None","732.646008371","221","551569.061349","543818.257818","544585.2878","545351.724795","546118.672228","546884.949692","547651.930207","548435.893401","552335.124867","553101.430774","553868.454264","554635.087582","555401.673905","541518.82502","542285.090735","543052.046516","554639.247766"
"Blocked","Male","cave","9","M_lash.wav","None","728.652775477","221","551569.061349","543818.257818","544585.2878","545351.724795","546118.672228","546884.949692","547651.930207","548435.893401","552335.124867","553101.430774","553868.454264","554635.087582","555401.673905","556168.37524","542285.090735","543052.046516","555410.813882"
"Blocked","Male","cave","9","M_cave.wav","None","729.372522008","221","551569.061349","543818.257818","544585.2878","545351.724795","546118.672228","546884.949692","547651.930207","548435.893401","552335.124867","553101.430774","553868.454264","554635.087582","555401.673905","556168.37524","556934.673109","543052.046516","556177.829334"
"Blocked","Male","cave","9","M_bluff.wav","space","489.237501519","221","551569.061349","543818.257818","544585.2878","545351.724795","546118.672228","546884.949692","547651.930207","548435.893401","552335.124867","553101.430774","553868.454264","554635.087582","555401.673905","556168.37524","556934.673109","557701.169774","556943.939846"
"Blocked","Male","cave","9","M_cave.wav","None","731.472401065","221","551569.061349","558468.285086","544585.2878","545351.724795","546118.672228","546884.949692","547651.930207","548435.893401","552335.124867","553101.430774","553868.454264","554635.087582","555401.673905","556168.37524","556934.673109","557701.169774","557709.944312"
"Blocked","Male","cave","9","M_jolt.wav","space","619.521516957","221","551569.061349","558468.285086","559234.940973","545351.724795","546118.672228","546884.949692","547651.930207","548435.893401","552335.124867","553101.430774","553868.454264","554635.087582","555401.673905","556168.37524","556934.673109","557701.169774","558477.617985"
"Blocked","Male","cave","9","M_jolt.wav","None","731.275150931","221","551569.061349","558468.285086","559234.940973","560001.611082","546118.672228","546884.949692","547651.930207","548435.893401","552335.124867","553101.430774","553868.454264","554635.087582","555401.673905","556168.37524","556934.673109","557701.169774","559244.369096"
"Blocked","Male","cave","9","M_cave.wav","None","732.303448603","221","551569.061349","558468.285086","559234.940973","560001.611082","560768.241926","546884.949692","547651.930207","548435.893401","552335.124867","553101.430774","553868.454264","554635.087582","555401.673905","556168.37524","556934.673109","557701.169774","560010.990666"
"Blocked","Male","cave","9","M_lash.wav","space","511.305090913","221","551569.061349","558468.285086","559234.940973","560001.611082","560768.241926","561534.871225","547651.930207","548435.893401","552335.124867","553101.430774","553868.454264","554635.087582","555401.673905","556168.37524","556934.673109","557701.169774","560777.74425"
"Blocked","Male","cave","9","M_tile.wav","None","733.515392931","221","551569.061349","558468.285086","559234.940973","560001.611082","560768.241926","561534.871225","562318.51752","548435.893401","552335.124867","553101.430774","553868.454264","554635.087582","555401.673905","556168.37524","556934.673109","557701.169774","561544.146309"
"Blocked","Male","cave","9","M_done.wav","None","718.72534373","221","551569.061349","558468.285086","559234.940973","560001.611082","560768.241926","561534.871225","562318.51752","563085.182682","552335.124867","553101.430774","553868.454264","554635.087582","555401.673905","556168.37524","556934.673109","557701.169774","562328.183704"
"Blocked","Male","ball","5","M_priest.wav","None","719.424994255","221","566218.382784","558468.285086","559234.940973","560001.611082","560768.241926","561534.871225","562318.51752","563085.182682","552335.124867","553101.430774","553868.454264","554635.087582","555401.673905","556168.37524","556934.673109","557701.169774","563095.222033"
"Blocked","Male","ball","5","M_ball.wav","None","722.810709136","221","566218.382784","558468.285086","559234.940973","560001.611082","560768.241926","561534.871225","562318.51752","563085.182682","566984.664267","553101.430774","553868.454264","554635.087582","555401.673905","556168.37524","556934.673109","557701.169774","566228.260749"
"Blocked","Male","ball","5","M_bluff.wav","space","542.894790866","221","566218.382784","558468.285086","559234.940973","560001.611082","560768.241926","561534.871225","562318.51752","563085.182682","566984.664267","567751.375186","553868.454264","554635.087582","555401.673905","556168.37524","556934.673109","557701.169774","566993.990364"
"Blocked","Male","ball","5","M_depth.wav","None","725.179565634","221","566218.382784","558468.285086","559234.940973","560001.611082","560768.241926","561534.871225","562318.51752","563085.182682","566984.664267","567751.375186","568517.95007","554635.087582","555401.673905","556168.37524","556934.673109","557701.169774","567760.793415"
"Blocked","Male","ball","5","M_greet.wav","None","725.962382727","221","566218.382784","558468.285086","559234.940973","560001.611082","560768.241926","561534.871225","562318.51752","563085.182682","566984.664267","567751.375186","568517.95007","569284.656043","555401.673905","556168.37524","556934.673109","557701.169774","568527.764655"
"Blocked","Male","ball","5","M_dime.wav","None","727.600980928","221","566218.382784","558468.285086","559234.940973","560001.611082","560768.241926","561534.871225","562318.51752","563085.182682","566984.664267","567751.375186","568517.95007","569284.656043","570051.28194","556168.37524","556934.673109","557701.169774","569294.033462"
"Blocked","Male","ball","5","M_gnash.wav","None","729.00461033","221","566218.382784","558468.285086","559234.940973","560001.611082","560768.241926","561534.871225","562318.51752","563085.182682","566984.664267","567751.375186","568517.95007","569284.656043","570051.28194","570817.91433","556934.673109","557701.169774","570060.54373"
"Blocked","Male","ball","5","M_tile.wav","None","729.938302145","221","566218.382784","558468.285086","559234.940973","560001.611082","560768.241926","561534.871225","562318.51752","563085.182682","566984.664267","567751.375186","568517.95007","569284.656043","570051.28194","570817.91433","571584.566198","557701.169774","570827.40336"
"Blocked","Male","ball","5","M_cad.wav","None","730.751417839","221","566218.382784","558468.285086","559234.940973","560001.611082","560768.241926","561534.871225","562318.51752","563085.182682","566984.664267","567751.375186","568517.95007","569284.656043","570051.28194","570817.91433","571584.566198","572351.066882","571594.480645"
"Blocked","Male","ball","5","M_ball.wav","None","733.121511017","221","566218.382784","573117.749048","559234.940973","560001.611082","560768.241926","561534.871225","562318.51752","563085.182682","566984.664267","567751.375186","568517.95007","569284.656043","570051.28194","570817.91433","571584.566198","572351.066882","572360.389887"
"Blocked","Male","ball","5","M_priest.wav","space","433.406750788","221","566218.382784","573117.749048","573883.951693","560001.611082","560768.241926","561534.871225","562318.51752","563085.182682","566984.664267","567751.375186","568517.95007","569284.656043","570051.28194","570817.91433","571584.566198","572351.066882","573127.280743"
"Blocked","Male","ball","5","M_bluff.wav","None","735.518192771","221","566218.382784","573117.749048","573883.951693","574651.134714","560768.241926","561534.871225","562318.51752","563085.182682","566984.664267","567751.375186","568517.95007","569284.656043","570051.28194","570817.91433","571584.566198","572351.066882","573892.769825"
"Blocked","Male","ball","5","M_ball.wav","None","736.013791437","221","566218.382784","573117.749048","573883.951693","574651.134714","575434.257894","561534.871225","562318.51752","563085.182682","566984.664267","567751.375186","568517.95007","569284.656043","570051.28194","570817.91433","571584.566198","572351.066882","574660.263252"
"Blocked","Male","ball","5","M_cad.wav","space","509.570031834","221","566218.382784","573117.749048","573883.951693","574651.134714","575434.257894","576201.428239","562318.51752","563085.182682","566984.664267","567751.375186","568517.95007","569284.656043","570051.28194","570817.91433","571584.566198","572351.066882","575443.066751"
"Blocked","Male","ball","5","M_ball.wav","None","720.400423932","221","566218.382784","573117.749048","573883.951693","574651.134714","575434.257894","576201.428239","576967.678496","563085.182682","566984.664267","567751.375186","568517.95007","569284.656043","570051.28194","570817.91433","571584.566198","572351.066882","576211.244061"
"Blocked","Male","ball","5","M_reek.wav","space","591.97853622","221","566218.382784","573117.749048","573883.951693","574651.134714","575434.257894","576201.428239","576967.678496","577734.245033","566984.664267","567751.375186","568517.95007","569284.656043","570051.28194","570817.91433","571584.566198","572351.066882","576976.633899"
"Blocked","Male","done","22","M_jolt.wav","None","722.743619364","221","580867.851693","573117.749048","573883.951693","574651.134714","575434.257894","576201.428239","576967.678496","577734.245033","566984.664267","567751.375186","568517.95007","569284.656043","570051.28194","570817.91433","571584.566198","572351.066882","577743.527228"
"Blocked","Male","done","22","M_done.wav","None","722.809781626","221","580867.851693","573117.749048","573883.951693","574651.134714","575434.257894","576201.428239","576967.678496","577734.245033","581634.265809","567751.375186","568517.95007","569284.656043","570051.28194","570817.91433","571584.566198","572351.066882","580878.053667"
"Blocked","Male","done","22","M_knife.wav","space","492.865605265","221","580867.851693","573117.749048","573883.951693","574651.134714","575434.257894","576201.428239","576967.678496","577734.245033","581634.265809","582400.948903","568517.95007","569284.656043","570051.28194","570817.91433","571584.566198","572351.066882","581643.542439"
"Blocked","Male","done","22","M_done.wav","None","725.225013535","221","580867.851693","573117.749048","573883.951693","574651.134714","575434.257894","576201.428239","576967.678496","577734.245033","581634.265809","582400.948903","583167.454534","569284.656043","570051.28194","570817.91433","571584.566198","572351.066882","582410.394649"
"Blocked","Male","done","22","M_bluff.wav","space","455.299350258","221","580867.851693","573117.749048","573883.951693","574651.134714","575434.257894","576201.428239","576967.678496","577734.245033","581634.265809","582400.948903","583167.454534","583934.235943","570051.28194","570817.91433","571584.566198","572351.066882","583177.083926"
"Blocked","Male","done","22","M_knife.wav","None","726.307725039","221","580867.851693","573117.749048","573883.951693","574651.134714","575434.257894","576201.428239","576967.678496","577734.245033","581634.265809","582400.948903","583167.454534","583934.235943","584700.638311","570817.91433","571584.566198","572351.066882","583943.969217"
"Blocked","Male","done","22","M_depth.wav","None","728.730995339","221","580867.851693","573117.749048","573883.951693","574651.134714","575434.257894","576201.428239","576967.678496","577734.245033","581634.265809","582400.948903","583167.454534","583934.235943","584700.638311","585467.454039","571584.566198","572351.066882","584709.973374"
"Blocked","Male","done","22","M_cave.wav","None","730.363719325","221","580867.851693","573117.749048","573883.951693","574651.134714","575434.257894","576201.428239","576967.678496","577734.245033","581634.265809","582400.948903","583167.454534","583934.235943","584700.638311","585467.454039","586234.141152","572351.066882","585476.769624"
"Blocked","Male","done","22","M_tile.wav","None","731.362645893","221","580867.851693","573117.749048","573883.951693","574651.134714","575434.257894","576201.428239","576967.678496","577734.245033","581634.265809","582400.948903","583167.454534","583934.235943","584700.638311","585467.454039","586234.141152","587000.762721","586243.741173"
"Blocked","Male","done","22","M_done.wav","None","733.67616105","221","580867.851693","587767.054097","573883.951693","574651.134714","575434.257894","576201.428239","576967.678496","577734.245033","581634.265809","582400.948903","583167.454534","583934.235943","584700.638311","585467.454039","586234.141152","587000.762721","587009.740075"
"Blocked","Male","done","22","M_cling.wav","space","400.331182347","221","580867.851693","587767.054097","588533.766253","574651.134714","575434.257894","576201.428239","576967.678496","577734.245033","581634.265809","582400.948903","583167.454534","583934.235943","584700.638311","585467.454039","586234.141152","587000.762721","587775.92386"
"Blocked","Male","done","22","M_gnash.wav","None","735.05382023","221","580867.851693","587767.054097","588533.766253","589300.599912","575434.257894","576201.428239","576967.678496","577734.245033","581634.265809","582400.948903","583167.454534","583934.235943","584700.638311","585467.454039","586234.141152","587000.762721","588542.79091"
"Blocked","Male","done","22","M_depth.wav","None","735.739867276","221","580867.851693","587767.054097","588533.766253","589300.599912","590084.784472","576201.428239","576967.678496","577734.245033","581634.265809","582400.948903","583167.454534","583934.235943","584700.638311","585467.454039","586234.141152","587000.762721","589309.871596"
"Blocked","Male","done","22","M_cave.wav","None","719.749003852","221","580867.851693","587767.054097","588533.766253","589300.599912","590084.784472","590850.95589","576967.678496","577734.245033","581634.265809","582400.948903","583167.454534","583934.235943","584700.638311","585467.454039","586234.141152","587000.762721","590094.327915"
"Blocked","Male","done","22","M_done.wav","None","720.99897603","221","580867.851693","587767.054097","588533.766253","589300.599912","590084.784472","590850.95589","591617.718131","577734.245033","581634.265809","582400.948903","583167.454534","583934.235943","584700.638311","585467.454039","586234.141152","587000.762721","590861.053056"
"Blocked","Male","done","22","M_cling.wav","space","692.773039918","221","580867.851693","587767.054097","588533.766253","589300.599912","590084.784472","590850.95589","591617.718131","592384.378965","581634.265809","582400.948903","583167.454534","583934.235943","584700.638311","585467.454039","586234.141152","587000.762721","591627.362673"
"Blocked","Male","tile","16","M_lash.wav","None","722.344481561","221","595517.563609","587767.054097","588533.766253","589300.599912","590084.784472","590850.95589","591617.718131","592384.378965","581634.265809","582400.948903","583167.454534","583934.235943","584700.638311","585467.454039","586234.141152","587000.762721","592394.325565"
"Blocked","Male","tile","16","M_depth.wav","None","723.118641938","221","595517.563609","587767.054097","588533.766253","589300.599912","590084.784472","590850.95589","591617.718131","592384.378965","596283.872917","582400.948903","583167.454534","583934.235943","584700.638311","585467.454039","586234.141152","587000.762721","595527.140133"
"Blocked","Male","tile","16","M_done.wav","None","724.708391353","221","595517.563609","587767.054097","588533.766253","589300.599912","590084.784472","590850.95589","591617.718131","592384.378965","596283.872917","597050.106169","583167.454534","583934.235943","584700.638311","585467.454039","586234.141152","587000.762721","596293.705124"
"Blocked","Male","tile","16","M_romp.wav","space","541.019368859","221","595517.563609","587767.054097","588533.766253","589300.599912","590084.784472","590850.95589","591617.718131","592384.378965","596283.872917","597050.106169","597816.712279","583934.235943","584700.638311","585467.454039","586234.141152","587000.762721","597058.971913"
"Blocked","Male","tile","16","M_tile.wav","None","727.6742541","221","595517.563609","587767.054097","588533.766253","589300.599912","590084.784472","590850.95589","591617.718131","592384.378965","596283.872917","597050.106169","597816.712279","598583.752773","584700.638311","585467.454039","586234.141152","587000.762721","597825.848856"
"Blocked","Male","tile","16","M_cling.wav","space","654.762508377","221","595517.563609","587767.054097","588533.766253","589300.599912","590084.784472","590850.95589","591617.718131","592384.378965","596283.872917","597050.106169","597816.712279","598583.752773","599350.395057","585467.454039","586234.141152","587000.762721","598593.156781"
"Blocked","Male","tile","16","M_cad.wav","None","727.542857072","221","595517.563609","587767.054097","588533.766253","589300.599912","590084.784472","590850.95589","591617.718131","592384.378965","596283.872917","597050.106169","597816.712279","598583.752773","599350.395057","600117.022191","586234.141152","587000.762721","599360.065878"
"Blocked","Male","tile","16","M_tile.wav","None","730.33929494","221","595517.563609","587767.054097","588533.766253","589300.599912","590084.784472","590850.95589","591617.718131","592384.378965","596283.872917","597050.106169","597816.712279","598583.752773","599350.395057","600117.022191","600883.377256","587000.762721","600126.452478"
"Blocked","Male","tile","16","M_reek.wav","space","611.392214865","221","595517.563609","587767.054097","588533.766253","589300.599912","590084.784472","590850.95589","591617.718131","592384.378965","596283.872917","597050.106169","597816.712279","598583.752773","599350.395057","600117.022191","600883.377256","601650.351278","600892.469312"
"Blocked","Male","tile","16","M_tile.wav","None","732.487095273","221","595517.563609","602416.879787","588533.766253","589300.599912","590084.784472","590850.95589","591617.718131","592384.378965","596283.872917","597050.106169","597816.712279","598583.752773","599350.395057","600117.022191","600883.377256","601650.351278","601659.678303"
"Blocked","Male","tile","16","M_lash.wav","space","645.343042081","221","595517.563609","602416.879787","603183.303797","589300.599912","590084.784472","590850.95589","591617.718131","592384.378965","596283.872917","597050.106169","597816.712279","598583.752773","599350.395057","600117.022191","600883.377256","601650.351278","602426.478572"
"Blocked","Male","tile","16","M_gnash.wav","None","734.908510567","221","595517.563609","602416.879787","603183.303797","603967.352631","590084.784472","590850.95589","591617.718131","592384.378965","596283.872917","597050.106169","597816.712279","598583.752773","599350.395057","600117.022191","600883.377256","601650.351278","603192.910311"
"Blocked","Male","tile","16","M_jaw.wav","None","724.684585308","221","595517.563609","602416.879787","603183.303797","603967.352631","604734.008827","590850.95589","591617.718131","592384.378965","596283.872917","597050.106169","597816.712279","598583.752773","599350.395057","600117.022191","600883.377256","601650.351278","603971.278465"
"Blocked","Male","tile","16","M_tile.wav","None","720.659198778","221","595517.563609","602416.879787","603183.303797","603967.352631","604734.008827","605500.350907","591617.718131","592384.378965","596283.872917","597050.106169","597816.712279","598583.752773","599350.395057","600117.022191","600883.377256","601650.351278","604743.85402"
"Blocked","Male","tile","16","M_jaw.wav","space","425.732855307","221","595517.563609","602416.879787","603183.303797","603967.352631","604734.008827","605500.350907","606266.74029","592384.378965","596283.872917","597050.106169","597816.712279","598583.752773","599350.395057","600117.022191","600883.377256","601650.351278","605509.992667"
"Blocked","Male","tile","16","M_reek.wav","None","723.766351963","221","595517.563609","602416.879787","603183.303797","603967.352631","604734.008827","605500.350907","606266.74029","607033.507478","596283.872917","597050.106169","597816.712279","598583.752773","599350.395057","600117.022191","600883.377256","601650.351278","606275.836056"
"Blocked","Male","tile","14","M_done.wav","None","724.912752368","221","610167.352817","602416.879787","603183.303797","603967.352631","604734.008827","605500.350907","606266.74029","607033.507478","596283.872917","597050.106169","597816.712279","598583.752773","599350.395057","600117.022191","600883.377256","601650.351278","607042.959098"
"Blocked","Male","tile","14","M_tile.wav","None","722.831423482","221","610167.352817","602416.879787","603183.303797","603967.352631","604734.008827","605500.350907","606266.74029","607033.507478","610933.342444","597050.106169","597816.712279","598583.752773","599350.395057","600117.022191","600883.377256","601650.351278","610177.140813"
"Blocked","Male","tile","14","M_priest.wav","space","464.339774771","221","610167.352817","602416.879787","603183.303797","603967.352631","604734.008827","605500.350907","606266.74029","607033.507478","610933.342444","611699.866624","597816.712279","598583.752773","599350.395057","600117.022191","600883.377256","601650.351278","610943.145898"
"Blocked","Male","tile","14","M_cad.wav","None","725.394438414","221","610167.352817","602416.879787","603183.303797","603967.352631","604734.008827","605500.350907","606266.74029","607033.507478","610933.342444","611699.866624","612466.703066","598583.752773","599350.395057","600117.022191","600883.377256","601650.351278","611709.42398"
"Blocked","Male","tile","14","M_park.wav","None","726.326275195","221","610167.352817","602416.879787","603183.303797","603967.352631","604734.008827","605500.350907","606266.74029","607033.507478","610933.342444","611699.866624","612466.703066","613233.37503","599350.395057","600117.022191","600883.377256","601650.351278","612476.081104"
"Blocked","Male","tile","14","M_tile.wav","None","727.539765387","221","610167.352817","602416.879787","603183.303797","603967.352631","604734.008827","605500.350907","606266.74029","607033.507478","610933.342444","611699.866624","612466.703066","613233.37503","613999.927964","600117.022191","600883.377256","601650.351278","613243.024209"
"Blocked","Male","tile","14","M_depth.wav","space","429.90169648","221","610167.352817","602416.879787","603183.303797","603967.352631","604734.008827","605500.350907","606266.74029","607033.507478","610933.342444","611699.866624","612466.703066","613233.37503","613999.927964","614766.590343","600883.377256","601650.351278","614009.571269"
"Blocked","Male","tile","14","M_park.wav","None","728.743671294","221","610167.352817","602416.879787","603183.303797","603967.352631","604734.008827","605500.350907","606266.74029","607033.507478","610933.342444","611699.866624","612466.703066","613233.37503","613999.927964","614766.590343","615533.236337","601650.351278","614775.981675"
"Blocked","Male","tile","14","M_ball.wav","None","730.289209489","221","610167.352817","602416.879787","603183.303797","603967.352631","604734.008827","605500.350907","606266.74029","607033.507478","610933.342444","611699.866624","612466.703066","613233.37503","613999.927964","614766.590343","615533.236337","616299.316859","615542.724129"
"Blocked","Male","tile","14","M_tile.wav","None","733.154592162","221","610167.352817","617066.044783","603183.303797","603967.352631","604734.008827","605500.350907","606266.74029","607033.507478","610933.342444","611699.866624","612466.703066","613233.37503","613999.927964","614766.590343","615533.236337","616299.316859","616308.307507"
"Blocked","Male","tile","14","M_park.wav","space","452.560727063","221","610167.352817","617066.044783","617833.160714","603967.352631","604734.008827","605500.350907","606266.74029","607033.507478","610933.342444","611699.866624","612466.703066","613233.37503","613999.927964","614766.590343","615533.236337","616299.316859","617074.822722"
"Blocked","Male","tile","14","M_romp.wav","None","736.215060751","221","610167.352817","617066.044783","617833.160714","618616.875335","604734.008827","605500.350907","606266.74029","607033.507478","610933.342444","611699.866624","612466.703066","613233.37503","613999.927964","614766.590343","615533.236337","616299.316859","617842.190317"
"Blocked","Male","tile","14","M_cave.wav","None","725.728032266","221","610167.352817","617066.044783","617833.160714","618616.875335","619382.976882","605500.350907","606266.74029","607033.507478","610933.342444","611699.866624","612466.703066","613233.37503","613999.927964","614766.590343","615533.236337","616299.316859","618620.895775"
"Blocked","Male","tile","14","M_tile.wav","None","723.207373565","221","610167.352817","617066.044783","617833.160714","618616.875335","619382.976882","620150.23905","606266.74029","607033.507478","610933.342444","611699.866624","612466.703066","613233.37503","613999.927964","614766.590343","615533.236337","616299.316859","619391.917444"
"Blocked","Male","tile","14","M_lash.wav","space","494.766379183","221","610167.352817","617066.044783","617833.160714","618616.875335","619382.976882","620150.23905","620916.720256","607033.507478","610933.342444","611699.866624","612466.703066","613233.37503","613999.927964","614766.590343","615533.236337","616299.316859","620160.501621"
"Blocked","Male","tile","14","M_park.wav","None","723.394111934","221","610167.352817","617066.044783","617833.160714","618616.875335","619382.976882","620150.23905","620916.720256","621682.795832","610933.342444","611699.866624","612466.703066","613233.37503","613999.927964","614766.590343","615533.236337","616299.316859","620926.451056"
"Blocked","Male","ball","6","M_reek.wav","None","726.262586279","221","624816.688473","617066.044783","617833.160714","618616.875335","619382.976882","620150.23905","620916.720256","621682.795832","610933.342444","611699.866624","612466.703066","613233.37503","613999.927964","614766.590343","615533.236337","616299.316859","621691.579955"
"Blocked","Male","ball","6","M_cling.wav","None","722.98415321","221","624816.688473","617066.044783","617833.160714","618616.875335","619382.976882","620150.23905","620916.720256","621682.795832","625582.54423","611699.866624","612466.703066","613233.37503","613999.927964","614766.590343","615533.236337","616299.316859","624826.37599"
"Blocked","Male","ball","6","M_gnash.wav","None","726.145720226","221","624816.688473","617066.044783","617833.160714","618616.875335","619382.976882","620150.23905","620916.720256","621682.795832","625582.54423","626349.585651","612466.703066","613233.37503","613999.927964","614766.590343","615533.236337","616299.316859","625591.646179"
"Blocked","Male","ball","6","M_ball.wav","None","727.137226728","221","624816.688473","617066.044783","617833.160714","618616.875335","619382.976882","620150.23905","620916.720256","621682.795832","625582.54423","626349.585651","627116.197327","613233.37503","613999.927964","614766.590343","615533.236337","616299.316859","626359.010064"
"Blocked","Male","ball","6","M_cling.wav","space","505.342139295","221","624816.688473","617066.044783","617833.160714","618616.875335","619382.976882","620150.23905","620916.720256","621682.795832","625582.54423","626349.585651","627116.197327","627882.850431","613999.927964","614766.590343","615533.236337","616299.316859","627125.726857"
"Blocked","Male","ball","6","M_done.wav","None","728.884961747","221","624816.688473","617066.044783","617833.160714","618616.875335","619382.976882","620150.23905","620916.720256","621682.795832","625582.54423","626349.585651","627116.197327","627882.850431","628649.472","614766.590343","615533.236337","616299.316859","627892.241763"
"Blocked","Male","ball","6","M_ball.wav","None","730.266330938","221","624816.688473","617066.044783","617833.160714","618616.875335","619382.976882","620150.23905","620916.720256","621682.795832","625582.54423","626349.585651","627116.197327","627882.850431","628649.472","629416.325447","615533.236337","616299.316859","628659.174048"
"Blocked","Male","ball","6","M_gnash.wav","space","429.161544758","221","624816.688473","617066.044783","617833.160714","618616.875335","619382.976882","620150.23905","620916.720256","621682.795832","625582.54423","626349.585651","627116.197327","627882.850431","628649.472","629416.325447","630182.874979","616299.316859","629425.886822"
"Blocked","Male","ball","6","M_priest.wav","None","732.689910437","221","624816.688473","617066.044783","617833.160714","618616.875335","619382.976882","620150.23905","620916.720256","621682.795832","625582.54423","626349.585651","627116.197327","627882.850431","628649.472","629416.325447","630182.874979","630949.074532","630192.109562"
"Blocked","Male","ball","6","M_lash.wav","None","734.850386711","221","624816.688473","631733.350606","617833.160714","618616.875335","619382.976882","620150.23905","620916.720256","621682.795832","625582.54423","626349.585651","627116.197327","627882.850431","628649.472","629416.325447","630182.874979","630949.074532","630958.459062"
"Blocked","Male","ball","6","M_jaw.wav","None","717.893987021","221","624816.688473","631733.350606","632499.835213","618616.875335","619382.976882","620150.23905","620916.720256","621682.795832","625582.54423","626349.585651","627116.197327","627882.850431","628649.472","629416.325447","630182.874979","630949.074532","631743.675011"
"Blocked","Male","ball","6","M_ball.wav","None","721.059264077","221","624816.688473","631733.350606","632499.835213","633265.804125","619382.976882","620150.23905","620916.720256","621682.795832","625582.54423","626349.585651","627116.197327","627882.850431","628649.472","629416.325447","630182.874979","630949.074532","632509.307856"
"Blocked","Male","ball","6","M_gnash.wav","space","339.865672053","221","624816.688473","631733.350606","632499.835213","633265.804125","634032.405907","620150.23905","620916.720256","621682.795832","625582.54423","626349.585651","627116.197327","627882.850431","628649.472","629416.325447","630182.874979","630949.074532","633275.02325"
"Blocked","Male","ball","6","M_dime.wav","None","723.726778291","221","624816.688473","631733.350606","632499.835213","633265.804125","634032.405907","634798.997487","620916.720256","621682.795832","625582.54423","626349.585651","627116.197327","627882.850431","628649.472","629416.325447","630182.874979","630949.074532","634041.543411"
"Blocked","Male","ball","6","M_ball.wav","None","725.662179175","221","624816.688473","631733.350606","632499.835213","633265.804125","634032.405907","634798.997487","635565.735613","621682.795832","625582.54423","626349.585651","627116.197327","627882.850431","628649.472","629416.325447","630182.874979","630949.074532","634807.912698"
"Blocked","Male","ball","6","M_priest.wav","space","528.229336967","221","624816.688473","631733.350606","632499.835213","633265.804125","634032.405907","634798.997487","635565.735613","636332.617194","625582.54423","626349.585651","627116.197327","627882.850431","628649.472","629416.325447","630182.874979","630949.074532","635574.615888"
"Blocked","Male","tile","13","M_cling.wav","None","726.375123966","221","639466.282287","631733.350606","632499.835213","633265.804125","634032.405907","634798.997487","635565.735613","636332.617194","625582.54423","626349.585651","627116.197327","627882.850431","628649.472","629416.325447","630182.874979","630949.074532","636342.20052"
"Blocked","Male","tile","13","M_romp.wav","None","723.051242996","221","639466.282287","631733.350606","632499.835213","633265.804125","634032.405907","634798.997487","635565.735613","636332.617194","640232.498225","626349.585651","627116.197327","627882.850431","628649.472","629416.325447","630182.874979","630949.074532","639476.087596"
"Blocked","Male","tile","13","M_dime.wav","None","726.044312643","221","639466.282287","631733.350606","632499.835213","633265.804125","634032.405907","634798.997487","635565.735613","636332.617194","640232.498225","640998.780326","627116.197327","627882.850431","628649.472","629416.325447","630182.874979","630949.074532","640242.162554"
"Blocked","Male","tile","13","M_bluff.wav","None","728.857445662","221","639466.282287","631733.350606","632499.835213","633265.804125","634032.405907","634798.997487","635565.735613","636332.617194","640232.498225","640998.780326","641765.60502","627882.850431","628649.472","629416.325447","630182.874979","630949.074532","641007.712851"
"Blocked","Male","tile","13","M_tile.wav","None","730.721428408","221","639466.282287","631733.350606","632499.835213","633265.804125","634032.405907","634798.997487","635565.735613","636332.617194","640232.498225","640998.780326","641765.60502","642531.886812","628649.472","629416.325447","630182.874979","630949.074532","641774.333802"
"Blocked","Male","tile","13","M_cling.wav","space","433.847626453","221","639466.282287","631733.350606","632499.835213","633265.804125","634032.405907","634798.997487","635565.735613","636332.617194","640232.498225","640998.780326","641765.60502","642531.886812","643298.889278","629416.325447","630182.874979","630949.074532","642540.798931"
"Blocked","Male","tile","13","M_tile.wav","None","732.065078933","221","639466.282287","631733.350606","632499.835213","633265.804125","634032.405907","634798.997487","635565.735613","636332.617194","640232.498225","640998.780326","641765.60502","642531.886812","643298.889278","644065.770858","630182.874979","630949.074532","643308.594107"
"Blocked","Male","tile","13","M_jaw.wav","space","635.49877693","221","639466.282287","631733.350606","632499.835213","633265.804125","634032.405907","634798.997487","635565.735613","636332.617194","640232.498225","640998.780326","641765.60502","642531.886812","643298.889278","644065.770858","644832.073056","630949.074532","644075.111487"
"Blocked","Male","tile","13","M_ball.wav","None","734.821015605","221","639466.282287","631733.350606","632499.835213","633265.804125","634032.405907","634798.997487","635565.735613","636332.617194","640232.498225","640998.780326","641765.60502","642531.886812","643298.889278","644065.770858","644832.073056","645616.11787","644841.003416"
"Blocked","Male","tile","13","M_tile.wav","None","718.663200678","221","639466.282287","646382.648234","632499.835213","633265.804125","634032.405907","634798.997487","635565.735613","636332.617194","640232.498225","640998.780326","641765.60502","642531.886812","643298.889278","644065.770858","644832.073056","645616.11787","645625.817753"
"Blocked","Male","tile","13","M_jaw.wav","space","397.970673424","221","639466.282287","646382.648234","647148.990933","633265.804125","634032.405907","634798.997487","635565.735613","636332.617194","640232.498225","640998.780326","641765.60502","642531.886812","643298.889278","644065.770858","644832.073056","645616.11787","646392.538875"
"Blocked","Male","tile","13","M_tile.wav","None","721.147686534","221","639466.282287","646382.648234","647148.990933","647915.866021","634032.405907","634798.997487","635565.735613","636332.617194","640232.498225","640998.780326","641765.60502","642531.886812","643298.889278","644065.770858","644832.073056","645616.11787","647158.619088"
"Blocked","Male","tile","13","M_park.wav","space","392.469002676","221","639466.282287","646382.648234","647148.990933","647915.866021","648681.581414","634798.997487","635565.735613","636332.617194","640232.498225","640998.780326","641765.60502","642531.886812","643298.889278","644065.770858","644832.073056","645616.11787","647925.993176"
"Blocked","Male","tile","13","M_depth.wav","None","726.783536855","221","639466.282287","646382.648234","647148.990933","647915.866021","648681.581414","649448.540287","635565.735613","636332.617194","640232.498225","640998.780326","641765.60502","642531.886812","643298.889278","644065.770858","644832.073056","645616.11787","648690.276187"
"Blocked","Male","tile","13","M_dime.wav","None","727.898092809","221","639466.282287","646382.648234","647148.990933","647915.866021","648681.581414","649448.540287","650215.185972","636332.617194","640232.498225","640998.780326","641765.60502","642531.886812","643298.889278","644065.770858","644832.073056","645616.11787","649457.650893"
"Blocked","Male","tile","13","M_greet.wav","None","729.373449518","221","639466.282287","646382.648234","647148.990933","647915.866021","648681.581414","649448.540287","650215.185972","650982.195239","640232.498225","640998.780326","641765.60502","642531.886812","643298.889278","644065.770858","644832.073056","645616.11787","650224.657069"
"Blocked","Male","done","19","M_tile.wav","None","730.698859043","221","654115.831888","646382.648234","647148.990933","647915.866021","648681.581414","649448.540287","650215.185972","650982.195239","640232.498225","640998.780326","641765.60502","642531.886812","643298.889278","644065.770858","644832.073056","645616.11787","650991.778256"
"Blocked","Male","done","19","M_gnash.wav","None","723.684112905","221","654115.831888","646382.648234","647148.990933","647915.866021","648681.581414","649448.540287","650215.185972","650982.195239","654882.110898","640998.780326","641765.60502","642531.886812","643298.889278","644065.770858","644832.073056","645616.11787","654125.017004"
"Blocked","Male","done","19","M_done.wav","None","725.151122038","221","654115.831888","646382.648234","647148.990933","647915.866021","648681.581414","649448.540287","650215.185972","650982.195239","654882.110898","655648.268713","641765.60502","642531.886812","643298.889278","644065.770858","644832.073056","645616.11787","654891.823148"
"Blocked","Male","done","19","M_priest.wav","space","493.204764178","221","654115.831888","646382.648234","647148.990933","647915.866021","648681.581414","649448.540287","650215.185972","650982.195239","654882.110898","655648.268713","656414.877606","642531.886812","643298.889278","644065.770858","644832.073056","645616.11787","655657.024701"
"Blocked","Male","done","19","M_greet.wav","None","728.564353019","221","654115.831888","646382.648234","647148.990933","647915.866021","648681.581414","649448.540287","650215.185972","650982.195239","654882.110898","655648.268713","656414.877606","657181.6315","643298.889278","644065.770858","644832.073056","645616.11787","656423.797454"
"Blocked","Male","done","19","M_done.wav","None","730.250872482","221","654115.831888","646382.648234","647148.990933","647915.866021","648681.581414","649448.540287","650215.185972","650982.195239","654882.110898","655648.268713","656414.877606","657181.6315","657948.447846","644065.770858","644832.073056","645616.11787","657190.805176"
"Blocked","Male","done","19","M_priest.wav","space","656.311447441","221","654115.831888","646382.648234","647148.990933","647915.866021","648681.581414","649448.540287","650215.185972","650982.195239","654882.110898","655648.268713","656414.877606","657181.6315","657948.447846","658715.26481","644832.073056","645616.11787","657957.825883"
