"Condition","Talker","Target","Trial","current_stimulus","response_response","response_time_response","subject_nr","time_Audio1","time_Audio10","time_Audio11","time_Audio12","time_Audio13","time_Audio14","time_Audio15","time_Audio16","time_Audio2","time_Audio3","time_Audio4","time_Audio5","time_Audio6","time_Audio7","time_Audio8","time_Audio9","time_response","title"
"Mixed","Male","ball","6","F_reek.wav","NA","NA","220","617460.659421","NA","NA","NA","NA","NA","NA","NA","NA","NA","NA","NA","NA","NA","NA","NA","NA","Mapping"
"Mixed","Male","ball","6","M_ball.wav","None","733.316596961","220","617460.659421","NA","NA","NA","NA","NA","NA","NA","618227.469584","NA","NA","NA","NA","NA","NA","NA","617473.744092","Mapping"
"Mixed","Male","ball","6","F_cling.wav","space","437.040110424","220","617460.659421","NA","NA","NA","NA","NA","NA","NA","618227.469584","618995.023608","NA","NA","NA","NA","NA","NA","618236.35326","Mapping"
"Mixed","Male","ball","6","F_depth.wav","None","731.200022754","220","617460.659421","NA","NA","NA","NA","NA","NA","NA","618227.469584","618995.023608","619762.054209","NA","NA","NA","NA","NA","619004.779142","Mapping"
"Mixed","Male","ball","6","M_park.wav","None","728.685238268","220","617460.659421","NA","NA","NA","NA","NA","NA","NA","618227.469584","618995.023608","619762.054209","620528.877975","NA","NA","NA","NA","619771.763367","Mapping"
"Mixed","Male","ball","6","F_gnash.wav","None","727.137535898","220","617460.659421","NA","NA","NA","NA","NA","NA","NA","618227.469584","618995.023608","619762.054209","620528.877975","621296.513001","NA","NA","NA","620537.771234","Mapping"
"Mixed","Male","ball","6","M_tile.wav","None","723.408952064","220","617460.659421","NA","NA","NA","NA","NA","NA","NA","618227.469584","618995.023608","619762.054209","620528.877975","621296.513001","622063.893891","NA","NA","621306.117969","Mapping"
"Mixed","Male","ball","6","M_ball.wav","None","720.120007216","220","617460.659421","NA","NA","NA","NA","NA","NA","NA","618227.469584","618995.023608","619762.054209","620528.877975","621296.513001","622063.893891","622813.832366","NA","622073.751759","Mapping"
"Mixed","Male","ball","6","M_jolt.wav","space","417.705579152","220","617460.659421","NA","NA","NA","NA","NA","NA","NA","618227.469584","618995.023608","619762.054209","620528.877975","621296.513001","622063.893891","622813.832366","623581.526753","622823.521428","Mapping"
"Mixed","Male","ball","6","M_ball.wav","None","732.3560074","220","617460.659421","624348.630317","NA","NA","NA","NA","NA","NA","618227.469584","618995.023608","619762.054209","620528.877975","621296.513001","622063.893891","622813.832366","623581.526753","623590.566868","Mapping"
"Mixed","Male","ball","6","F_cling.wav","space","475.19842496","220","617460.659421","624348.630317","625116.125909","NA","NA","NA","NA","NA","618227.469584","618995.023608","619762.054209","620528.877975","621296.513001","622063.893891","622813.832366","623581.526753","624357.995061","Mapping"
"Mixed","Male","ball","6","M_ball.wav","None","725.951561806","220","617460.659421","624348.630317","625116.125909","625883.297181","NA","NA","NA","NA","618227.469584","618995.023608","619762.054209","620528.877975","621296.513001","622063.893891","622813.832366","623581.526753","625125.447677","Mapping"
"Mixed","Male","ball","6","M_romp.wav","space","395.688384378","220","617460.659421","624348.630317","625116.125909","625883.297181","626650.227301","NA","NA","NA","618227.469584","618995.023608","619762.054209","620528.877975","621296.513001","622063.893891","622813.832366","623581.526753","625893.433921","Mapping"
"Mixed","Male","ball","6","F_cad.wav","None","721.050298162","220","617460.659421","624348.630317","625116.125909","625883.297181","626650.227301","627401.157902","NA","NA","618227.469584","618995.023608","619762.054209","620528.877975","621296.513001","622063.893891","622813.832366","623581.526753","626659.033685","Mapping"
"Mixed","Male","ball","6","F_depth.wav","None","734.16341214","220","617460.659421","624348.630317","625116.125909","625883.297181","626650.227301","627401.157902","628168.42378","NA","618227.469584","618995.023608","619762.054209","620528.877975","621296.513001","622063.893891","622813.832366","623581.526753","627410.361258","Mapping"
"Mixed","Male","ball","6","F_knife.wav","None","730.877249836","220","617460.659421","624348.630317","625116.125909","625883.297181","626650.227301","627401.157902","628168.42378","628935.97193","618227.469584","618995.023608","619762.054209","620528.877975","621296.513001","622063.893891","622813.832366","623581.526753","628178.499613","Mapping"
"Mixed","Male","done","41","M_ball.wav","None","727.921280501","220","632087.94542","624348.630317","625116.125909","625883.297181","626650.227301","627401.157902","628168.42378","628935.97193","618227.469584","618995.023608","619762.054209","620528.877975","621296.513001","622063.893891","622813.832366","623581.526753","628945.746632","Mapping"
"Mixed","Male","done","41","F_greet.wav","None","721.009178626","220","632087.94542","624348.630317","625116.125909","625883.297181","626650.227301","627401.157902","628168.42378","628935.97193","632838.066924","618995.023608","619762.054209","620528.877975","621296.513001","622063.893891","622813.832366","623581.526753","632097.232253","Mapping"
"Mixed","Male","done","41","M_done.wav","None","735.797372807","220","632087.94542","624348.630317","625116.125909","625883.297181","626650.227301","627401.157902","628168.42378","628935.97193","632838.066924","633606.10418","619762.054209","620528.877975","621296.513001","622063.893891","622813.832366","623581.526753","632846.915973","Mapping"
"Mixed","Male","done","41","F_jolt.wav","space","665.697523422","220","632087.94542","624348.630317","625116.125909","625883.297181","626650.227301","627401.157902","628168.42378","628935.97193","632838.066924","633606.10418","634373.554324","620528.877975","621296.513001","622063.893891","622813.832366","623581.526753","633615.192217","Mapping"
"Mixed","Male","done","41","F_ball.wav","None","728.613820131","220","632087.94542","624348.630317","625116.125909","625883.297181","626650.227301","627401.157902","628168.42378","628935.97193","632838.066924","633606.10418","634373.554324","635139.94247","621296.513001","622063.893891","622813.832366","623581.526753","634382.719343","Mapping"
"Mixed","Male","done","41","F_jolt.wav","None","726.80641539","220","632087.94542","624348.630317","625116.125909","625883.297181","626650.227301","627401.157902","628168.42378","628935.97193","632838.066924","633606.10418","634373.554324","635139.94247","635907.124254","622063.893891","622813.832366","623581.526753","635148.872212","Mapping"
"Mixed","Male","done","41","M_done.wav","None","723.9079516","220","632087.94542","624348.630317","625116.125909","625883.297181","626650.227301","627401.157902","628168.42378","628935.97193","632838.066924","633606.10418","634373.554324","635139.94247","635907.124254","636674.824515","622813.832366","623581.526753","635916.131907","Mapping"
"Mixed","Male","done","41","M_jolt.wav","space","508.533695771","220","632087.94542","624348.630317","625116.125909","625883.297181","626650.227301","627401.157902","628168.42378","628935.97193","632838.066924","633606.10418","634373.554324","635139.94247","635907.124254","636674.824515","637425.332481","623581.526753","636684.247383","Mapping"
"Mixed","Male","done","41","M_ball.wav","None","734.654991611","220","632087.94542","624348.630317","625116.125909","625883.297181","626650.227301","627401.157902","628168.42378","628935.97193","632838.066924","633606.10418","634373.554324","635139.94247","635907.124254","636674.824515","637425.332481","638192.602378","637434.508322","Mapping"
"Mixed","Male","done","41","M_romp.wav","None","731.063679021","220","632087.94542","638959.69945","625116.125909","625883.297181","626650.227301","627401.157902","628168.42378","628935.97193","632838.066924","633606.10418","634373.554324","635139.94247","635907.124254","636674.824515","637425.332481","638192.602378","638202.47756","Mapping"
"Mixed","Male","done","41","M_done.wav","None","729.399110569","220","632087.94542","638959.69945","639726.644101","625883.297181","626650.227301","627401.157902","628168.42378","628935.97193","632838.066924","633606.10418","634373.554324","635139.94247","635907.124254","636674.824515","637425.332481","638192.602378","638969.00978","Mapping"
"Mixed","Male","done","41","F_depth.wav","space","592.338100323","220","632087.94542","638959.69945","639726.644101","640494.378062","626650.227301","627401.157902","628168.42378","628935.97193","632838.066924","633606.10418","634373.554324","635139.94247","635907.124254","636674.824515","637425.332481","638192.602378","639736.37923","Mapping"
"Mixed","Male","done","41","F_gnash.wav","None","723.873015435","220","632087.94542","638959.69945","639726.644101","640494.378062","641261.59942","627401.157902","628168.42378","628935.97193","632838.066924","633606.10418","634373.554324","635139.94247","635907.124254","636674.824515","637425.332481","638192.602378","640503.668296","Mapping"
"Mixed","Male","done","41","F_jaw.wav","None","720.564283751","220","632087.94542","638959.69945","639726.644101","640494.378062","641261.59942","642011.483791","628168.42378","628935.97193","632838.066924","633606.10418","634373.554324","635139.94247","635907.124254","636674.824515","637425.332481","638192.602378","641271.453888","Mapping"
"Mixed","Male","done","41","M_done.wav","None","736.219389131","220","632087.94542","638959.69945","639726.644101","640494.378062","641261.59942","642011.483791","642779.340492","628935.97193","632838.066924","633606.10418","634373.554324","635139.94247","635907.124254","636674.824515","637425.332481","638192.602378","642020.33624","Mapping"
"Mixed","Male","done","41","F_depth.wav","space","587.814332597","220","632087.94542","638959.69945","639726.644101","640494.378062","641261.59942","642011.483791","642779.340492","643546.276796","632838.066924","633606.10418","634373.554324","635139.94247","635907.124254","636674.824515","637425.332481","638192.602378","642788.839724","Mapping"
"Mixed","Male","done","42","F_cling.wav","None","730.237578187","220","646682.270553","638959.69945","639726.644101","640494.378062","641261.59942","642011.483791","642779.340492","643546.276796","632838.066924","633606.10418","634373.554324","635139.94247","635907.124254","636674.824515","637425.332481","638192.602378","643554.999394","Mapping"
"Mixed","Male","done","42","M_done.wav","None","720.165145976","220","646682.270553","638959.69945","639726.644101","640494.378062","641261.59942","642011.483791","642779.340492","643546.276796","647432.239945","633606.10418","634373.554324","635139.94247","635907.124254","636674.824515","637425.332481","638192.602378","646691.864082","Mapping"
"Mixed","Male","done","42","M_dime.wav","space","527.175687399","220","646682.270553","638959.69945","639726.644101","640494.378062","641261.59942","642011.483791","642779.340492","643546.276796","647432.239945","648199.468723","634373.554324","635139.94247","635907.124254","636674.824515","637425.332481","638192.602378","647441.323963","Mapping"
"Mixed","Male","done","42","M_gnash.wav","None","732.060441398","220","646682.270553","638959.69945","639726.644101","640494.378062","641261.59942","642011.483791","642779.340492","643546.276796","647432.239945","648199.468723","648967.155381","635139.94247","635907.124254","636674.824515","637425.332481","638192.602378","648208.54192","Mapping"
"Mixed","Male","done","42","F_bluff.wav","None","729.093651142","220","646682.270553","638959.69945","639726.644101","640494.378062","641261.59942","642011.483791","642779.340492","643546.276796","647432.239945","648199.468723","648967.155381","649734.051802","635907.124254","636674.824515","637425.332481","638192.602378","648976.740253","Mapping"
"Mixed","Male","done","42","M_done.wav","None","727.080648707","220","646682.270553","638959.69945","639726.644101","640494.378062","641261.59942","642011.483791","642779.340492","643546.276796","647432.239945","648199.468723","648967.155381","649734.051802","650501.240079","636674.824515","637425.332481","638192.602378","649743.26969","Mapping"
"Mixed","Male","done","42","M_ball.wav","space","593.994012001","220","646682.270553","638959.69945","639726.644101","640494.378062","641261.59942","642011.483791","642779.340492","643546.276796","647432.239945","648199.468723","648967.155381","649734.051802","650501.240079","651268.447215","637425.332481","638192.602378","650510.418702","Mapping"
"Mixed","Male","done","42","F_gnash.wav","None","721.790140713","220","646682.270553","638959.69945","639726.644101","640494.378062","641261.59942","642011.483791","642779.340492","643546.276796","647432.239945","648199.468723","648967.155381","649734.051802","650501.240079","651268.447215","652019.232196","638192.602378","651277.498151","Mapping"
"Mixed","Male","done","42","M_done.wav","None","735.391742463","220","646682.270553","638959.69945","639726.644101","640494.378062","641261.59942","642011.483791","642779.340492","643546.276796","647432.239945","648199.468723","648967.155381","649734.051802","650501.240079","651268.447215","652019.232196","652786.411507","652028.658464","Mapping"
"Mixed","Male","done","42","M_romp.wav","space","612.51913759","220","646682.270553","653553.83197","639726.644101","640494.378062","641261.59942","642011.483791","642779.340492","643546.276796","647432.239945","648199.468723","648967.155381","649734.051802","650501.240079","651268.447215","652019.232196","652786.411507","652795.809641","Mapping"
"Mixed","Male","done","42","M_done.wav","None","729.45537942","220","646682.270553","653553.83197","654321.120727","640494.378062","641261.59942","642011.483791","642779.340492","643546.276796","647432.239945","648199.468723","648967.155381","649734.051802","650501.240079","651268.447215","652019.232196","652786.411507","653563.635425","Mapping"
"Mixed","Male","done","42","F_ball.wav","space","629.21861744","220","646682.270553","653553.83197","654321.120727","655088.830573","641261.59942","642011.483791","642779.340492","643546.276796","647432.239945","648199.468723","648967.155381","649734.051802","650501.240079","651268.447215","652019.232196","652786.411507","654331.091442","Mapping"
"Mixed","Male","done","42","F_jolt.wav","None","724.114167635","220","646682.270553","653553.83197","654321.120727","655088.830573","655855.098452","642011.483791","642779.340492","643546.276796","647432.239945","648199.468723","648967.155381","649734.051802","650501.240079","651268.447215","652019.232196","652786.411507","655098.084015","Mapping"
"Mixed","Male","done","42","F_ball.wav","None","722.540804185","220","646682.270553","653553.83197","654321.120727","655088.830573","655855.098452","656606.340077","642779.340492","643546.276796","647432.239945","648199.468723","648967.155381","649734.051802","650501.240079","651268.447215","652019.232196","652786.411507","655864.318813","Mapping"
"Mixed","Male","done","42","F_reek.wav","None","735.7407948","220","646682.270553","653553.83197","654321.120727","655088.830573","655855.098452","656606.340077","657373.264013","643546.276796","647432.239945","648199.468723","648967.155381","649734.051802","650501.240079","651268.447215","652019.232196","652786.411507","656615.887539","Mapping"
"Mixed","Male","done","42","F_romp.wav","None","732.916222492","220","646682.270553","653553.83197","654321.120727","655088.830573","655855.098452","656606.340077","657373.264013","658140.473932","647432.239945","648199.468723","648967.155381","649734.051802","650501.240079","651268.447215","652019.232196","652786.411507","657383.34974","Mapping"
"Mixed","Female","tile","33","F_jaw.wav","None","730.657739507","220","661276.216644","653553.83197","654321.120727","655088.830573","655855.098452","656606.340077","657373.264013","658140.473932","647432.239945","648199.468723","648967.155381","649734.051802","650501.240079","651268.447215","652019.232196","652786.411507","658150.09003","Mapping"
"Mixed","Female","tile","33","M_jaw.wav","None","720.403206462","220","661276.216644","653553.83197","654321.120727","655088.830573","655855.098452","656606.340077","657373.264013","658140.473932","662026.181089","648199.468723","648967.155381","649734.051802","650501.240079","651268.447215","652019.232196","652786.411507","661285.377335","Mapping"
"Mixed","Female","tile","33","M_bluff.wav","None","735.078862941","220","661276.216644","653553.83197","654321.120727","655088.830573","655855.098452","656606.340077","657373.264013","658140.473932","662026.181089","662794.061287","648967.155381","649734.051802","650501.240079","651268.447215","652019.232196","652786.411507","662035.268198","Mapping"
"Mixed","Female","tile","33","M_depth.wav","None","731.387379463","220","661276.216644","653553.83197","654321.120727","655088.830573","655855.098452","656606.340077","657373.264013","658140.473932","662026.181089","662794.061287","663560.824456","649734.051802","650501.240079","651268.447215","652019.232196","652786.411507","662803.92503","Mapping"
"Mixed","Female","tile","33","F_tile.wav","None","729.877704929","220","661276.216644","653553.83197","654321.120727","655088.830573","655855.098452","656606.340077","657373.264013","658140.473932","662026.181089","662794.061287","663560.824456","664327.979961","650501.240079","651268.447215","652019.232196","652786.411507","663570.093357","Mapping"
"Mixed","Female","tile","33","M_lash.wav","space","558.891219349","220","661276.216644","653553.83197","654321.120727","655088.830573","655855.098452","656606.340077","657373.264013","658140.473932","662026.181089","662794.061287","663560.824456","664327.979961","665095.061883","651268.447215","652019.232196","652786.411507","664337.077891","Mapping"
"Mixed","Female","tile","33","M_cad.wav","None","724.917389918","220","661276.216644","653553.83197","654321.120727","655088.830573","655855.098452","656606.340077","657373.264013","658140.473932","662026.181089","662794.061287","663560.824456","664327.979961","665095.061883","665862.4774","652019.232196","652786.411507","665104.185474","Mapping"
"Mixed","Female","tile","33","M_cling.wav","None","721.984608303","220","661276.216644","653553.83197","654321.120727","655088.830573","655855.098452","656606.340077","657373.264013","658140.473932","662026.181089","662794.061287","663560.824456","664327.979961","665095.061883","665862.4774","666613.236411","652786.411507","665871.65324","Mapping"
"Mixed","Female","tile","33","F_tile.wav","None","735.208404963","220","661276.216644","653553.83197","654321.120727","655088.830573","655855.098452","656606.340077","657373.264013","658140.473932","662026.181089","662794.061287","663560.824456","664327.979961","665095.061883","665862.4774","666613.236411","667380.304111","666623.247627","Mapping"
"Mixed","Female","tile","33","F_knife.wav","space","562.669888634","220","661276.216644","668147.440757","654321.120727","655088.830573","655855.098452","656606.340077","657373.264013","658140.473932","662026.181089","662794.061287","663560.824456","664327.979961","665095.061883","665862.4774","666613.236411","667380.304111","667389.228907","Mapping"
"Mixed","Female","tile","33","M_park.wav","None","731.025342","220","661276.216644","668147.440757","668914.673245","655088.830573","655855.098452","656606.340077","657373.264013","658140.473932","662026.181089","662794.061287","663560.824456","664327.979961","665095.061883","665862.4774","666613.236411","667380.304111","668156.592482","Mapping"
"Mixed","Female","tile","33","F_tile.wav","None","728.595888286","220","661276.216644","668147.440757","668914.673245","669682.411843","655855.098452","656606.340077","657373.264013","658140.473932","662026.181089","662794.061287","663560.824456","664327.979961","665095.061883","665862.4774","666613.236411","667380.304111","668924.005835","Mapping"
"Mixed","Female","tile","33","F_gnash.wav","space","491.930985954","220","661276.216644","668147.440757","668914.673245","669682.411843","670449.699364","656606.340077","657373.264013","658140.473932","662026.181089","662794.061287","663560.824456","664327.979961","665095.061883","665862.4774","666613.236411","667380.304111","669691.861608","Mapping"
"Mixed","Female","tile","33","M_park.wav","None","722.483607824","220","661276.216644","668147.440757","668914.673245","669682.411843","670449.699364","671216.175005","657373.264013","658140.473932","662026.181089","662794.061287","663560.824456","664327.979961","665095.061883","665862.4774","666613.236411","667380.304111","670459.63978","Mapping"
"Mixed","Female","tile","33","F_tile.wav","None","724.349754761","220","661276.216644","668147.440757","668914.673245","669682.411843","670449.699364","671216.175005","671983.60969","658140.473932","662026.181089","662794.061287","663560.824456","664327.979961","665095.061883","665862.4774","666613.236411","667380.304111","671224.962529","Mapping"
"Mixed","Female","tile","33","F_park.wav","space","527.300282716","220","661276.216644","668147.440757","668914.673245","669682.411843","670449.699364","671216.175005","671983.60969","672734.098796","662026.181089","662794.061287","663560.824456","664327.979961","665095.061883","665862.4774","666613.236411","667380.304111","671992.473888","Mapping"
"Mixed","Male","ball","2","M_romp.wav","None","735.516646921","220","675870.150368","668147.440757","668914.673245","669682.411843","670449.699364","671216.175005","671983.60969","672734.098796","662026.181089","662794.061287","663560.824456","664327.979961","665095.061883","665862.4774","666613.236411","667380.304111","672743.059145","Mapping"
"Mixed","Male","ball","2","M_cling.wav","None","720.159580902","220","675870.150368","668147.440757","668914.673245","669682.411843","670449.699364","671216.175005","671983.60969","672734.098796","676620.322575","662794.061287","663560.824456","664327.979961","665095.061883","665862.4774","666613.236411","667380.304111","675879.865709","Mapping"
"Mixed","Male","ball","2","F_knife.wav","None","735.707095315","220","675870.150368","668147.440757","668914.673245","669682.411843","670449.699364","671216.175005","671983.60969","672734.098796","676620.322575","677387.529711","663560.824456","664327.979961","665095.061883","665862.4774","666613.236411","667380.304111","676629.029406","Mapping"
"Mixed","Male","ball","2","M_ball.wav","None","733.00866416","220","675870.150368","668147.440757","668914.673245","669682.411843","670449.699364","671216.175005","671983.60969","672734.098796","676620.322575","677387.529711","678155.180196","664327.979961","665095.061883","665862.4774","666613.236411","667380.304111","677396.364229","Mapping"
"Mixed","Male","ball","2","F_done.wav","space","450.89121192","220","675870.150368","668147.440757","668914.673245","669682.411843","670449.699364","671216.175005","671983.60969","672734.098796","676620.322575","677387.529711","678155.180196","678922.372183","665095.061883","665862.4774","666613.236411","667380.304111","678164.69736","Mapping"
"Mixed","Male","ball","2","M_dime.wav","None","726.401403372","220","675870.150368","668147.440757","668914.673245","669682.411843","670449.699364","671216.175005","671983.60969","672734.098796","676620.322575","677387.529711","678155.180196","678922.372183","679689.6461","665862.4774","666613.236411","667380.304111","678931.921501","Mapping"
"Mixed","Male","ball","2","F_jaw.wav","None","729.208971359","220","675870.150368","668147.440757","668914.673245","669682.411843","670449.699364","671216.175005","671983.60969","672734.098796","676620.322575","677387.529711","678155.180196","678922.372183","679689.6461","680456.641455","666613.236411","667380.304111","679693.88605","Mapping"
"Mixed","Male","ball","2","M_romp.wav","None","721.776846418","220","675870.150368","668147.440757","668914.673245","669682.411843","670449.699364","671216.175005","671983.60969","672734.098796","676620.322575","677387.529711","678155.180196","678922.372183","679689.6461","680456.641455","681207.276489","667380.304111","680466.166657","Mapping"
"Mixed","Male","ball","2","F_lash.wav","None","736.191254706","220","675870.150368","668147.440757","668914.673245","669682.411843","670449.699364","671216.175005","671983.60969","672734.098796","676620.322575","677387.529711","678155.180196","678922.372183","679689.6461","680456.641455","681207.276489","681974.589052","681216.778504","Mapping"
"Mixed","Male","ball","2","F_cad.wav","None","733.986876367","220","675870.150368","682741.440643","668914.673245","669682.411843","670449.699364","671216.175005","671983.60969","672734.098796","676620.322575","677387.529711","678155.180196","678922.372183","679689.6461","680456.641455","681207.276489","681974.589052","681983.940192","Mapping"
"Mixed","Male","ball","2","M_ball.wav","None","732.086411634","220","675870.150368","682741.440643","683508.672204","669682.411843","670449.699364","671216.175005","671983.60969","672734.098796","676620.322575","677387.529711","678155.180196","678922.372183","679689.6461","680456.641455","681207.276489","681974.589052","682750.527134","Mapping"
"Mixed","Male","ball","2","F_priest.wav","space","481.616164863","220","675870.150368","682741.440643","683508.672204","684275.911184","670449.699364","671216.175005","671983.60969","672734.098796","676620.322575","677387.529711","678155.180196","678922.372183","679689.6461","680456.641455","681207.276489","681974.589052","683517.792703","Mapping"
"Mixed","Male","ball","2","M_ball.wav","None","727.2438902","220","675870.150368","682741.440643","683508.672204","684275.911184","685043.234259","671216.175005","671983.60969","672734.098796","676620.322575","677387.529711","678155.180196","678922.372183","679689.6461","680456.641455","681207.276489","681974.589052","684284.755595","Mapping"
"Mixed","Male","ball","2","F_gnash.wav","space","490.920001772","220","675870.150368","682741.440643","683508.672204","684275.911184","685043.234259","685810.775298","671983.60969","672734.098796","676620.322575","677387.529711","678155.180196","678922.372183","679689.6461","680456.641455","681207.276489","681974.589052","685052.457712","Mapping"
"Mixed","Male","ball","2","M_ball.wav","None","720.636011072","220","675870.150368","682741.440643","683508.672204","684275.911184","685043.234259","685810.775298","686560.84146","672734.098796","676620.322575","677387.529711","678155.180196","678922.372183","679689.6461","680456.641455","681207.276489","681974.589052","685820.324925","Mapping"
"Mixed","Male","ball","2","F_cad.wav","space","445.193527717","220","675870.150368","682741.440643","683508.672204","684275.911184","685043.234259","685810.775298","686560.84146","687328.431039","676620.322575","677387.529711","678155.180196","678922.372183","679689.6461","680456.641455","681207.276489","681974.589052","686570.135713","Mapping"
"Mixed","Male","ball","4","M_depth.wav","None","732.880668002","220","690464.144689","682741.440643","683508.672204","684275.911184","685043.234259","685810.775298","686560.84146","687328.431039","676620.322575","677387.529711","678155.180196","678922.372183","679689.6461","680456.641455","681207.276489","681974.589052","687337.592349","Mapping"
"Mixed","Male","ball","4","F_jolt.wav","None","720.53367598","220","690464.144689","682741.440643","683508.672204","684275.911184","685043.234259","685810.775298","686560.84146","687328.431039","691214.527131","677387.529711","678155.180196","678922.372183","679689.6461","680456.641455","681207.276489","681974.589052","690473.600019","Mapping"
"Mixed","Male","ball","4","M_lash.wav","None","734.873574416","220","690464.144689","682741.440643","683508.672204","684275.911184","685043.234259","685810.775298","686560.84146","687328.431039","691214.527131","691982.191529","678155.180196","678922.372183","679689.6461","680456.641455","681207.276489","681974.589052","691224.231343","Mapping"
"Mixed","Male","ball","4","M_ball.wav","None","732.437009807","220","690464.144689","682741.440643","683508.672204","684275.911184","685043.234259","685810.775298","686560.84146","687328.431039","691214.527131","691982.191529","692748.779399","678922.372183","679689.6461","680456.641455","681207.276489","681974.589052","691991.470323","Mapping"
"Mixed","Male","ball","4","F_park.wav","space","545.180789952","220","690464.144689","682741.440643","683508.672204","684275.911184","685043.234259","685810.775298","686560.84146","687328.431039","691214.527131","691982.191529","692748.779399","693516.03693","679689.6461","680456.641455","681207.276489","681974.589052","692757.978737","Mapping"
"Mixed","Male","ball","4","F_depth.wav","None","727.90458535","220","690464.144689","682741.440643","683508.672204","684275.911184","685043.234259","685810.775298","686560.84146","687328.431039","691214.527131","691982.191529","692748.779399","693516.03693","694283.934441","680456.641455","681207.276489","681974.589052","693525.352206","Mapping"
"Mixed","Male","ball","4","M_ball.wav","None","724.621205576","220","690464.144689","682741.440643","683508.672204","684275.911184","685043.234259","685810.775298","686560.84146","687328.431039","691214.527131","691982.191529","692748.779399","693516.03693","694283.934441","695050.592802","681207.276489","681974.589052","694293.774378","Mapping"
"Mixed","Male","ball","4","F_cad.wav","space","475.311890172","220","690464.144689","682741.440643","683508.672204","684275.911184","685043.234259","685810.775298","686560.84146","687328.431039","691214.527131","691982.191529","692748.779399","693516.03693","694283.934441","695050.592802","695817.943701","681974.589052","695059.792448","Mapping"
"Mixed","Male","ball","4","M_romp.wav","None","720.337662526","220","690464.144689","682741.440643","683508.672204","684275.911184","685043.234259","685810.775298","686560.84146","687328.431039","691214.527131","691982.191529","692748.779399","693516.03693","694283.934441","695050.592802","695817.943701","696568.083755","695827.133146","Mapping"
"Mixed","Male","ball","4","M_ball.wav","None","735.530868711","220","690464.144689","697336.011565","683508.672204","684275.911184","685043.234259","685810.775298","686560.84146","687328.431039","691214.527131","691982.191529","692748.779399","693516.03693","694283.934441","695050.592802","695817.943701","696568.083755","696577.245683","Mapping"
"Mixed","Male","ball","4","F_done.wav","space","597.610676487","220","690464.144689","697336.011565","698103.114511","684275.911184","685043.234259","685810.775298","686560.84146","687328.431039","691214.527131","691982.191529","692748.779399","693516.03693","694283.934441","695050.592802","695817.943701","696568.083755","697345.385275","Mapping"
"Mixed","Male","ball","4","F_gnash.wav","None","729.592032323","220","690464.144689","697336.011565","698103.114511","698870.360294","685043.234259","685810.775298","686560.84146","687328.431039","691214.527131","691982.191529","692748.779399","693516.03693","694283.934441","695050.592802","695817.943701","696568.083755","698112.295299","Mapping"
"Mixed","Male","ball","4","M_ball.wav","None","727.530490301","220","690464.144689","697336.011565","698103.114511","698870.360294","699637.689243","685810.775298","686560.84146","687328.431039","691214.527131","691982.191529","692748.779399","693516.03693","694283.934441","695050.592802","695817.943701","696568.083755","698879.868182","Mapping"
"Mixed","Male","ball","4","M_cling.wav","space","447.78776876","220","690464.144689","697336.011565","698103.114511","698870.360294","699637.689243","700404.886176","686560.84146","687328.431039","691214.527131","691982.191529","692748.779399","693516.03693","694283.934441","695050.592802","695817.943701","696568.083755","699647.167142","Mapping"
"Mixed","Male","ball","4","F_jaw.wav","None","722.305217059","220","690464.144689","697336.011565","698103.114511","698870.360294","699637.689243","700404.886176","701171.693556","687328.431039","691214.527131","691982.191529","692748.779399","693516.03693","694283.934441","695050.592802","695817.943701","696568.083755","700414.53752","Mapping"
"Mixed","Male","ball","4","F_greet.wav","None","721.244456596","220","690464.144689","697336.011565","698103.114511","698870.360294","699637.689243","700404.886176","701171.693556","701922.455968","691214.527131","691982.191529","692748.779399","693516.03693","694283.934441","695050.592802","695817.943701","696568.083755","701180.575068","Mapping"
"Mixed","Male","ball","5","F_lash.wav","None","735.160174518","220","705058.296068","697336.011565","698103.114511","698870.360294","699637.689243","700404.886176","701171.693556","701922.455968","691214.527131","691982.191529","692748.779399","693516.03693","694283.934441","695050.592802","695817.943701","696568.083755","701931.763824","Mapping"
"Mixed","Male","ball","5","M_knife.wav","None","721.011651985","220","705058.296068","697336.011565","698103.114511","698870.360294","699637.689243","700404.886176","701171.693556","701922.455968","705808.696133","691982.191529","692748.779399","693516.03693","694283.934441","695050.592802","695817.943701","696568.083755","705067.236631","Mapping"
"Mixed","Male","ball","5","F_romp.wav","None","734.534415504","220","705058.296068","697336.011565","698103.114511","698870.360294","699637.689243","700404.886176","701171.693556","701922.455968","705808.696133","706575.833088","692748.779399","693516.03693","694283.934441","695050.592802","695817.943701","696568.083755","705818.541326","Mapping"
"Mixed","Male","ball","5","F_jaw.wav","None","733.104815867","220","705058.296068","697336.011565","698103.114511","698870.360294","699637.689243","700404.886176","701171.693556","701922.455968","705808.696133","706575.833088","707342.779594","693516.03693","694283.934441","695050.592802","695817.943701","696568.083755","706584.939366","Mapping"
"Mixed","Male","ball","5","F_greet.wav","None","731.087794236","220","705058.296068","697336.011565","698103.114511","698870.360294","699637.689243","700404.886176","701171.693556","701922.455968","705808.696133","706575.833088","707342.779594","708110.082882","694283.934441","695050.592802","695817.943701","696568.083755","707351.831458","Mapping"
"Mixed","Male","ball","5","M_dime.wav","None","735.201294054","220","705058.296068","697336.011565","698103.114511","698870.360294","699637.689243","700404.886176","701171.693556","701922.455968","705808.696133","706575.833088","707342.779594","708110.082882","708877.720691","695050.592802","695817.943701","696568.083755","708113.744685","Mapping"
"Mixed","Male","ball","5","F_cave.wav","None","727.131661668","220","705058.296068","697336.011565","698103.114511","698870.360294","699637.689243","700404.886176","701171.693556","701922.455968","705808.696133","706575.833088","707342.779594","708110.082882","708877.720691","709644.552805","695817.943701","696568.083755","708887.117897","Mapping"
"Mixed","Male","ball","5","M_ball.wav","None","726.305251679","220","705058.296068","697336.011565","698103.114511","698870.360294","699637.689243","700404.886176","701171.693556","701922.455968","705808.696133","706575.833088","707342.779594","708110.082882","708877.720691","709644.552805","710412.07313","696568.083755","709653.4776","Mapping"
"Mixed","Male","ball","5","M_cad.wav","space","486.362534604","220","705058.296068","697336.011565","698103.114511","698870.360294","699637.689243","700404.886176","701171.693556","701922.455968","705808.696133","706575.833088","707342.779594","708110.082882","708877.720691","709644.552805","710412.07313","711178.993357","710416.245372","Mapping"
"Mixed","Male","ball","5","M_ball.wav","None","722.215867077","220","705058.296068","711929.393113","698103.114511","698870.360294","699637.689243","700404.886176","701171.693556","701922.455968","705808.696133","706575.833088","707342.779594","708110.082882","708877.720691","709644.552805","710412.07313","711178.993357","711187.674217","Mapping"
"Mixed","Male","ball","5","M_cave.wav","space","475.914770635","220","705058.296068","711929.393113","712696.6222","698870.360294","699637.689243","700404.886176","701171.693556","701922.455968","705808.696133","706575.833088","707342.779594","708110.082882","708877.720691","709644.552805","710412.07313","711178.993357","711938.653048","Mapping"
"Mixed","Male","ball","5","M_ball.wav","None","733.584956062","220","705058.296068","711929.393113","712696.6222","713464.372856","699637.689243","700404.886176","701171.693556","701922.455968","705808.696133","706575.833088","707342.779594","708110.082882","708877.720691","709644.552805","710412.07313","711178.993357","712705.422709","Mapping"
"Mixed","Male","ball","5","F_bluff.wav","space","428.597619641","220","705058.296068","711929.393113","712696.6222","713464.372856","714231.281953","700404.886176","701171.693556","701922.455968","705808.696133","706575.833088","707342.779594","708110.082882","708877.720691","709644.552805","710412.07313","711178.993357","713473.891566","Mapping"
"Mixed","Male","ball","5","M_ball.wav","None","727.899638645","220","705058.296068","711929.393113","712696.6222","713464.372856","714231.281953","714998.694377","701171.693556","701922.455968","705808.696133","706575.833088","707342.779594","708110.082882","708877.720691","709644.552805","710412.07313","711178.993357","714240.201492","Mapping"
"Mixed","Male","ball","5","F_dime.wav","space","405.997331254","220","705058.296068","711929.393113","712696.6222","713464.372856","714231.281953","714998.694377","715765.889147","701922.455968","705808.696133","706575.833088","707342.779594","708110.082882","708877.720691","709644.552805","710412.07313","711178.993357","715008.484229","Mapping"
"Mixed","Male","ball","5","F_jaw.wav","None","722.035930434","220","705058.296068","711929.393113","712696.6222","713464.372856","714231.281953","714998.694377","715765.889147","716532.885429","705808.696133","706575.833088","707342.779594","708110.082882","708877.720691","709644.552805","710412.07313","711178.993357","715775.725683","Mapping"
"Mixed","Female","ball","12","F_dime.wav","None","721.077814247","220","719652.026977","711929.393113","712696.6222","713464.372856","714231.281953","714998.694377","715765.889147","716532.885429","705808.696133","706575.833088","707342.779594","708110.082882","708877.720691","709644.552805","710412.07313","711178.993357","716541.705416","Mapping"
"Mixed","Female","ball","12","F_romp.wav","None","721.156961634","220","719652.026977","711929.393113","712696.6222","713464.372856","714231.281953","714998.694377","715765.889147","716532.885429","720402.645934","706575.833088","707342.779594","708110.082882","708877.720691","709644.552805","710412.07313","711178.993357","719661.213948","Mapping"
"Mixed","Female","ball","12","F_ball.wav","None","735.985038671","220","719652.026977","711929.393113","712696.6222","713464.372856","714231.281953","714998.694377","715765.889147","716532.885429","720402.645934","721170.023732","707342.779594","708110.082882","708877.720691","709644.552805","710412.07313","711178.993357","720411.683885","Mapping"
"Mixed","Female","ball","12","M_gnash.wav","space","456.379279218","220","719652.026977","711929.393113","712696.6222","713464.372856","714231.281953","714998.694377","715765.889147","716532.885429","720402.645934","721170.023732","721937.337222","708110.082882","708877.720691","709644.552805","710412.07313","711178.993357","721173.920504","Mapping"
"Mixed","Female","ball","12","F_ball.wav","None","730.621875846","220","719652.026977","711929.393113","712696.6222","713464.372856","714231.281953","714998.694377","715765.889147","716532.885429","720402.645934","721170.023732","721937.337222","722704.162225","708877.720691","709644.552805","710412.07313","711178.993357","721946.601176","Mapping"
"Mixed","Female","ball","12","F_tile.wav","space","397.185692127","220","719652.026977","711929.393113","712696.6222","713464.372856","714231.281953","714998.694377","715765.889147","716532.885429","720402.645934","721170.023732","721937.337222","722704.162225","723471.24322","709644.552805","710412.07313","711178.993357","722713.052393","Mapping"
"Mixed","Female","ball","12","F_ball.wav","None","726.401403372","220","719652.026977","711929.393113","712696.6222","713464.372856","714231.281953","714998.694377","715765.889147","716532.885429","720402.645934","721170.023732","721937.337222","722704.162225","723471.24322","724238.94008","710412.07313","711178.993357","723480.085467","Mapping"
"Mixed","Female","ball","12","M_romp.wav","space","444.840765354","220","719652.026977","711929.393113","712696.6222","713464.372856","714231.281953","714998.694377","715765.889147","716532.885429","720402.645934","721170.023732","721937.337222","722704.162225","723471.24322","724238.94008","725005.903282","711178.993357","724248.372841","Mapping"
"Mixed","Female","ball","12","M_park.wav","None","720.50894241","220","719652.026977","711929.393113","712696.6222","713464.372856","714231.281953","714998.694377","715765.889147","716532.885429","720402.645934","721170.023732","721937.337222","722704.162225","723471.24322","724238.94008","725005.903282","725756.621792","725015.10231","Mapping"
"Mixed","Female","ball","12","F_ball.wav","None","739.73186349","220","719652.026977","726523.660121","712696.6222","713464.372856","714231.281953","714998.694377","715765.889147","716532.885429","720402.645934","721170.023732","721937.337222","722704.162225","723471.24322","724238.94008","725005.903282","725756.621792","725760.915537","Mapping"
"Mixed","Female","ball","12","M_cling.wav","space","433.676655724","220","719652.026977","726523.660121","727291.233314","713464.372856","714231.281953","714998.694377","715765.889147","716532.885429","720402.645934","721170.023732","721937.337222","722704.162225","723471.24322","724238.94008","725005.903282","725756.621792","726532.409308","Mapping"
"Mixed","Female","ball","12","M_romp.wav","None","729.566371258","220","719652.026977","726523.660121","727291.233314","728058.186313","714231.281953","714998.694377","715765.889147","716532.885429","720402.645934","721170.023732","721937.337222","722704.162225","723471.24322","724238.94008","725005.903282","725756.621792","727300.385658","Mapping"
"Mixed","Female","ball","12","F_romp.wav","None","727.736087996","220","719652.026977","726523.660121","727291.233314","728058.186313","728825.437351","714998.694377","715765.889147","716532.885429","720402.645934","721170.023732","721937.337222","722704.162225","723471.24322","724238.94008","725005.903282","725756.621792","728067.568988","Mapping"
"Mixed","Female","ball","12","M_gnash.wav","None","725.105055782","220","719652.026977","726523.660121","727291.233314","728058.186313","728825.437351","729592.75888","715765.889147","716532.885429","720402.645934","721170.023732","721937.337222","722704.162225","723471.24322","724238.94008","725005.903282","725756.621792","728835.026242","Mapping"
"Mixed","Female","ball","12","M_cling.wav","None","722.860485417","220","719652.026977","726523.660121","727291.233314","728058.186313","728825.437351","729592.75888","730360.077317","716532.885429","720402.645934","721170.023732","721937.337222","722704.162225","723471.24322","724238.94008","725005.903282","725756.621792","729602.413315","Mapping"
"Mixed","Female","ball","12","M_greet.wav","None","720.776064845","220","719652.026977","726523.660121","727291.233314","728058.186313","728825.437351","729592.75888","730360.077317","731110.399781","720402.645934","721170.023732","721937.337222","722704.162225","723471.24322","724238.94008","725005.903282","725756.621792","730369.381463","Mapping"
"Mixed","Female","ball","11","F_gnash.wav","None","735.694110204","220","734246.39292","726523.660121","727291.233314","728058.186313","728825.437351","729592.75888","730360.077317","731110.399781","720402.645934","721170.023732","721937.337222","722704.162225","723471.24322","724238.94008","725005.903282","725756.621792","731119.650441","Mapping"
"Mixed","Female","ball","11","F_knife.wav","None","720.54727943","220","734246.39292","726523.660121","727291.233314","728058.186313","728825.437351","729592.75888","730360.077317","731110.399781","734996.661588","721170.023732","721937.337222","722704.162225","723471.24322","724238.94008","725005.903282","725756.621792","734255.990159","Mapping"
"Mixed","Female","ball","11","F_cave.wav","None","735.759035786","220","734246.39292","726523.660121","727291.233314","728058.186313","728825.437351","729592.75888","730360.077317","731110.399781","734996.661588","735763.984354","721937.337222","722704.162225","723471.24322","724238.94008","725005.903282","725756.621792","735005.812695","Mapping"
"Mixed","Female","ball","11","M_jaw.wav","None","733.111617606","220","734246.39292","726523.660121","727291.233314","728058.186313","728825.437351","729592.75888","730360.077317","731110.399781","734996.661588","735763.984354","736531.336181","722704.162225","723471.24322","724238.94008","725005.903282","725756.621792","735773.501827","Mapping"
"Mixed","Female","ball","11","F_ball.wav","None","731.208988669","220","734246.39292","726523.660121","727291.233314","728058.186313","728825.437351","729592.75888","730360.077317","731110.399781","734996.661588","735763.984354","736531.336181","737298.20354","723471.24322","724238.94008","725005.903282","725756.621792","736540.628888","Mapping"
"Mixed","Female","ball","11","M_done.wav","space","482.916840832","220","734246.39292","726523.660121","727291.233314","728058.186313","728825.437351","729592.75888","730360.077317","731110.399781","734996.661588","735763.984354","736531.336181","737298.20354","738065.224247","724238.94008","725005.903282","725756.621792","737306.887801","Mapping"
"Mixed","Female","ball","11","F_ball.wav","None","727.560170562","220","734246.39292","726523.660121","727291.233314","728058.186313","728825.437351","729592.75888","730360.077317","731110.399781","734996.661588","735763.984354","736531.336181","737298.20354","738065.224247","738832.902557","725005.903282","725756.621792","738074.033103","Mapping"
"Mixed","Female","ball","11","M_romp.wav","space","419.217108691","220","734246.39292","726523.660121","727291.233314","728058.186313","728825.437351","729592.75888","730360.077317","731110.399781","734996.661588","735763.984354","736531.336181","737298.20354","738065.224247","738832.902557","739600.238617","725756.621792","738842.518037","Mapping"
"Mixed","Female","ball","11","F_cad.wav","None","721.6312276","220","734246.39292","726523.660121","727291.233314","728058.186313","728825.437351","729592.75888","730360.077317","731110.399781","734996.661588","735763.984354","736531.336181","737298.20354","738065.224247","738832.902557","739600.238617","740350.267988","739609.56997","Mapping"
"Mixed","Female","ball","11","M_dime.wav","None","736.906672857","220","734246.39292","741117.931768","727291.233314","728058.186313","728825.437351","729592.75888","730360.077317","731110.399781","734996.661588","735763.984354","736531.336181","737298.20354","738065.224247","738832.902557","739600.238617","740350.267988","740359.400236","Mapping"
"Mixed","Female","ball","11","F_ball.wav","None","734.155682905","220","734246.39292","741117.931768","741885.19239","728058.186313","728825.437351","729592.75888","730360.077317","731110.399781","734996.661588","735763.984354","736531.336181","737298.20354","738065.224247","738832.902557","739600.238617","740350.267988","741127.53148","Mapping"
"Mixed","Female","ball","11","M_depth.wav","space","519.162633034","220","734246.39292","741117.931768","741885.19239","742652.38685","728825.437351","729592.75888","730360.077317","731110.399781","734996.661588","735763.984354","736531.336181","737298.20354","738065.224247","738832.902557","739600.238617","740350.267988","741894.495609","Mapping"
"Mixed","Female","ball","11","M_dime.wav","None","729.334803327","220","734246.39292","741117.931768","741885.19239","742652.38685","743419.757846","729592.75888","730360.077317","731110.399781","734996.661588","735763.984354","736531.336181","737298.20354","738065.224247","738832.902557","739600.238617","740350.267988","742661.920709","Mapping"
"Mixed","Female","ball","11","M_jolt.wav","None","727.790810983","220","734246.39292","741117.931768","741885.19239","742652.38685","743419.757846","744186.491335","730360.077317","731110.399781","734996.661588","735763.984354","736531.336181","737298.20354","738065.224247","738832.902557","739600.238617","740350.267988","743428.771373","Mapping"
"Mixed","Female","ball","11","F_ball.wav","None","726.114803285","220","734246.39292","741117.931768","741885.19239","742652.38685","743419.757846","744186.491335","744953.556871","731110.399781","734996.661588","735763.984354","736531.336181","737298.20354","738065.224247","738832.902557","739600.238617","740350.267988","744195.60596","Mapping"
"Mixed","Female","ball","11","M_romp.wav","space","674.34097435","220","734246.39292","741117.931768","741885.19239","742652.38685","743419.757846","744186.491335","744953.556871","745721.283721","734996.661588","735763.984354","736531.336181","737298.20354","738065.224247","738832.902557","739600.238617","740350.267988","744963.235112","Mapping"
"Mixed","Male","ball","3","F_dime.wav","None","720.29994386","220","748840.278413","741117.931768","741885.19239","742652.38685","743419.757846","744186.491335","744953.556871","745721.283721","734996.661588","735763.984354","736531.336181","737298.20354","738065.224247","738832.902557","739600.238617","740350.267988","745730.922698","Mapping"
"Mixed","Male","ball","3","M_ball.wav","None","720.197299583","220","748840.278413","741117.931768","741885.19239","742652.38685","743419.757846","744186.491335","744953.556871","745721.283721","749590.550482","735763.984354","736531.336181","737298.20354","738065.224247","738832.902557","739600.238617","740350.267988","748849.79836","Mapping"
"Mixed","Male","ball","3","F_lash.wav","space","445.719424984","220","748840.278413","741117.931768","741885.19239","742652.38685","743419.757846","744186.491335","744953.556871","745721.283721","749590.550482","750358.234049","736531.336181","737298.20354","738065.224247","738832.902557","739600.238617","740350.267988","749599.729724","Mapping"
"Mixed","Male","ball","3","M_jaw.wav","None","732.015611822","220","748840.278413","741117.931768","741885.19239","742652.38685","743419.757846","744186.491335","744953.556871","745721.283721","749590.550482","750358.234049","751125.12274","737298.20354","738065.224247","738832.902557","739600.238617","740350.267988","750367.730498","Mapping"
"Mixed","Male","ball","3","F_cad.wav","None","730.064752453","220","748840.278413","741117.931768","741885.19239","742652.38685","743419.757846","744186.491335","744953.556871","745721.283721","749590.550482","750358.234049","751125.12274","751892.434376","738065.224247","738832.902557","739600.238617","740350.267988","751134.772847","Mapping"
"Mixed","Male","ball","3","M_ball.wav","None","728.334949265","220","748840.278413","741117.931768","741885.19239","742652.38685","743419.757846","744186.491335","744953.556871","745721.283721","749590.550482","750358.234049","751125.12274","751892.434376","752659.829487","738832.902557","739600.238617","740350.267988","751901.814268","Mapping"
"Mixed","Male","ball","3","F_jolt.wav","space","391.97371318","220","748840.278413","741117.931768","741885.19239","742652.38685","743419.757846","744186.491335","744953.556871","745721.283721","749590.550482","750358.234049","751125.12274","751892.434376","752659.829487","753427.505015","739600.238617","740350.267988","752669.365819","Mapping"
"Mixed","Male","ball","3","F_tile.wav","None","723.089580002","220","748840.278413","741117.931768","741885.19239","742652.38685","743419.757846","744186.491335","744953.556871","745721.283721","749590.550482","750358.234049","751125.12274","751892.434376","752659.829487","753427.505015","754194.007244","740350.267988","753437.041347","Mapping"
"Mixed","Male","ball","3","M_ball.wav","None","722.440633283","220","748840.278413","741117.931768","741885.19239","742652.38685","743419.757846","744186.491335","744953.556871","745721.283721","749590.550482","750358.234049","751125.12274","751892.434376","752659.829487","753427.505015","754194.007244","754961.368656","754203.438768","Mapping"
"Mixed","Male","ball","3","M_cad.wav","space","450.708801931","220","748840.278413","755712.004618","741885.19239","742652.38685","743419.757846","744186.491335","744953.556871","745721.283721","749590.550482","750358.234049","751125.12274","751892.434376","752659.829487","753427.505015","754194.007244","754961.368656","754970.589326","Mapping"
"Mixed","Male","ball","3","F_knife.wav","None","734.131876859","220","748840.278413","755712.004618","756478.824674","742652.38685","743419.757846","744186.491335","744953.556871","745721.283721","749590.550482","750358.234049","751125.12274","751892.434376","752659.829487","753427.505015","754194.007244","754961.368656","755721.588253","Mapping"
"Mixed","Male","ball","3","F_jolt.wav","None","738.994185143","220","748840.278413","755712.004618","756478.824674","757246.309135","743419.757846","744186.491335","744953.556871","745721.283721","749590.550482","750358.234049","751125.12274","751892.434376","752659.829487","753427.505015","754194.007244","754961.368656","756482.20235","Mapping"
"Mixed","Male","ball","3","M_ball.wav","None","730.961653098","220","748840.278413","755712.004618","756478.824674","757246.309135","758013.671783","744186.491335","744953.556871","745721.283721","749590.550482","750358.234049","751125.12274","751892.434376","752659.829487","753427.505015","754194.007244","754961.368656","757255.553302","Mapping"
"Mixed","Male","ball","3","M_priest.wav","space","494.357966309","220","748840.278413","755712.004618","756478.824674","757246.309135","758013.671783","758780.929005","744953.556871","745721.283721","749590.550482","750358.234049","751125.12274","751892.434376","752659.829487","753427.505015","754194.007244","754961.368656","758022.838658","Mapping"
"Mixed","Male","ball","3","M_lash.wav","None","725.524907932","220","748840.278413","755712.004618","756478.824674","757246.309135","758013.671783","758780.929005","759548.072143","745721.283721","749590.550482","750358.234049","751125.12274","751892.434376","752659.829487","753427.505015","754194.007244","754961.368656","758790.894774","Mapping"
"Mixed","Male","ball","3","F_reek.wav","None","724.192078342","220","748840.278413","755712.004618","756478.824674","757246.309135","758013.671783","758780.929005","759548.072143","760314.912295","749590.550482","750358.234049","751125.12274","751892.434376","752659.829487","753427.505015","754194.007244","754961.368656","759557.473368","Mapping"
"Mixed","Female","ball","7","M_priest.wav","None","722.912116733","220","763434.061572","755712.004618","756478.824674","757246.309135","758013.671783","758780.929005","759548.072143","760314.912295","749590.550482","750358.234049","751125.12274","751892.434376","752659.829487","753427.505015","754194.007244","754961.368656","760323.954574","Mapping"
"Mixed","Female","ball","7","M_done.wav","None","720.370434487","220","763434.061572","755712.004618","756478.824674","757246.309135","758013.671783","758780.929005","759548.072143","760314.912295","764184.581286","750358.234049","751125.12274","751892.434376","752659.829487","753427.505015","754194.007244","754961.368656","763443.385814","Mapping"
"Mixed","Female","ball","7","F_greet.wav","None","734.628093865","220","763434.061572","755712.004618","756478.824674","757246.309135","758013.671783","758780.929005","759548.072143","760314.912295","764184.581286","764951.518208","751125.12274","751892.434376","752659.829487","753427.505015","754194.007244","754961.368656","764194.285497","Mapping"
"Mixed","Female","ball","7","F_ball.wav","None","734.487112582","220","763434.061572","755712.004618","756478.824674","757246.309135","758013.671783","758780.929005","759548.072143","760314.912295","764184.581286","764951.518208","765719.259279","751892.434376","752659.829487","753427.505015","754194.007244","754961.368656","764960.256574","Mapping"
"Mixed","Female","ball","7","M_priest.wav","space","515.967057378","220","763434.061572","755712.004618","756478.824674","757246.309135","758013.671783","758780.929005","759548.072143","760314.912295","764184.581286","764951.518208","765719.259279","766486.050892","752659.829487","753427.505015","754194.007244","754961.368656","765728.969983","Mapping"
"Mixed","Female","ball","7","M_cad.wav","None","730.199550351","220","763434.061572","755712.004618","756478.824674","757246.309135","758013.671783","758780.929005","759548.072143","760314.912295","764184.581286","764951.518208","765719.259279","766486.050892","767253.486504","753427.505015","754194.007244","754961.368656","766494.894375","Mapping"
"Mixed","Female","ball","7","F_ball.wav","None","728.159959341","220","763434.061572","755712.004618","756478.824674","757246.309135","758013.671783","758780.929005","759548.072143","760314.912295","764184.581286","764951.518208","765719.259279","766486.050892","767253.486504","768020.741252","754194.007244","754961.368656","767262.325969","Mapping"
"Mixed","Female","ball","7","M_tile.wav","space","510.936251725","220","763434.061572","755712.004618","756478.824674","757246.309135","758013.671783","758780.929005","759548.072143","760314.912295","764184.581286","764951.518208","765719.259279","766486.050892","767253.486504","768020.741252","768787.777109","754961.368656","768029.958213","Mapping"
"Mixed","Female","ball","7","F_ball.wav","None","723.049697132","220","763434.061572","755712.004618","756478.824674","757246.309135","758013.671783","758780.929005","759548.072143","760314.912295","764184.581286","764951.518208","765719.259279","766486.050892","767253.486504","768020.741252","768787.777109","769555.486336","768796.943365","Mapping"
"Mixed","Female","ball","7","M_romp.wav","space","408.014352884","220","763434.061572","770305.586198","756478.824674","757246.309135","758013.671783","758780.929005","759548.072143","760314.912295","764184.581286","764951.518208","765719.259279","766486.050892","767253.486504","768020.741252","768787.777109","769555.486336","769564.832838","Mapping"
"Mixed","Female","ball","7","M_romp.wav","None","735.367318062","220","763434.061572","770305.586198","771072.861351","757246.309135","758013.671783","758780.929005","759548.072143","760314.912295","764184.581286","764951.518208","765719.259279","766486.050892","767253.486504","768020.741252","768787.777109","769555.486336","770314.376195","Mapping"
"Mixed","Female","ball","7","F_ball.wav","None","733.411821158","220","763434.061572","770305.586198","771072.861351","771840.10466","758013.671783","758780.929005","759548.072143","760314.912295","764184.581286","764951.518208","765719.259279","766486.050892","767253.486504","768020.741252","768787.777109","769555.486336","771081.766978","Mapping"
"Mixed","Female","ball","7","F_reek.wav","space","483.728719875","220","763434.061572","770305.586198","771072.861351","771840.10466","772607.344568","758780.929005","759548.072143","760314.912295","764184.581286","764951.518208","765719.259279","766486.050892","767253.486504","768020.741252","768787.777109","769555.486336","771849.054498","Mapping"
"Mixed","Female","ball","7","F_tile.wav","None","729.152393353","220","763434.061572","770305.586198","771072.861351","771840.10466","772607.344568","773374.476267","759548.072143","760314.912295","764184.581286","764951.518208","765719.259279","766486.050892","767253.486504","768020.741252","768787.777109","769555.486336","772616.120653","Mapping"
"Mixed","Female","ball","7","F_bluff.wav","None","727.334167677","220","763434.061572","770305.586198","771072.861351","771840.10466","772607.344568","773374.476267","774142.181475","760314.912295","764184.581286","764951.518208","765719.259279","766486.050892","767253.486504","768020.741252","768787.777109","769555.486336","773383.271211","Mapping"
"Mixed","Female","ball","7","M_park.wav","None","724.849990977","220","763434.061572","770305.586198","771072.861351","771840.10466","772607.344568","773374.476267","774142.181475","774909.554326","764184.581286","764951.518208","765719.259279","766486.050892","767253.486504","768020.741252","768787.777109","769555.486336","774151.65721","Mapping"
"Mixed","Male","tile","26","M_reek.wav","None","722.429503177","220","778028.296118","770305.586198","771072.861351","771840.10466","772607.344568","773374.476267","774142.181475","774909.554326","764184.581286","764951.518208","765719.259279","766486.050892","767253.486504","768020.741252","768787.777109","769555.486336","774919.721982","Mapping"
"Mixed","Male","tile","26","F_cave.wav","None","720.698772478","220","778028.296118","770305.586198","771072.861351","771840.10466","772607.344568","773374.476267","774142.181475","774909.554326","778778.614253","764951.518208","765719.259279","766486.050892","767253.486504","768020.741252","768787.777109","769555.486336","778037.872024","Mapping"
"Mixed","Male","tile","26","M_tile.wav","None","735.972362716","220","778028.296118","770305.586198","771072.861351","771840.10466","772607.344568","773374.476267","774142.181475","774909.554326","778778.614253","779546.149727","765719.259279","766486.050892","767253.486504","768020.741252","768787.777109","769555.486336","778788.243336","Mapping"
"Mixed","Male","tile","26","M_bluff.wav","space","433.168071948","220","778028.296118","770305.586198","771072.861351","771840.10466","772607.344568","773374.476267","774142.181475","774909.554326","778778.614253","779546.149727","780313.298739","766486.050892","767253.486504","768020.741252","768787.777109","769555.486336","779555.384619","Mapping"
"Mixed","Male","tile","26","M_ball.wav","None","731.193839369","220","778028.296118","770305.586198","771072.861351","771840.10466","772607.344568","773374.476267","774142.181475","774909.554326","778778.614253","779546.149727","780313.298739","781080.529682","767253.486504","768020.741252","768787.777109","769555.486336","780322.932769","Mapping"
"Mixed","Male","tile","26","F_jaw.wav","None","728.7912834","220","778028.296118","770305.586198","771072.861351","771840.10466","772607.344568","773374.476267","774142.181475","774909.554326","778778.614253","779546.149727","780313.298739","781080.529682","781847.600783","768020.741252","768787.777109","769555.486336","781090.608915","Mapping"
"Mixed","Male","tile","26","M_bluff.wav","None","728.34082348","220","778028.296118","770305.586198","771072.861351","771840.10466","772607.344568","773374.476267","774142.181475","774909.554326","778778.614253","779546.149727","780313.298739","781080.529682","781847.600783","782615.021246","768787.777109","769555.486336","781857.126913","Mapping"
"Mixed","Male","tile","26","F_lash.wav","None","726.469111498","220","778028.296118","770305.586198","771072.861351","771840.10466","772607.344568","773374.476267","774142.181475","774909.554326","778778.614253","779546.149727","780313.298739","781080.529682","781847.600783","782615.021246","783382.090493","769555.486336","782624.59437","Mapping"
"Mixed","Male","tile","26","M_tile.wav","None","725.444523865","220","778028.296118","770305.586198","771072.861351","771840.10466","772607.344568","773374.476267","774142.181475","774909.554326","778778.614253","779546.149727","780313.298739","781080.529682","781847.600783","782615.021246","783382.090493","784149.488077","783391.607657","Mapping"
"Mixed","Male","tile","26","F_dime.wav","space","501.383533381","220","778028.296118","784916.256811","771072.861351","771840.10466","772607.344568","773374.476267","774142.181475","774909.554326","778778.614253","779546.149727","780313.298739","781080.529682","781847.600783","782615.021246","783382.090493","784149.488077","784158.996275","Mapping"
"Mixed","Male","tile","26","F_cling.wav","None","721.387292899","220","778028.296118","784916.256811","785683.740654","771840.10466","772607.344568","773374.476267","774142.181475","774909.554326","778778.614253","779546.149727","780313.298739","781080.529682","781847.600783","782615.021246","783382.090493","784149.488077","784926.029658","Mapping"
"Mixed","Male","tile","26","F_priest.wav","None","719.793215088","220","778028.296118","784916.256811","785683.740654","786433.92832","772607.344568","773374.476267","774142.181475","774909.554326","778778.614253","779546.149727","780313.298739","781080.529682","781847.600783","782615.021246","783382.090493","784149.488077","785693.339748","Mapping"
"Mixed","Male","tile","26","M_tile.wav","None","736.092320483","220","778028.296118","784916.256811","785683.740654","786433.92832","787201.63662","773374.476267","774142.181475","774909.554326","778778.614253","779546.149727","780313.298739","781080.529682","781847.600783","782615.021246","783382.090493","784149.488077","786443.106325","Mapping"
"Mixed","Male","tile","26","F_bluff.wav","space","496.961482422","220","778028.296118","784916.256811","785683.740654","786433.92832","787201.63662","787969.067594","774142.181475","774909.554326","778778.614253","779546.149727","780313.298739","781080.529682","781847.600783","782615.021246","783382.090493","784149.488077","787211.321044","Mapping"
"Mixed","Male","tile","26","M_tile.wav","None","730.964435614","220","778028.296118","784916.256811","785683.740654","786433.92832","787201.63662","787969.067594","788736.059239","774909.554326","778778.614253","779546.149727","780313.298739","781080.529682","781847.600783","782615.021246","783382.090493","784149.488077","787978.436666","Mapping"
"Mixed","Male","tile","26","F_greet.wav","space","498.577511258","220","778028.296118","784916.256811","785683.740654","786433.92832","787201.63662","787969.067594","788736.059239","789503.32419","778778.614253","779546.149727","780313.298739","781080.529682","781847.600783","782615.021246","783382.090493","784149.488077","788745.692342","Mapping"
"Mixed","Male","done","37","F_knife.wav","None","727.301704886","220","792638.976315","784916.256811","785683.740654","786433.92832","787201.63662","787969.067594","788736.059239","789503.32419","778778.614253","779546.149727","780313.298739","781080.529682","781847.600783","782615.021246","783382.090493","784149.488077","789512.853721","Mapping"
"Mixed","Male","done","37","M_reek.wav","None","720.341372566","220","792638.976315","784916.256811","785683.740654","786433.92832","787201.63662","787969.067594","788736.059239","789503.32419","793389.056081","779546.149727","780313.298739","781080.529682","781847.600783","782615.021246","783382.090493","784149.488077","792648.432263","Mapping"
"Mixed","Male","done","37","F_jolt.wav","None","736.304101563","220","792638.976315","784916.256811","785683.740654","786433.92832","787201.63662","787969.067594","788736.059239","789503.32419","793389.056081","794156.872281","780313.298739","781080.529682","781847.600783","782615.021246","783382.090493","784149.488077","793398.194203","Mapping"
"Mixed","Male","done","37","M_done.wav","None","733.311031916","220","792638.976315","784916.256811","785683.740654","786433.92832","787201.63662","787969.067594","788736.059239","789503.32419","793389.056081","794156.872281","794923.572379","781080.529682","781847.600783","782615.021246","783382.090493","784149.488077","794166.661205","Mapping"
"Mixed","Male","done","37","M_park.wav","space","591.139450276","220","792638.976315","784916.256811","785683.740654","786433.92832","787201.63662","787969.067594","788736.059239","789503.32419","793389.056081","794156.872281","794923.572379","795691.063024","781847.600783","782615.021246","783382.090493","784149.488077","794932.94918","Mapping"
"Mixed","Male","done","37","F_jaw.wav","None","730.064443283","220","792638.976315","784916.256811","785683.740654","786433.92832","787201.63662","787969.067594","788736.059239","789503.32419","793389.056081","794156.872281","794923.572379","795691.063024","796458.5345","782615.021246","783382.090493","784149.488077","795700.164664","Mapping"
"Mixed","Male","done","37","M_done.wav","None","727.794211853","220","792638.976315","784916.256811","785683.740654","786433.92832","787201.63662","787969.067594","788736.059239","789503.32419","793389.056081","794156.872281","794923.572379","795691.063024","796458.5345","797225.749056","783382.090493","784149.488077","796468.069595","Mapping"
"Mixed","Male","done","37","F_bluff.wav","space","624.697323074","220","792638.976315","784916.256811","785683.740654","786433.92832","787201.63662","787969.067594","788736.059239","789503.32419","793389.056081","794156.872281","794923.572379","795691.063024","796458.5345","797225.749056","797992.707001","784149.488077","797235.269621","Mapping"
"Mixed","Male","done","37","F_ball.wav","None","724.665107628","220","792638.976315","784916.256811","785683.740654","786433.92832","787201.63662","787969.067594","788736.059239","789503.32419","793389.056081","794156.872281","794923.572379","795691.063024","796458.5345","797225.749056","797992.707001","798760.360578","798002.373185","Mapping"
"Mixed","Male","done","37","M_done.wav","None","723.013215145","220","792638.976315","799527.433535","785683.740654","786433.92832","787201.63662","787969.067594","788736.059239","789503.32419","793389.056081","794156.872281","794923.572379","795691.063024","796458.5345","797225.749056","797992.707001","798760.360578","798769.983478","Mapping"
"Mixed","Male","done","37","F_reek.wav","space","547.084964724","220","792638.976315","799527.433535","800277.734666","786433.92832","787201.63662","787969.067594","788736.059239","789503.32419","793389.056081","794156.872281","794923.572379","795691.063024","796458.5345","797225.749056","797992.707001","798760.360578","799536.894121","Mapping"
"Mixed","Male","done","37","F_cling.wav","None","735.46130558","220","792638.976315","799527.433535","800277.734666","801045.000544","787201.63662","787969.067594","788736.059239","789503.32419","793389.056081","794156.872281","794923.572379","795691.063024","796458.5345","797225.749056","797992.707001","798760.360578","800287.226787","Mapping"
"Mixed","Male","done","37","M_cling.wav","None","733.757163456","220","792638.976315","799527.433535","800277.734666","801045.000544","801812.317435","787969.067594","788736.059239","789503.32419","793389.056081","794156.872281","794923.572379","795691.063024","796458.5345","797225.749056","797992.707001","798760.360578","801054.253986","Mapping"
"Mixed","Male","done","37","M_done.wav","None","732.14700885","220","792638.976315","799527.433535","800277.734666","801045.000544","801812.317435","802579.601246","788736.059239","789503.32419","793389.056081","794156.872281","794923.572379","795691.063024","796458.5345","797225.749056","797992.707001","798760.360578","801821.737211","Mapping"
"Mixed","Male","done","37","M_cad.wav","space","566.663739868","220","792638.976315","799527.433535","800277.734666","801045.000544","801812.317435","802579.601246","803346.975333","789503.32419","793389.056081","794156.872281","794923.572379","795691.063024","796458.5345","797225.749056","797992.707001","798760.360578","802589.182717","Mapping"
"Mixed","Male","done","37","F_gnash.wav","None","727.140627583","220","792638.976315","799527.433535","800277.734666","801045.000544","801812.317435","802579.601246","803346.975333","804113.949356","793389.056081","794156.872281","794923.572379","795691.063024","796458.5345","797225.749056","797992.707001","798760.360578","803356.581847","Mapping"
"Mixed","Female","cave","22","M_gnash.wav","None","725.532946337","220","807249.774615","799527.433535","800277.734666","801045.000544","801812.317435","802579.601246","803346.975333","804113.949356","793389.056081","794156.872281","794923.572379","795691.063024","796458.5345","797225.749056","797992.707001","798760.360578","804123.655731","Mapping"
"Mixed","Female","cave","22","F_cave.wav","None","720.444325998","220","807249.774615","799527.433535","800277.734666","801045.000544","801812.317435","802579.601246","803346.975333","804113.949356","808000.184883","794156.872281","794923.572379","795691.063024","796458.5345","797225.749056","797992.707001","798760.360578","807258.945819","Mapping"
"Mixed","Female","cave","22","M_ball.wav","space","633.827097598","220","807249.774615","799527.433535","800277.734666","801045.000544","801812.317435","802579.601246","803346.975333","804113.949356","808000.184883","808767.599163","794923.572379","795691.063024","796458.5345","797225.749056","797992.707001","798760.360578","808009.852922","Mapping"
"Mixed","Female","cave","22","M_jolt.wav","None","732.006955077","220","807249.774615","799527.433535","800277.734666","801045.000544","801812.317435","802579.601246","803346.975333","804113.949356","808000.184883","808767.599163","809534.766107","795691.063024","796458.5345","797225.749056","797992.707001","798760.360578","808777.061295","Mapping"
"Mixed","Female","cave","22","M_romp.wav","None","731.01390274","220","807249.774615","799527.433535","800277.734666","801045.000544","801812.317435","802579.601246","803346.975333","804113.949356","808000.184883","808767.599163","809534.766107","810301.903371","796458.5345","797225.749056","797992.707001","798760.360578","809543.960807","Mapping"
"Mixed","Female","cave","22","F_cling.wav","None","729.837512888","220","807249.774615","799527.433535","800277.734666","801045.000544","801812.317435","802579.601246","803346.975333","804113.949356","808000.184883","808767.599163","809534.766107","810301.903371","811069.352278","797225.749056","797992.707001","798760.360578","810311.346643","Mapping"
"Mixed","Female","cave","22","F_cave.wav","None","727.509775941","220","807249.774615","799527.433535","800277.734666","801045.000544","801812.317435","802579.601246","803346.975333","804113.949356","808000.184883","808767.599163","809534.766107","810301.903371","811069.352278","811836.307441","797992.707001","798760.360578","811079.013514","Mapping"
"Mixed","Female","cave","22","M_park.wav","space","613.862478946","220","807249.774615","799527.433535","800277.734666","801045.000544","801812.317435","802579.601246","803346.975333","804113.949356","808000.184883","808767.599163","809534.766107","810301.903371","811069.352278","811836.307441","812603.623404","798760.360578","811845.719796","Mapping"
"Mixed","Female","cave","22","F_knife.wav","None","723.41235292","220","807249.774615","799527.433535","800277.734666","801045.000544","801812.317435","802579.601246","803346.975333","804113.949356","808000.184883","808767.599163","809534.766107","810301.903371","811069.352278","811836.307441","812603.623404","813370.831777","812613.24785","Mapping"
"Mixed","Female","cave","22","F_cave.wav","None","721.791377393","220","807249.774615","814138.213903","800277.734666","801045.000544","801812.317435","802579.601246","803346.975333","804113.949356","808000.184883","808767.599163","809534.766107","810301.903371","811069.352278","811836.307441","812603.623404","813370.831777","813380.508782","Mapping"
"Mixed","Female","cave","22","M_cling.wav","space","455.712709823","220","807249.774615","814138.213903","814888.586143","801045.000544","801812.317435","802579.601246","803346.975333","804113.949356","808000.184883","808767.599163","809534.766107","810301.903371","811069.352278","811836.307441","812603.623404","813370.831777","814147.788573","Mapping"
"Mixed","Female","cave","22","F_cave.wav","None","733.755617621","220","807249.774615","814138.213903","814888.586143","815655.884484","801812.317435","802579.601246","803346.975333","804113.949356","808000.184883","808767.599163","809534.766107","810301.903371","811069.352278","811836.307441","812603.623404","813370.831777","814898.060951","Mapping"
"Mixed","Female","cave","22","F_cling.wav","space","530.117125774","220","807249.774615","814138.213903","814888.586143","815655.884484","816422.685372","802579.601246","803346.975333","804113.949356","808000.184883","808767.599163","809534.766107","810301.903371","811069.352278","811836.307441","812603.623404","813370.831777","815665.351563","Mapping"
"Mixed","Female","cave","22","M_romp.wav","None","729.92624453","220","807249.774615","814138.213903","814888.586143","815655.884484","816422.685372","817190.377904","803346.975333","804113.949356","808000.184883","808767.599163","809534.766107","810301.903371","811069.352278","811836.307441","812603.623404","813370.831777","816431.56812","Mapping"
"Mixed","Female","cave","22","F_jolt.wav","None","727.413933404","220","807249.774615","814138.213903","814888.586143","815655.884484","816422.685372","817190.377904","817957.495381","804113.949356","808000.184883","808767.599163","809534.766107","810301.903371","811069.352278","811836.307441","812603.623404","813370.831777","817199.817466","Mapping"
"Mixed","Female","cave","22","M_park.wav","None","732.048074613","220","807249.774615","814138.213903","814888.586143","815655.884484","816422.685372","817190.377904","817957.495381","818724.731888","808000.184883","808767.599163","809534.766107","810301.903371","811069.352278","811836.307441","812603.623404","813370.831777","817961.318262","Mapping"
"Mixed","Male","cave","16","F_depth.wav","None","725.762350077","220","821860.457905","814138.213903","814888.586143","815655.884484","816422.685372","817190.377904","817957.495381","818724.731888","808000.184883","808767.599163","809534.766107","810301.903371","811069.352278","811836.307441","812603.623404","813370.831777","818733.887324","Mapping"
"Mixed","Male","cave","16","M_cave.wav","None","719.830624599","220","821860.457905","814138.213903","814888.586143","815655.884484","816422.685372","817190.377904","817957.495381","818724.731888","822610.389578","808767.599163","809534.766107","810301.903371","811069.352278","811836.307441","812603.623404","813370.831777","821869.946625","Mapping"
"Mixed","Male","cave","16","M_romp.wav","space","559.705880893","220","821860.457905","814138.213903","814888.586143","815655.884484","816422.685372","817190.377904","817957.495381","818724.731888","822610.389578","823378.659948","809534.766107","810301.903371","811069.352278","811836.307441","812603.623404","813370.831777","822619.530174","Mapping"
"Mixed","Male","cave","16","F_cad.wav","None","731.032762065","220","821860.457905","814138.213903","814888.586143","815655.884484","816422.685372","817190.377904","817957.495381","818724.731888","822610.389578","823378.659948","824145.294812","810301.903371","811069.352278","811836.307441","812603.623404","813370.831777","823388.756186","Mapping"
"Mixed","Male","cave","16","F_bluff.wav","None","730.696076513","220","821860.457905","814138.213903","814888.586143","815655.884484","816422.685372","817190.377904","817957.495381","818724.731888","822610.389578","823378.659948","824145.294812","824912.202981","811069.352278","811836.307441","812603.623404","813370.831777","824154.719225","Mapping"
"Mixed","Male","cave","16","M_cave.wav","None","729.842768778","220","821860.457905","814138.213903","814888.586143","815655.884484","816422.685372","817190.377904","817957.495381","818724.731888","822610.389578","823378.659948","824145.294812","824912.202981","825679.946526","811836.307441","812603.623404","813370.831777","824921.23784","Mapping"
"Mixed","Male","cave","16","M_greet.wav","space","561.531526633","220","821860.457905","814138.213903","814888.586143","815655.884484","816422.685372","817190.377904","817957.495381","818724.731888","822610.389578","823378.659948","824145.294812","824912.202981","825679.946526","826447.187671","812603.623404","813370.831777","825689.595705","Mapping"
"Mixed","Male","cave","16","F_reek.wav","None","724.684276138","220","821860.457905","814138.213903","814888.586143","815655.884484","816422.685372","817190.377904","817957.495381","818724.731888","822610.389578","823378.659948","824145.294812","824912.202981","825679.946526","826447.187671","827213.900445","813370.831777","826456.462755","Mapping"
"Mixed","Male","cave","16","F_bluff.wav","None","723.580541118","220","821860.457905","814138.213903","814888.586143","815655.884484","816422.685372","817190.377904","817957.495381","818724.731888","822610.389578","823378.659948","824145.294812","824912.202981","825679.946526","826447.187671","827213.900445","827981.436537","827223.053098","Mapping"
"Mixed","Male","cave","16","M_cave.wav","None","721.953691362","220","821860.457905","828748.496509","814888.586143","815655.884484","816422.685372","817190.377904","817957.495381","818724.731888","822610.389578","823378.659948","824145.294812","824912.202981","825679.946526","826447.187671","827213.900445","827981.436537","827990.57806","Mapping"
"Mixed","Male","cave","16","F_depth.wav","space","549.57872568","220","821860.457905","828748.496509","829498.691904","815655.884484","816422.685372","817190.377904","817957.495381","818724.731888","822610.389578","823378.659948","824145.294812","824912.202981","825679.946526","826447.187671","827213.900445","827981.436537","828757.470153","Mapping"
"Mixed","Male","cave","16","F_tile.wav","None","736.348312799","220","821860.457905","828748.496509","829498.691904","830266.110203","816422.685372","817190.377904","817957.495381","818724.731888","822610.389578","823378.659948","824145.294812","824912.202981","825679.946526","826447.187671","827213.900445","827981.436537","829507.477882","Mapping"
"Mixed","Male","cave","16","M_bluff.wav","None","734.356643065","220","821860.457905","828748.496509","829498.691904","830266.110203","831033.879718","817190.377904","817957.495381","818724.731888","822610.389578","823378.659948","824145.294812","824912.202981","825679.946526","826447.187671","827213.900445","827981.436537","830275.07519","Mapping"
"Mixed","Male","cave","16","M_cave.wav","None","731.70953404","220","821860.457905","828748.496509","829498.691904","830266.110203","831033.879718","831801.225362","817957.495381","818724.731888","822610.389578","823378.659948","824145.294812","824912.202981","825679.946526","826447.187671","827213.900445","827981.436537","831043.275069","Mapping"
"Mixed","Male","cave","16","M_knife.wav","space","472.375089361","220","821860.457905","828748.496509","829498.691904","830266.110203","831033.879718","831801.225362","832567.985749","818724.731888","822610.389578","823378.659948","824145.294812","824912.202981","825679.946526","826447.187671","827213.900445","827981.436537","831810.598762","Mapping"
"Mixed","Male","cave","16","F_knife.wav","None","727.749691447","220","821860.457905","828748.496509","829498.691904","830266.110203","831033.879718","831801.225362","832567.985749","833335.639016","822610.389578","823378.659948","824145.294812","824912.202981","825679.946526","826447.187671","827213.900445","827981.436537","832576.973305","Mapping"
"Mixed","Male","tile","29","F_lash.wav","None","725.127934333","220","836471.067302","828748.496509","829498.691904","830266.110203","831033.879718","831801.225362","832567.985749","833335.639016","822610.389578","823378.659948","824145.294812","824912.202981","825679.946526","826447.187671","827213.900445","827981.436537","833345.267172","Mapping"
"Mixed","Male","tile","29","F_cad.wav","None","720.931886259","220","836471.067302","828748.496509","829498.691904","830266.110203","831033.879718","831801.225362","832567.985749","833335.639016","837221.267644","823378.659948","824145.294812","824912.202981","825679.946526","826447.187671","827213.900445","827981.436537","836480.619093","Mapping"
"Mixed","Male","tile","29","F_cave.wav","None","736.976236003","220","836471.067302","828748.496509","829498.691904","830266.110203","831033.879718","831801.225362","832567.985749","833335.639016","837221.267644","837988.602467","824145.294812","824912.202981","825679.946526","826447.187671","827213.900445","827981.436537","837230.211299","Mapping"
"Mixed","Male","tile","29","M_romp.wav","None","735.48356579","220","836471.067302","828748.496509","829498.691904","830266.110203","831033.879718","831801.225362","832567.985749","833335.639016","837221.267644","837988.602467","838756.058485","824912.202981","825679.946526","826447.187671","827213.900445","827981.436537","837997.467902","Mapping"
"Mixed","Male","tile","29","F_knife.wav","None","733.227246979","220","836471.067302","828748.496509","829498.691904","830266.110203","831033.879718","831801.225362","832567.985749","833335.639016","837221.267644","837988.602467","838756.058485","839522.905439","825679.946526","826447.187671","827213.900445","827981.436537","838765.513506","Mapping"
"Mixed","Male","tile","29","M_tile.wav","None","732.909729937","220","836471.067302","828748.496509","829498.691904","830266.110203","831033.879718","831801.225362","832567.985749","833335.639016","837221.267644","837988.602467","838756.058485","839522.905439","840290.246754","826447.187671","827213.900445","827981.436537","839532.017591","Mapping"
"Mixed","Male","tile","29","F_gnash.wav","space","495.667917363","220","836471.067302","828748.496509","829498.691904","830266.110203","831033.879718","831801.225362","832567.985749","833335.639016","837221.267644","837988.602467","838756.058485","839522.905439","840290.246754","841057.511087","827213.900445","827981.436537","840299.054065","Mapping"
"Mixed","Male","tile","29","M_tile.wav","None","728.831166256","220","836471.067302","828748.496509","829498.691904","830266.110203","831033.879718","831801.225362","832567.985749","833335.639016","837221.267644","837988.602467","838756.058485","839522.905439","840290.246754","841057.511087","841824.914236","827981.436537","841066.280679","Mapping"
"Mixed","Male","tile","29","M_gnash.wav","space","576.085061184","220","836471.067302","828748.496509","829498.691904","830266.110203","831033.879718","831801.225362","832567.985749","833335.639016","837221.267644","837988.602467","838756.058485","839522.905439","840290.246754","841057.511087","841824.914236","842591.754388","841834.575473","Mapping"
"Mixed","Male","tile","29","M_cad.wav","None","724.712410563","220","836471.067302","843359.131259","829498.691904","830266.110203","831033.879718","831801.225362","832567.985749","833335.639016","837221.267644","837988.602467","838756.058485","839522.905439","840290.246754","841057.511087","841824.914236","842591.754388","842600.463383","Mapping"
"Mixed","Male","tile","29","F_priest.wav","None","723.00115753","220","836471.067302","843359.131259","844126.423107","830266.110203","831033.879718","831801.225362","832567.985749","833335.639016","837221.267644","837988.602467","838756.058485","839522.905439","840290.246754","841057.511087","841824.914236","842591.754388","843367.988036","Mapping"
"Mixed","Male","tile","29","M_tile.wav","None","721.218177176","220","836471.067302","843359.131259","844126.423107","844877.324027","831033.879718","831801.225362","832567.985749","833335.639016","837221.267644","837988.602467","838756.058485","839522.905439","840290.246754","841057.511087","841824.914236","842591.754388","844135.602967","Mapping"
"Mixed","Male","tile","29","M_jaw.wav","space","507.782413944","220","836471.067302","843359.131259","844126.423107","844877.324027","845644.119349","831801.225362","832567.985749","833335.639016","837221.267644","837988.602467","838756.058485","839522.905439","840290.246754","841057.511087","841824.914236","842591.754388","844886.791105","Mapping"
"Mixed","Male","tile","29","F_knife.wav","None","734.516483673","220","836471.067302","843359.131259","844126.423107","844877.324027","845644.119349","846411.5967","832567.985749","833335.639016","837221.267644","837988.602467","838756.058485","839522.905439","840290.246754","841057.511087","841824.914236","842591.754388","845652.866063","Mapping"
"Mixed","Male","tile","29","M_tile.wav","None","732.602415475","220","836471.067302","843359.131259","844126.423107","844877.324027","845644.119349","846411.5967","847178.524965","833335.639016","837221.267644","837988.602467","838756.058485","839522.905439","840290.246754","841057.511087","841824.914236","842591.754388","846420.956187","Mapping"
"Mixed","Male","tile","29","F_cave.wav","space","599.053879589","220","836471.067302","843359.131259","844126.423107","844877.324027","845644.119349","846411.5967","847178.524965","847946.223062","837221.267644","837988.602467","838756.058485","839522.905439","840290.246754","841057.511087","841824.914236","842591.754388","847187.472638","Mapping"
"Mixed","Female","tile","35","M_knife.wav","None","728.323200819","220","851081.630943","843359.131259","844126.423107","844877.324027","845644.119349","846411.5967","847178.524965","847946.223062","837221.267644","837988.602467","838756.058485","839522.905439","840290.246754","841057.511087","841824.914236","842591.754388","847955.28822","Mapping"
"Mixed","Female","tile","35","F_romp.wav","None","721.148923214","220","851081.630943","843359.131259","844126.423107","844877.324027","845644.119349","846411.5967","847178.524965","847946.223062","851832.388099","837988.602467","838756.058485","839522.905439","840290.246754","841057.511087","841824.914236","842591.754388","851091.00187","Mapping"
"Mixed","Female","tile","35","M_reek.wav","None","735.901253749","220","851081.630943","843359.131259","844126.423107","844877.324027","845644.119349","846411.5967","847178.524965","847946.223062","851832.388099","852599.283592","838756.058485","839522.905439","840290.246754","841057.511087","841824.914236","842591.754388","851842.063249","Mapping"
"Mixed","Female","tile","35","M_done.wav","None","734.81328637","220","851081.630943","843359.131259","844126.423107","844877.324027","845644.119349","846411.5967","847178.524965","847946.223062","851832.388099","852599.283592","853366.902233","839522.905439","840290.246754","841057.511087","841824.914236","842591.754388","852609.164958","Mapping"
"Mixed","Female","tile","35","M_priest.wav","None","733.451085674","220","851081.630943","843359.131259","844126.423107","844877.324027","845644.119349","846411.5967","847178.524965","847946.223062","851832.388099","852599.283592","853366.902233","854134.041661","840290.246754","841057.511087","841824.914236","842591.754388","853376.603662","Mapping"
"Mixed","Female","tile","35","M_cling.wav","None","733.082864841","220","851081.630943","843359.131259","844126.423107","844877.324027","845644.119349","846411.5967","847178.524965","847946.223062","851832.388099","852599.283592","853366.902233","854134.041661","854900.846877","841057.511087","841824.914236","842591.754388","854143.044367","Mapping"
"Mixed","Female","tile","35","F_tile.wav","None","732.194620941","220","851081.630943","843359.131259","844126.423107","844877.324027","845644.119349","846411.5967","847178.524965","847946.223062","851832.388099","852599.283592","853366.902233","854134.041661","854900.846877","855668.609282","841824.914236","842591.754388","854909.976342","Mapping"
"Mixed","Female","tile","35","F_cling.wav","space","580.070874013","220","851081.630943","843359.131259","844126.423107","844877.324027","845644.119349","846411.5967","847178.524965","847946.223062","851832.388099","852599.283592","853366.902233","854134.041661","854900.846877","855668.609282","856435.745309","842591.754388","855678.144996","Mapping"
"Mixed","Female","tile","35","F_cling.wav","None","727.089305452","220","851081.630943","843359.131259","844126.423107","844877.324027","845644.119349","846411.5967","847178.524965","847946.223062","851832.388099","852599.283592","853366.902233","854134.041661","854900.846877","855668.609282","856435.745309","857203.000675","856445.536706","Mapping"
"Mixed","Female","tile","35","F_tile.wav","None","726.615657826","220","851081.630943","857970.296852","844126.423107","844877.324027","845644.119349","846411.5967","847178.524965","847946.223062","851832.388099","852599.283592","853366.902233","854134.041661","854900.846877","855668.609282","856435.745309","857203.000675","857212.143744","Mapping"
"Mixed","Female","tile","35","F_cave.wav","space","510.474661714","220","851081.630943","857970.296852","858736.993859","844877.324027","845644.119349","846411.5967","847178.524965","847946.223062","851832.388099","852599.283592","853366.902233","854134.041661","854900.846877","855668.609282","856435.745309","857203.000675","857979.70828","Mapping"
"Mixed","Female","tile","35","M_knife.wav","None","724.050787889","220","851081.630943","857970.296852","858736.993859","859504.678352","845644.119349","846411.5967","847178.524965","847946.223062","851832.388099","852599.283592","853366.902233","854134.041661","854900.846877","855668.609282","856435.745309","857203.000675","858746.160424","Mapping"
"Mixed","Female","tile","35","F_tile.wav","None","722.317893","220","851081.630943","857970.296852","858736.993859","859504.678352","860271.920116","846411.5967","847178.524965","847946.223062","851832.388099","852599.283592","853366.902233","854134.041661","854900.846877","855668.609282","856435.745309","857203.000675","859514.034748","Mapping"
"Mixed","Female","tile","35","M_dime.wav","space","496.463719581","220","851081.630943","857970.296852","858736.993859","859504.678352","860271.920116","861022.159722","847178.524965","847946.223062","851832.388099","852599.283592","853366.902233","854134.041661","854900.846877","855668.609282","856435.745309","857203.000675","860281.631129","Mapping"
"Mixed","Female","tile","35","F_tile.wav","None","735.515101071","220","851081.630943","857970.296852","858736.993859","859504.678352","860271.920116","861022.159722","861789.742808","847946.223062","851832.388099","852599.283592","853366.902233","854134.041661","854900.846877","855668.609282","856435.745309","857203.000675","861031.420893","Mapping"
"Mixed","Female","tile","35","M_jaw.wav","space","586.729766103","220","851081.630943","857970.296852","858736.993859","859504.678352","860271.920116","861022.159722","861789.742808","862556.985499","851832.388099","852599.283592","853366.902233","854134.041661","854900.846877","855668.609282","856435.745309","857203.000675","861799.307275","Mapping"
"Mixed","Female","cave","23","F_knife.wav","None","731.061824001","220","865692.625566","857970.296852","858736.993859","859504.678352","860271.920116","861022.159722","861789.742808","862556.985499","851832.388099","852599.283592","853366.902233","854134.041661","854900.846877","855668.609282","856435.745309","857203.000675","862566.460616","Mapping"
"Mixed","Female","cave","23","M_knife.wav","None","720.514198299","220","865692.625566","857970.296852","858736.993859","859504.678352","860271.920116","861022.159722","861789.742808","862556.985499","866443.237103","852599.283592","853366.902233","854134.041661","854900.846877","855668.609282","856435.745309","857203.000675","865701.977633","Mapping"
"Mixed","Female","cave","23","M_cling.wav","None","736.036669972","220","865692.625566","857970.296852","858736.993859","859504.678352","860271.920116","861022.159722","861789.742808","862556.985499","866443.237103","867210.154548","853366.902233","854134.041661","854900.846877","855668.609282","856435.745309","857203.000675","866452.644203","Mapping"
"Mixed","Female","cave","23","F_greet.wav","None","735.634440483","220","865692.625566","857970.296852","858736.993859","859504.678352","860271.920116","861022.159722","861789.742808","862556.985499","866443.237103","867210.154548","867977.559552","854134.041661","854900.846877","855668.609282","856435.745309","857203.000675","867219.171475","Mapping"
"Mixed","Female","cave","23","M_romp.wav","None","733.71511641","220","865692.625566","857970.296852","858736.993859","859504.678352","860271.920116","861022.159722","861789.742808","862556.985499","866443.237103","867210.154548","867977.559552","868744.889738","854900.846877","855668.609282","856435.745309","857203.000675","867986.857515","Mapping"
"Mixed","Female","cave","23","M_done.wav","None","731.940174475","220","865692.625566","857970.296852","858736.993859","859504.678352","860271.920116","861022.159722","861789.742808","862556.985499","866443.237103","867210.154548","867977.559552","868744.889738","869511.478226","855668.609282","856435.745309","857203.000675","868754.383714","Mapping"
"Mixed","Female","cave","23","F_cave.wav","None","732.170814896","220","865692.625566","857970.296852","858736.993859","859504.678352","860271.920116","861022.159722","861789.742808","862556.985499","866443.237103","867210.154548","867977.559552","868744.889738","869511.478226","870278.803774","856435.745309","857203.000675","869520.659322","Mapping"
"Mixed","Female","cave","23","M_priest.wav","space","593.915482968","220","865692.625566","857970.296852","858736.993859","859504.678352","860271.920116","861022.159722","861789.742808","862556.985499","866443.237103","867210.154548","867977.559552","868744.889738","869511.478226","870278.803774","871045.881986","857203.000675","870287.898612","Mapping"
"Mixed","Female","cave","23","F_cave.wav","None","728.390290606","220","865692.625566","857970.296852","858736.993859","859504.678352","860271.920116","861022.159722","861789.742808","862556.985499","866443.237103","867210.154548","867977.559552","868744.889738","869511.478226","870278.803774","871045.881986","871813.803613","871054.903551","Mapping"
"Mixed","Female","cave","23","F_cad.wav","space","546.347904703","220","865692.625566","872580.714565","858736.993859","859504.678352","860271.920116","861022.159722","861789.742808","862556.985499","866443.237103","867210.154548","867977.559552","868744.889738","869511.478226","870278.803774","871045.881986","871813.803613","871823.447227","Mapping"
"Mixed","Female","cave","23","F_cave.wav","None","722.741455174","220","865692.625566","872580.714565","873347.793396","859504.678352","860271.920116","861022.159722","861789.742808","862556.985499","866443.237103","867210.154548","867977.559552","868744.889738","869511.478226","870278.803774","871045.881986","871813.803613","872590.883458","Mapping"
"Mixed","Female","cave","23","M_jaw.wav","space","565.140461869","220","865692.625566","872580.714565","873347.793396","874098.258387","860271.920116","861022.159722","861789.742808","862556.985499","866443.237103","867210.154548","867977.559552","868744.889738","869511.478226","870278.803774","871045.881986","871813.803613","873356.600397","Mapping"
"Mixed","Female","cave","23","F_cad.wav","None","737.222644064","220","865692.625566","872580.714565","873347.793396","874098.258387","874865.453774","861022.159722","861789.742808","862556.985499","866443.237103","867210.154548","867977.559552","868744.889738","869511.478226","870278.803774","871045.881986","871813.803613","874107.083011","Mapping"
"Mixed","Female","cave","23","M_cad.wav","None","735.834782317","220","865692.625566","872580.714565","873347.793396","874098.258387","874865.453774","875633.038097","861789.742808","862556.985499","866443.237103","867210.154548","867977.559552","868744.889738","869511.478226","870278.803774","871045.881986","871813.803613","874874.615393","Mapping"
"Mixed","Female","cave","23","F_cave.wav","None","734.593466885","220","865692.625566","872580.714565","873347.793396","874098.258387","874865.453774","875633.038097","876399.991405","862556.985499","866443.237103","867210.154548","867977.559552","868744.889738","869511.478226","870278.803774","871045.881986","871813.803613","875642.117477","Mapping"
