"Condition","Talker","Target","Trial","current_stimulus","response_response","response_time_response","subject_nr","time_Audio1","time_Audio10","time_Audio11","time_Audio12","time_Audio13","time_Audio14","time_Audio15","time_Audio16","time_Audio2","time_Audio3","time_Audio4","time_Audio5","time_Audio6","time_Audio7","time_Audio8","time_Audio9","time_response"
"Mixed","Female","done","44","M_tile.wav","NA","NA","216","23888.2927414","NA","NA","NA","NA","NA","NA","NA","NA","NA","NA","NA","NA","NA","NA","NA","NA"
"Mixed","Female","done","44","F_gnash.wav","None","716.593929399","216","23888.2927414","NA","NA","NA","NA","NA","NA","NA","24638.0525168","NA","NA","NA","NA","NA","NA","NA","23902.5392707"
"Mixed","Female","done","44","F_done.wav","None","736.176723738","216","23888.2927414","NA","NA","NA","NA","NA","NA","NA","24638.0525168","25404.5185737","NA","NA","NA","NA","NA","NA","24647.5808107"
"Mixed","Female","done","44","M_tile.wav","None","733.954104413","216","23888.2927414","NA","NA","NA","NA","NA","NA","NA","24638.0525168","25404.5185737","26171.5538116","NA","NA","NA","NA","NA","25414.4410587"
"Mixed","Female","done","44","M_dime.wav","space","0.0343178107869","216","23888.2927414","NA","NA","NA","NA","NA","NA","NA","24638.0525168","25404.5185737","26171.5538116","26937.8640471","NA","NA","NA","NA","26181.9783878"
"Mixed","Female","done","44","M_tile.wav","None","729.830401993","216","23888.2927414","NA","NA","NA","NA","NA","NA","NA","24638.0525168","25404.5185737","26171.5538116","26937.8640471","27704.8043699","NA","NA","NA","26947.8489843"
"Mixed","Female","done","44","F_done.wav","None","727.902421168","216","23888.2927414","NA","NA","NA","NA","NA","NA","NA","24638.0525168","25404.5185737","26171.5538116","26937.8640471","27704.8043699","28471.1059487","NA","NA","27714.2757767"
"Mixed","Female","done","44","F_jolt.wav","space","517.849590287","216","23888.2927414","NA","NA","NA","NA","NA","NA","NA","24638.0525168","25404.5185737","26171.5538116","26937.8640471","27704.8043699","28471.1059487","29238.4441727","NA","28480.8290194"
"Mixed","Female","done","44","F_cave.wav","None","723.0014667","216","23888.2927414","NA","NA","NA","NA","NA","NA","NA","24638.0525168","25404.5185737","26171.5538116","26937.8640471","27704.8043699","28471.1059487","29238.4441727","30004.3265176","29248.5676178"
"Mixed","Female","done","44","M_dime.wav","None","724.441578102","216","23888.2927414","30772.0799562","NA","NA","NA","NA","NA","NA","24638.0525168","25404.5185737","26171.5538116","26937.8640471","27704.8043699","28471.1059487","29238.4441727","30004.3265176","30013.5484246"
"Mixed","Female","done","44","F_done.wav","None","720.394240539","216","23888.2927414","30772.0799562","31538.5277721","NA","NA","NA","NA","NA","24638.0525168","25404.5185737","26171.5538116","26937.8640471","27704.8043699","28471.1059487","29238.4441727","30004.3265176","30782.1050855"
"Mixed","Female","done","44","M_lash.wav","space","457.626468866","216","23888.2927414","30772.0799562","31538.5277721","32287.7162022","NA","NA","NA","NA","24638.0525168","25404.5185737","26171.5538116","26937.8640471","27704.8043699","28471.1059487","29238.4441727","30004.3265176","31548.9848111"
"Mixed","Female","done","44","M_cling.wav","None","734.371483202","216","23888.2927414","30772.0799562","31538.5277721","32287.7162022","33054.7737003","NA","NA","NA","24638.0525168","25404.5185737","26171.5538116","26937.8640471","27704.8043699","28471.1059487","29238.4441727","30004.3265176","32297.7775043"
"Mixed","Female","done","44","M_jaw.wav","None","732.877576309","216","23888.2927414","30772.0799562","31538.5277721","32287.7162022","33054.7737003","33821.2651091","NA","NA","24638.0525168","25404.5185737","26171.5538116","26937.8640471","27704.8043699","28471.1059487","29238.4441727","30004.3265176","33064.2237744"
"Mixed","Female","done","44","F_done.wav","None","730.982367451","216","23888.2927414","30772.0799562","31538.5277721","32287.7162022","33054.7737003","33821.2651091","34588.077745","NA","24638.0525168","25404.5185737","26171.5538116","26937.8640471","27704.8043699","28471.1059487","29238.4441727","30004.3265176","33830.662006"
"Mixed","Female","done","44","F_park.wav","space","368.606684497","216","23888.2927414","30772.0799562","31538.5277721","32287.7162022","33054.7737003","33821.2651091","34588.077745","35354.7784615","24638.0525168","25404.5185737","26171.5538116","26937.8640471","27704.8043699","28471.1059487","29238.4441727","30004.3265176","34597.9093342"
"Mixed","Male","tile","28","F_bluff.wav","None","725.88694538","216","38521.5682807","30772.0799562","31538.5277721","32287.7162022","33054.7737003","33821.2651091","34588.077745","35354.7784615","24638.0525168","25404.5185737","26171.5538116","26937.8640471","27704.8043699","28471.1059487","29238.4441727","30004.3265176","35364.451756"
"Mixed","Male","tile","28","F_reek.wav","None","727.598507583","216","38521.5682807","30772.0799562","31538.5277721","32287.7162022","33054.7737003","33821.2651091","34588.077745","35354.7784615","39288.6093928","25404.5185737","26171.5538116","26937.8640471","27704.8043699","28471.1059487","29238.4441727","30004.3265176","38525.8403845"
"Mixed","Male","tile","28","M_done.wav","None","719.510325027","216","38521.5682807","30772.0799562","31538.5277721","32287.7162022","33054.7737003","33821.2651091","34588.077745","35354.7784615","39288.6093928","40037.710328","26171.5538116","26937.8640471","27704.8043699","28471.1059487","29238.4441727","30004.3265176","39298.5900017"
"Mixed","Male","tile","28","M_tile.wav","None","735.001879744","216","38521.5682807","30772.0799562","31538.5277721","32287.7162022","33054.7737003","33821.2651091","34588.077745","35354.7784615","39288.6093928","40037.710328","40805.1694372","26937.8640471","27704.8043699","28471.1059487","29238.4441727","30004.3265176","40047.9243598"
"Mixed","Male","tile","28","M_bluff.wav","space","543.933600289","216","38521.5682807","30772.0799562","31538.5277721","32287.7162022","33054.7737003","33821.2651091","34588.077745","35354.7784615","39288.6093928","40037.710328","40805.1694372","41570.8223784","27704.8043699","28471.1059487","29238.4441727","30004.3265176","40814.3860884"
"Mixed","Male","tile","28","M_tile.wav","None","732.841094308","216","38521.5682807","30772.0799562","31538.5277721","32287.7162022","33054.7737003","33821.2651091","34588.077745","35354.7784615","39288.6093928","40037.710328","40805.1694372","41570.8223784","42337.7994925","28471.1059487","29238.4441727","30004.3265176","41579.5505418"
"Mixed","Male","tile","28","F_gnash.wav","space","547.320551857","216","38521.5682807","30772.0799562","31538.5277721","32287.7162022","33054.7737003","33821.2651091","34588.077745","35354.7784615","39288.6093928","40037.710328","40805.1694372","41570.8223784","42337.7994925","43104.4730021","29238.4441727","30004.3265176","42346.9388512"
"Mixed","Male","tile","28","M_tile.wav","None","727.818017906","216","38521.5682807","30772.0799562","31538.5277721","32287.7162022","33054.7737003","33821.2651091","34588.077745","35354.7784615","39288.6093928","40037.710328","40805.1694372","41570.8223784","42337.7994925","43104.4730021","43871.1254882","30004.3265176","43114.637876"
"Mixed","Male","tile","28","F_jaw.wav","space","381.483592995","216","38521.5682807","30772.0799562","31538.5277721","32287.7162022","33054.7737003","33821.2651091","34588.077745","35354.7784615","39288.6093928","40037.710328","40805.1694372","41570.8223784","42337.7994925","43104.4730021","43871.1254882","44637.7996161","43880.7292195"
"Mixed","Male","tile","28","M_tile.wav","None","724.706845511","216","38521.5682807","45404.9152381","31538.5277721","32287.7162022","33054.7737003","33821.2651091","34588.077745","35354.7784615","39288.6093928","40037.710328","40805.1694372","41570.8223784","42337.7994925","43104.4730021","43871.1254882","44637.7996161","44647.2997757"
"Mixed","Male","tile","28","F_bluff.wav","space","311.529053273","216","38521.5682807","45404.9152381","46171.3095677","32287.7162022","33054.7737003","33821.2651091","34588.077745","35354.7784615","39288.6093928","40037.710328","40805.1694372","41570.8223784","42337.7994925","43104.4730021","43871.1254882","44637.7996161","45414.6491298"
"Mixed","Male","tile","28","F_knife.wav","None","720.029729731","216","38521.5682807","45404.9152381","46171.3095677","46938.2907009","33054.7737003","33821.2651091","34588.077745","35354.7784615","39288.6093928","40037.710328","40805.1694372","41570.8223784","42337.7994925","43104.4730021","43871.1254882","44637.7996161","46181.5480239"
"Mixed","Male","tile","28","F_jaw.wav","None","718.349084484","216","38521.5682807","45404.9152381","46171.3095677","46938.2907009","47687.6074364","33821.2651091","34588.077745","35354.7784615","39288.6093928","40037.710328","40805.1694372","41570.8223784","42337.7994925","43104.4730021","43871.1254882","44637.7996161","46948.0901365"
"Mixed","Male","tile","28","M_park.wav","None","734.607997845","216","38521.5682807","45404.9152381","46171.3095677","46938.2907009","47687.6074364","48454.550851","34588.077745","35354.7784615","39288.6093928","40037.710328","40805.1694372","41570.8223784","42337.7994925","43104.4730021","43871.1254882","44637.7996161","47696.6843429"
"Mixed","Male","tile","28","M_reek.wav","None","732.546146632","216","38521.5682807","45404.9152381","46171.3095677","46938.2907009","47687.6074364","48454.550851","49220.8122377","35354.7784615","39288.6093928","40037.710328","40805.1694372","41570.8223784","42337.7994925","43104.4730021","43871.1254882","44637.7996161","48463.6945381"
"Mixed","Male","tile","28","F_cad.wav","None","730.512429851","216","38521.5682807","45404.9152381","46171.3095677","46938.2907009","47687.6074364","48454.550851","49220.8122377","49987.6267286","39288.6093928","40037.710328","40805.1694372","41570.8223784","42337.7994925","43104.4730021","43871.1254882","44637.7996161","49230.5761188"
"Mixed","Female","cave","19","F_depth.wav","None","728.560333802","216","53121.1128122","45404.9152381","46171.3095677","46938.2907009","47687.6074364","48454.550851","49220.8122377","49987.6267286","39288.6093928","40037.710328","40805.1694372","41570.8223784","42337.7994925","43104.4730021","43871.1254882","44637.7996161","49997.332795"
"Mixed","Female","cave","19","M_priest.wav","None","720.976715827","216","53121.1128122","45404.9152381","46171.3095677","46938.2907009","47687.6074364","48454.550851","49220.8122377","49987.6267286","53887.2548595","40037.710328","40805.1694372","41570.8223784","42337.7994925","43104.4730021","43871.1254882","44637.7996161","53131.1623659"
"Mixed","Female","cave","19","M_gnash.wav","None","720.555317843","216","53121.1128122","45404.9152381","46171.3095677","46938.2907009","47687.6074364","48454.550851","49220.8122377","49987.6267286","53887.2548595","54637.4660223","40805.1694372","41570.8223784","42337.7994925","43104.4730021","43871.1254882","44637.7996161","53896.4158601"
"Mixed","Female","cave","19","F_cave.wav","None","734.338092894","216","53121.1128122","45404.9152381","46171.3095677","46938.2907009","47687.6074364","48454.550851","49220.8122377","49987.6267286","53887.2548595","54637.4660223","55404.0399793","41570.8223784","42337.7994925","43104.4730021","43871.1254882","44637.7996161","54647.4543604"
"Mixed","Female","cave","19","M_cling.wav","space","368.136746896","216","53121.1128122","45404.9152381","46171.3095677","46938.2907009","47687.6074364","48454.550851","49220.8122377","49987.6267286","53887.2548595","54637.4660223","55404.0399793","56170.8025297","42337.7994925","43104.4730021","43871.1254882","44637.7996161","55413.7509924"
"Mixed","Female","cave","19","F_ball.wav","None","731.034617093","216","53121.1128122","45404.9152381","46171.3095677","46938.2907009","47687.6074364","48454.550851","49220.8122377","49987.6267286","53887.2548595","54637.4660223","55404.0399793","56170.8025297","56937.5109755","43104.4730021","43871.1254882","44637.7996161","56180.0244368"
"Mixed","Female","cave","19","F_cave.wav","None","728.481804756","216","53121.1128122","45404.9152381","46171.3095677","46938.2907009","47687.6074364","48454.550851","49220.8122377","49987.6267286","53887.2548595","54637.4660223","55404.0399793","56170.8025297","56937.5109755","57704.2497199","43871.1254882","44637.7996161","56947.412437"
"Mixed","Female","cave","19","M_jolt.wav","space","483.984403014","216","53121.1128122","45404.9152381","46171.3095677","46938.2907009","47687.6074364","48454.550851","49220.8122377","49987.6267286","53887.2548595","54637.4660223","55404.0399793","56170.8025297","56937.5109755","57704.2497199","58470.2378008","44637.7996161","57713.8515962"
"Mixed","Female","cave","19","M_ball.wav","None","726.280208946","216","53121.1128122","45404.9152381","46171.3095677","46938.2907009","47687.6074364","48454.550851","49220.8122377","49987.6267286","53887.2548595","54637.4660223","55404.0399793","56170.8025297","56937.5109755","57704.2497199","58470.2378008","59237.7828591","58479.3601552"
"Mixed","Female","cave","19","F_priest.wav","None","722.53214744","216","53121.1128122","60004.0192031","46171.3095677","46938.2907009","47687.6074364","48454.550851","49220.8122377","49987.6267286","53887.2548595","54637.4660223","55404.0399793","56170.8025297","56937.5109755","57704.2497199","58470.2378008","59237.7828591","59247.9903984"
"Mixed","Female","cave","19","M_jolt.wav","None","721.917518531","216","53121.1128122","60004.0192031","60771.1264775","46938.2907009","47687.6074364","48454.550851","49220.8122377","49987.6267286","53887.2548595","54637.4660223","55404.0399793","56170.8025297","56937.5109755","57704.2497199","58470.2378008","59237.7828591","60013.5391495"
"Mixed","Female","cave","19","F_cave.wav","None","719.505687484","216","53121.1128122","60004.0192031","60771.1264775","61520.8788328","47687.6074364","48454.550851","49220.8122377","49987.6267286","53887.2548595","54637.4660223","55404.0399793","56170.8025297","56937.5109755","57704.2497199","58470.2378008","59237.7828591","60780.9296231"
"Mixed","Female","cave","19","M_romp.wav","space","507.700174865","216","53121.1128122","60004.0192031","60771.1264775","61520.8788328","62287.2611047","48454.550851","49220.8122377","49987.6267286","53887.2548595","54637.4660223","55404.0399793","56170.8025297","56937.5109755","57704.2497199","58470.2378008","59237.7828591","61529.9974772"
"Mixed","Female","cave","19","F_cave.wav","None","733.836310836","216","53121.1128122","60004.0192031","60771.1264775","61520.8788328","62287.2611047","63053.9420344","49220.8122377","49987.6267286","53887.2548595","54637.4660223","55404.0399793","56170.8025297","56937.5109755","57704.2497199","58470.2378008","59237.7828591","62296.3596531"
"Mixed","Female","cave","19","F_done.wav","space","581.705143835","216","53121.1128122","60004.0192031","60771.1264775","61520.8788328","62287.2611047","63053.9420344","63820.6844888","49987.6267286","53887.2548595","54637.4660223","55404.0399793","56170.8025297","56937.5109755","57704.2497199","58470.2378008","59237.7828591","63063.9461402"
"Mixed","Female","cave","19","M_gnash.wav","None","734.566569139","216","53121.1128122","60004.0192031","60771.1264775","61520.8788328","62287.2611047","63053.9420344","63820.6844888","64587.1830085","53887.2548595","54637.4660223","55404.0399793","56170.8025297","56937.5109755","57704.2497199","58470.2378008","59237.7828591","63824.7942786"
"Mixed","Female","tile","35","M_bluff.wav","None","727.481641516","216","67720.6400303","60004.0192031","60771.1264775","61520.8788328","62287.2611047","63053.9420344","63820.6844888","64587.1830085","53887.2548595","54637.4660223","55404.0399793","56170.8025297","56937.5109755","57704.2497199","58470.2378008","59237.7828591","64596.7412919"
"Mixed","Female","tile","35","M_done.wav","None","720.916118611","216","67720.6400303","60004.0192031","60771.1264775","61520.8788328","62287.2611047","63053.9420344","63820.6844888","64587.1830085","68487.6295111","54637.4660223","55404.0399793","56170.8025297","56937.5109755","57704.2497199","58470.2378008","59237.7828591","67730.7378144"
"Mixed","Female","tile","35","F_romp.wav","None","719.075632747","216","67720.6400303","60004.0192031","60771.1264775","61520.8788328","62287.2611047","63053.9420344","63820.6844888","64587.1830085","68487.6295111","69236.8361822","55404.0399793","56170.8025297","56937.5109755","57704.2497199","58470.2378008","59237.7828591","68497.6784464"
"Mixed","Female","tile","35","M_cad.wav","None","735.343821187","216","67720.6400303","60004.0192031","60771.1264775","61520.8788328","62287.2611047","63053.9420344","63820.6844888","64587.1830085","68487.6295111","69236.8361822","70003.5937859","56170.8025297","56937.5109755","57704.2497199","58470.2378008","59237.7828591","69246.4077599"
"Mixed","Female","tile","35","F_tile.wav","None","733.741395816","216","67720.6400303","60004.0192031","60771.1264775","61520.8788328","62287.2611047","63053.9420344","63820.6844888","64587.1830085","68487.6295111","69236.8361822","70003.5937859","70770.2373061","56937.5109755","57704.2497199","58470.2378008","59237.7828591","70013.131355"
"Mixed","Female","tile","35","M_priest.wav","space","609.572134184","216","67720.6400303","60004.0192031","60771.1264775","61520.8788328","62287.2611047","63053.9420344","63820.6844888","64587.1830085","68487.6295111","69236.8361822","70003.5937859","70770.2373061","71536.9881081","57704.2497199","58470.2378008","59237.7828591","70779.84382"
"Mixed","Female","tile","35","F_tile.wav","None","729.014503755","216","67720.6400303","60004.0192031","60771.1264775","61520.8788328","62287.2611047","63053.9420344","63820.6844888","64587.1830085","68487.6295111","69236.8361822","70003.5937859","70770.2373061","71536.9881081","72303.673057","58470.2378008","59237.7828591","71547.5669599"
"Mixed","Female","tile","35","M_jolt.wav","space","452.35914857","216","67720.6400303","60004.0192031","60771.1264775","61520.8788328","62287.2611047","63053.9420344","63820.6844888","64587.1830085","68487.6295111","69236.8361822","70003.5937859","70770.2373061","71536.9881081","72303.673057","73070.3648076","59237.7828591","72313.0112117"
"Mixed","Female","tile","35","F_tile.wav","None","726.259803771","216","67720.6400303","60004.0192031","60771.1264775","61520.8788328","62287.2611047","63053.9420344","63820.6844888","64587.1830085","68487.6295111","69236.8361822","70003.5937859","70770.2373061","71536.9881081","72303.673057","73070.3648076","73836.9177411","73079.8077708"
"Mixed","Female","tile","35","F_park.wav","space","438.911822392","216","67720.6400303","74604.2318499","60771.1264775","61520.8788328","62287.2611047","63053.9420344","63820.6844888","64587.1830085","68487.6295111","69236.8361822","70003.5937859","70770.2373061","71536.9881081","72303.673057","73070.3648076","73836.9177411","73846.3879112"
"Mixed","Female","tile","35","F_tile.wav","None","721.425011565","216","67720.6400303","74604.2318499","75370.513951","61520.8788328","62287.2611047","63053.9420344","63820.6844888","64587.1830085","68487.6295111","69236.8361822","70003.5937859","70770.2373061","71536.9881081","72303.673057","73070.3648076","73836.9177411","74614.3645702"
"Mixed","Female","tile","35","M_cad.wav","space","360.707095315","216","67720.6400303","74604.2318499","75370.513951","76137.2959791","62287.2611047","63053.9420344","63820.6844888","64587.1830085","68487.6295111","69236.8361822","70003.5937859","70770.2373061","71536.9881081","72303.673057","73070.3648076","73836.9177411","75380.5752531"
"Mixed","Female","tile","35","F_gnash.wav","None","717.271010537","216","67720.6400303","74604.2318499","75370.513951","76137.2959791","76886.7101029","63053.9420344","63820.6844888","64587.1830085","68487.6295111","69236.8361822","70003.5937859","70770.2373061","71536.9881081","72303.673057","73070.3648076","73836.9177411","76148.2826254"
"Mixed","Female","tile","35","F_cling.wav","None","734.895525449","216","67720.6400303","74604.2318499","75370.513951","76137.2959791","76886.7101029","77653.4145295","63820.6844888","64587.1830085","68487.6295111","69236.8361822","70003.5937859","70770.2373061","71536.9881081","72303.673057","73070.3648076","73836.9177411","76895.9214982"
"Mixed","Female","tile","35","M_park.wav","None","732.540890749","216","67720.6400303","74604.2318499","75370.513951","76137.2959791","76886.7101029","77653.4145295","78420.1288495","64587.1830085","68487.6295111","69236.8361822","70003.5937859","70770.2373061","71536.9881081","72303.673057","73070.3648076","73836.9177411","77663.4381129"
"Mixed","Female","tile","35","M_jaw.wav","None","731.59328632","216","67720.6400303","74604.2318499","75370.513951","76137.2959791","76886.7101029","77653.4145295","78420.1288495","79186.7479453","68487.6295111","69236.8361822","70003.5937859","70770.2373061","71536.9881081","72303.673057","73070.3648076","73836.9177411","78429.4846269"
"Mixed","Female","ball","7","F_jolt.wav","None","729.897800942","216","82320.522484","74604.2318499","75370.513951","76137.2959791","76886.7101029","77653.4145295","78420.1288495","79186.7479453","68487.6295111","69236.8361822","70003.5937859","70770.2373061","71536.9881081","72303.673057","73070.3648076","73836.9177411","79196.4481374"
"Mixed","Female","ball","7","M_park.wav","None","720.656416255","216","82320.522484","74604.2318499","75370.513951","76137.2959791","76886.7101029","77653.4145295","78420.1288495","79186.7479453","83086.9771017","69236.8361822","70003.5937859","70770.2373061","71536.9881081","72303.673057","73070.3648076","73836.9177411","82330.5562701"
"Mixed","Female","ball","7","F_romp.wav","None","718.675258278","216","82320.522484","74604.2318499","75370.513951","76137.2959791","76886.7101029","77653.4145295","78420.1288495","79186.7479453","83086.9771017","83836.3844238","70003.5937859","70770.2373061","71536.9881081","72303.673057","73070.3648076","73836.9177411","83097.6112948"
"Mixed","Female","ball","7","F_ball.wav","None","735.336710284","216","82320.522484","74604.2318499","75370.513951","76137.2959791","76886.7101029","77653.4145295","78420.1288495","79186.7479453","83086.9771017","83836.3844238","84603.2598211","70770.2373061","71536.9881081","72303.673057","73070.3648076","73836.9177411","83846.1099679"
"Mixed","Female","ball","7","M_jolt.wav","space","416.108100486","216","82320.522484","74604.2318499","75370.513951","76137.2959791","76886.7101029","77653.4145295","78420.1288495","79186.7479453","83086.9771017","83836.3844238","84603.2598211","85369.5144061","71536.9881081","72303.673057","73070.3648076","73836.9177411","84612.8923051"
"Mixed","Female","ball","7","M_bluff.wav","None","732.787607994","216","82320.522484","74604.2318499","75370.513951","76137.2959791","76886.7101029","77653.4145295","78420.1288495","79186.7479453","83086.9771017","83836.3844238","84603.2598211","85369.5144061","86136.5561365","72303.673057","73070.3648076","73836.9177411","85378.4274528"
"Mixed","Female","ball","7","M_priest.wav","None","729.812160993","216","82320.522484","74604.2318499","75370.513951","76137.2959791","76886.7101029","77653.4145295","78420.1288495","79186.7479453","83086.9771017","83836.3844238","84603.2598211","85369.5144061","86136.5561365","86903.3591881","73070.3648076","73836.9177411","86146.4752207"
"Mixed","Female","ball","7","F_done.wav","None","728.90474859","216","82320.522484","74604.2318499","75370.513951","76137.2959791","76886.7101029","77653.4145295","78420.1288495","79186.7479453","83086.9771017","83836.3844238","84603.2598211","85369.5144061","86136.5561365","86903.3591881","87669.9891049","73836.9177411","86912.4803059"
"Mixed","Female","ball","7","M_cave.wav","None","727.374978043","216","82320.522484","74604.2318499","75370.513951","76137.2959791","76886.7101029","77653.4145295","78420.1288495","79186.7479453","83086.9771017","83836.3844238","84603.2598211","85369.5144061","86136.5561365","86903.3591881","87669.9891049","88436.1518665","87679.1259903"
"Mixed","Female","ball","7","F_ball.wav","None","726.33647779","216","82320.522484","89203.5095682","75370.513951","76137.2959791","76886.7101029","77653.4145295","78420.1288495","79186.7479453","83086.9771017","83836.3844238","84603.2598211","85369.5144061","86136.5561365","86903.3591881","87669.9891049","88436.1518665","88445.3722277"
"Mixed","Female","ball","7","M_jaw.wav","space","502.869401869","216","82320.522484","89203.5095682","89970.1738027","76137.2959791","76886.7101029","77653.4145295","78420.1288495","79186.7479453","83086.9771017","83836.3844238","84603.2598211","85369.5144061","86136.5561365","86903.3591881","87669.9891049","88436.1518665","89214.0089634"
"Mixed","Female","ball","7","M_cave.wav","None","720.543878568","216","82320.522484","89203.5095682","89970.1738027","90736.8182504","76886.7101029","77653.4145295","78420.1288495","79186.7479453","83086.9771017","83836.3844238","84603.2598211","85369.5144061","86136.5561365","86903.3591881","87669.9891049","88436.1518665","89980.3971096"
"Mixed","Female","ball","7","F_ball.wav","None","719.221869906","216","82320.522484","89203.5095682","89970.1738027","90736.8182504","91486.0026613","77653.4145295","78420.1288495","79186.7479453","83086.9771017","83836.3844238","84603.2598211","85369.5144061","86136.5561365","86903.3591881","87669.9891049","88436.1518665","90746.6819932"
"Mixed","Female","ball","7","F_priest.wav","space","484.672305094","216","82320.522484","89203.5095682","89970.1738027","90736.8182504","91486.0026613","92252.9788479","78420.1288495","79186.7479453","83086.9771017","83836.3844238","84603.2598211","85369.5144061","86136.5561365","86903.3591881","87669.9891049","88436.1518665","91496.0930254"
"Mixed","Female","ball","7","F_ball.wav","None","732.895817309","216","82320.522484","89203.5095682","89970.1738027","90736.8182504","91486.0026613","92252.9788479","93019.6721443","79186.7479453","83086.9771017","83836.3844238","84603.2598211","85369.5144061","86136.5561365","86903.3591881","87669.9891049","88436.1518665","92262.6305004"
"Mixed","Female","ball","7","M_jaw.wav","space","463.432671546","216","82320.522484","89203.5095682","89970.1738027","90736.8182504","91486.0026613","92252.9788479","93019.6721443","93785.9684672","83086.9771017","83836.3844238","84603.2598211","85369.5144061","86136.5561365","86903.3591881","87669.9891049","88436.1518665","93029.2876241"
"Mixed","Male","tile","26","M_park.wav","None","730.366501855","216","96919.8465777","89203.5095682","89970.1738027","90736.8182504","91486.0026613","92252.9788479","93019.6721443","93785.9684672","83086.9771017","83836.3844238","84603.2598211","85369.5144061","86136.5561365","86903.3591881","87669.9891049","88436.1518665","93795.1102993"
"Mixed","Male","tile","26","M_tile.wav","None","720.740819525","216","96919.8465777","89203.5095682","89970.1738027","90736.8182504","91486.0026613","92252.9788479","93019.6721443","93785.9684672","97686.4217715","83836.3844238","84603.2598211","85369.5144061","86136.5561365","86903.3591881","87669.9891049","88436.1518665","96930.0334027"
"Mixed","Male","tile","26","F_cad.wav","space","491.732808317","216","96919.8465777","89203.5095682","89970.1738027","90736.8182504","91486.0026613","92252.9788479","93019.6721443","93785.9684672","97686.4217715","98436.1311522","84603.2598211","85369.5144061","86136.5561365","86903.3591881","87669.9891049","88436.1518665","97696.8890131"
"Mixed","Male","tile","26","F_dime.wav","None","734.925205725","216","96919.8465777","89203.5095682","89970.1738027","90736.8182504","91486.0026613","92252.9788479","93019.6721443","93785.9684672","97686.4217715","98436.1311522","99202.7635422","85369.5144061","86136.5561365","86903.3591881","87669.9891049","88436.1518665","98445.7982632"
"Mixed","Male","tile","26","M_lash.wav","None","733.015156722","216","96919.8465777","89203.5095682","89970.1738027","90736.8182504","91486.0026613","92252.9788479","93019.6721443","93785.9684672","97686.4217715","98436.1311522","99202.7635422","99969.4596212","86136.5561365","86903.3591881","87669.9891049","88436.1518665","99212.6637671"
"Mixed","Male","tile","26","M_tile.wav","None","731.496825443","216","96919.8465777","89203.5095682","89970.1738027","90736.8182504","91486.0026613","92252.9788479","93019.6721443","93785.9684672","97686.4217715","98436.1311522","99202.7635422","99969.4596212","100736.165903","86903.3591881","87669.9891049","88436.1518665","99979.4776396"
"Mixed","Male","tile","26","F_jaw.wav","space","442.905673626","216","96919.8465777","89203.5095682","89970.1738027","90736.8182504","91486.0026613","92252.9788479","93019.6721443","93785.9684672","97686.4217715","98436.1311522","99202.7635422","99969.4596212","100736.165903","101502.724711","87669.9891049","88436.1518665","100745.616595"
"Mixed","Male","tile","26","M_ball.wav","None","728.562497985","216","96919.8465777","89203.5095682","89970.1738027","90736.8182504","91486.0026613","92252.9788479","93019.6721443","93785.9684672","97686.4217715","98436.1311522","99202.7635422","99969.4596212","100736.165903","101502.724711","102269.388945","88436.1518665","101512.296907"
"Mixed","Male","tile","26","F_greet.wav","None","726.989752889","216","96919.8465777","89203.5095682","89970.1738027","90736.8182504","91486.0026613","92252.9788479","93019.6721443","93785.9684672","97686.4217715","98436.1311522","99202.7635422","99969.4596212","100736.165903","101502.724711","102269.388945","103036.095536","102279.088519"
"Mixed","Male","tile","26","F_cad.wav","None","725.45318061","216","96919.8465777","103802.714632","89970.1738027","90736.8182504","91486.0026613","92252.9788479","93019.6721443","93785.9684672","97686.4217715","98436.1311522","99202.7635422","99969.4596212","100736.165903","101502.724711","102269.388945","103036.095536","103046.016784"
"Mixed","Male","tile","26","F_bluff.wav","None","724.232579538","216","96919.8465777","103802.714632","104569.382267","90736.8182504","91486.0026613","92252.9788479","93019.6721443","93785.9684672","97686.4217715","98436.1311522","99202.7635422","99969.4596212","100736.165903","101502.724711","102269.388945","103036.095536","103812.435538"
"Mixed","Male","tile","26","M_tile.wav","None","722.066538212","216","96919.8465777","103802.714632","104569.382267","105335.961171","91486.0026613","92252.9788479","93019.6721443","93785.9684672","97686.4217715","98436.1311522","99202.7635422","99969.4596212","100736.165903","101502.724711","102269.388945","103036.095536","104580.040266"
"Mixed","Male","tile","26","M_done.wav","space","355.262620913","216","96919.8465777","103802.714632","104569.382267","105335.961171","106102.932101","92252.9788479","93019.6721443","93785.9684672","97686.4217715","98436.1311522","99202.7635422","99969.4596212","100736.165903","101502.724711","102269.388945","103036.095536","105345.121862"
"Mixed","Male","tile","26","F_romp.wav","None","719.550517053","216","96919.8465777","103802.714632","104569.382267","105335.961171","106102.932101","106852.748764","93019.6721443","93785.9684672","97686.4217715","98436.1311522","99202.7635422","99969.4596212","100736.165903","101502.724711","102269.388945","103036.095536","106112.913638"
"Mixed","Male","tile","26","M_tile.wav","None","735.312595069","216","96919.8465777","103802.714632","104569.382267","105335.961171","106102.932101","106852.748764","107619.49431","93785.9684672","97686.4217715","98436.1311522","99202.7635422","99969.4596212","100736.165903","101502.724711","102269.388945","103036.095536","106862.394233"
"Mixed","Male","tile","26","F_gnash.wav","space","559.82181945","216","96919.8465777","103802.714632","104569.382267","105335.961171","106102.932101","106852.748764","107619.49431","108385.937179","97686.4217715","98436.1311522","99202.7635422","99969.4596212","100736.165903","101502.724711","102269.388945","103036.095536","107628.494233"
"Mixed","Male","tile","30","M_gnash.wav","None","731.887306494","216","111519.635662","103802.714632","104569.382267","105335.961171","106102.932101","106852.748764","107619.49431","108385.937179","97686.4217715","98436.1311522","99202.7635422","99969.4596212","100736.165903","101502.724711","102269.388945","103036.095536","108395.514631"
"Mixed","Male","tile","30","M_tile.wav","None","720.778229028","216","111519.635662","103802.714632","104569.382267","105335.961171","106102.932101","106852.748764","107619.49431","108385.937179","112285.73288","98436.1311522","99202.7635422","99969.4596212","100736.165903","101502.724711","102269.388945","103036.095536","111529.704694"
"Mixed","Male","tile","30","F_cave.wav","space","349.307089382","216","111519.635662","103802.714632","104569.382267","105335.961171","106102.932101","106852.748764","107619.49431","108385.937179","112285.73288","113035.452463","99202.7635422","99969.4596212","100736.165903","101502.724711","102269.388945","103036.095536","112294.861418"
"Mixed","Male","tile","30","M_cling.wav","None","735.116581629","216","111519.635662","103802.714632","104569.382267","105335.961171","106102.932101","106852.748764","107619.49431","108385.937179","112285.73288","113035.452463","113801.805364","99969.4596212","100736.165903","101502.724711","102269.388945","103036.095536","113045.380823"
"Mixed","Male","tile","30","F_ball.wav","None","735.356187964","216","111519.635662","103802.714632","104569.382267","105335.961171","106102.932101","106852.748764","107619.49431","108385.937179","112285.73288","113035.452463","113801.805364","114569.189036","100736.165903","101502.724711","102269.388945","103036.095536","113810.787665"
"Mixed","Male","tile","30","F_ball.wav","None","732.306540289","216","111519.635662","103802.714632","104569.382267","105335.961171","106102.932101","106852.748764","107619.49431","108385.937179","112285.73288","113035.452463","113801.805364","114569.189036","115335.8239","101502.724711","102269.388945","103036.095536","114579.248174"
"Mixed","Male","tile","30","F_knife.wav","None","731.265875853","216","111519.635662","103802.714632","104569.382267","105335.961171","106102.932101","106852.748764","107619.49431","108385.937179","112285.73288","113035.452463","113801.805364","114569.189036","115335.8239","116102.357046","102269.388945","103036.095536","115345.194208"
"Mixed","Male","tile","30","M_tile.wav","None","729.858227241","216","111519.635662","103802.714632","104569.382267","105335.961171","106102.932101","106852.748764","107619.49431","108385.937179","112285.73288","113035.452463","113801.805364","114569.189036","115335.8239","116102.357046","116868.93595","103036.095536","116112.045181"
"Mixed","Male","tile","30","F_reek.wav","space","589.561449284","216","111519.635662","103802.714632","104569.382267","105335.961171","106102.932101","106852.748764","107619.49431","108385.937179","112285.73288","113035.452463","113801.805364","114569.189036","115335.8239","116102.357046","116868.93595","117635.634502","116878.481248"
"Mixed","Male","tile","30","M_tile.wav","None","726.066882016","216","111519.635662","118402.210005","104569.382267","105335.961171","106102.932101","106852.748764","107619.49431","108385.937179","112285.73288","113035.452463","113801.805364","114569.189036","115335.8239","116102.357046","116868.93595","117635.634502","117645.480622"
"Mixed","Male","tile","30","M_cave.wav","space","576.151841786","216","111519.635662","118402.210005","119169.10859","105335.961171","106102.932101","106852.748764","107619.49431","108385.937179","112285.73288","113035.452463","113801.805364","114569.189036","115335.8239","116102.357046","116868.93595","117635.634502","118411.829504"
"Mixed","Male","tile","30","F_dime.wav","None","721.687805613","216","111519.635662","118402.210005","119169.10859","119935.96822","106102.932101","106852.748764","107619.49431","108385.937179","112285.73288","113035.452463","113801.805364","114569.189036","115335.8239","116102.357046","116868.93595","117635.634502","119179.45742"
"Mixed","Male","tile","30","F_dime.wav","None","720.454528593","216","111519.635662","118402.210005","119169.10859","119935.96822","120702.587625","106852.748764","107619.49431","108385.937179","112285.73288","113035.452463","113801.805364","114569.189036","115335.8239","116102.357046","116868.93595","117635.634502","119945.998296"
"Mixed","Male","tile","30","M_cad.wav","None","718.833553052","216","111519.635662","118402.210005","119169.10859","119935.96822","120702.587625","121452.397486","107619.49431","108385.937179","112285.73288","113035.452463","113801.805364","114569.189036","115335.8239","116102.357046","116868.93595","117635.634502","120713.035698"
"Mixed","Male","tile","30","M_tile.wav","None","735.454813024","216","111519.635662","118402.210005","119169.10859","119935.96822","120702.587625","121452.397486","122218.844065","108385.937179","112285.73288","113035.452463","113801.805364","114569.189036","115335.8239","116102.357046","116868.93595","117635.634502","121461.92207"
"Mixed","Male","tile","30","F_cad.wav","space","431.300997501","216","111519.635662","118402.210005","119169.10859","119935.96822","120702.587625","121452.397486","122218.844065","122985.417713","112285.73288","113035.452463","113801.805364","114569.189036","115335.8239","116102.357046","116868.93595","117635.634502","122228.576101"
"Mixed","Female","tile","32","M_depth.wav","None","732.91374914","216","126119.281911","118402.210005","119169.10859","119935.96822","120702.587625","121452.397486","122218.844065","122985.417713","112285.73288","113035.452463","113801.805364","114569.189036","115335.8239","116102.357046","116868.93595","117635.634502","122994.630654"
"Mixed","Female","tile","32","F_tile.wav","None","719.559482968","216","126119.281911","118402.210005","119169.10859","119935.96822","120702.587625","121452.397486","122218.844065","122985.417713","126885.688916","113035.452463","113801.805364","114569.189036","115335.8239","116102.357046","116868.93595","117635.634502","126129.313532"
"Mixed","Female","tile","32","M_ball.wav","space","395.771241798","216","126119.281911","118402.210005","119169.10859","119935.96822","120702.587625","121452.397486","122218.844065","122985.417713","126885.688916","127634.981227","113801.805364","114569.189036","115335.8239","116102.357046","116868.93595","117635.634502","126895.982095"
"Mixed","Female","tile","32","M_jaw.wav","None","735.043308465","216","126119.281911","118402.210005","119169.10859","119935.96822","120702.587625","121452.397486","122218.844065","122985.417713","126885.688916","127634.981227","128401.399981","114569.189036","115335.8239","116102.357046","116868.93595","117635.634502","127644.657304"
"Mixed","Female","tile","32","F_tile.wav","None","734.609234518","216","126119.281911","118402.210005","119169.10859","119935.96822","120702.587625","121452.397486","122218.844065","122985.417713","126885.688916","127634.981227","128401.399981","129168.440166","115335.8239","116102.357046","116868.93595","117635.634502","128410.524191"
"Mixed","Female","tile","32","M_jaw.wav","space","433.030800697","216","126119.281911","118402.210005","119169.10859","119935.96822","120702.587625","121452.397486","122218.844065","122985.417713","126885.688916","127634.981227","128401.399981","129168.440166","129935.232397","116102.357046","116868.93595","117635.634502","129178.603494"
"Mixed","Female","tile","32","F_reek.wav","None","730.185019376","216","126119.281911","118402.210005","119169.10859","119935.96822","120702.587625","121452.397486","122218.844065","122985.417713","126885.688916","127634.981227","128401.399981","129168.440166","129935.232397","130701.867878","116868.93595","117635.634502","129944.794081"
"Mixed","Female","tile","32","F_tile.wav","None","668.119866241","216","126119.281911","118402.210005","119169.10859","119935.96822","120702.587625","121452.397486","122218.844065","122985.417713","126885.688916","127634.981227","128401.399981","129168.440166","129935.232397","130701.867878","131468.507379","117635.634502","130772.57741"
"Mixed","Female","tile","32","M_lash.wav","space","589.209305261","216","126119.281911","118402.210005","119169.10859","119935.96822","120702.587625","121452.397486","122218.844065","122985.417713","126885.688916","127634.981227","128401.399981","129168.440166","129935.232397","130701.867878","131468.507379","132235.27364","131486.378921"
"Mixed","Female","tile","32","F_cling.wav","None","726.075538762","216","126119.281911","133001.747735","119169.10859","119935.96822","120702.587625","121452.397486","122218.844065","122985.417713","126885.688916","127634.981227","128401.399981","129168.440166","129935.232397","130701.867878","131468.507379","132235.27364","132244.803789"
"Mixed","Female","tile","32","M_gnash.wav","None","725.224086033","216","126119.281911","133001.747735","133768.026744","119935.96822","120702.587625","121452.397486","122218.844065","122985.417713","126885.688916","127634.981227","128401.399981","129168.440166","129935.232397","130701.867878","131468.507379","132235.27364","133011.091764"
"Mixed","Female","tile","32","F_lash.wav","None","725.394438414","216","126119.281911","133001.747735","133768.026744","134535.475651","120702.587625","121452.397486","122218.844065","122985.417713","126885.688916","127634.981227","128401.399981","129168.440166","129935.232397","130701.867878","131468.507379","132235.27364","133776.655664"
"Mixed","Female","tile","32","F_bluff.wav","None","722.694461416","216","126119.281911","133001.747735","133768.026744","134535.475651","135302.10464","121452.397486","122218.844065","122985.417713","126885.688916","127634.981227","128401.399981","129168.440166","129935.232397","130701.867878","131468.507379","132235.27364","134544.975501"
"Mixed","Female","tile","32","M_park.wav","None","721.595982279","216","126119.281911","133001.747735","133768.026744","134535.475651","135302.10464","136068.6517","122218.844065","122985.417713","126885.688916","127634.981227","128401.399981","129168.440166","129935.232397","130701.867878","131468.507379","132235.27364","135311.747945"
"Mixed","Female","tile","32","F_tile.wav","None","720.192662047","216","126119.281911","133001.747735","133768.026744","134535.475651","135302.10464","136068.6517","136835.46248","122985.417713","126885.688916","127634.981227","128401.399981","129168.440166","129935.232397","130701.867878","131468.507379","132235.27364","136078.595208"
"Mixed","Female","tile","32","M_park.wav","space","550.540861077","216","126119.281911","133001.747735","133768.026744","134535.475651","135302.10464","136068.6517","136835.46248","137584.926071","126885.688916","127634.981227","128401.399981","129168.440166","129935.232397","130701.867878","131468.507379","132235.27364","136844.906062"
"Mixed","Female","cave","21","F_cad.wav","None","734.965706921","216","140718.54077","133001.747735","133768.026744","134535.475651","135302.10464","136068.6517","136835.46248","137584.926071","126885.688916","127634.981227","128401.399981","129168.440166","129935.232397","130701.867878","131468.507379","132235.27364","137593.967423"
"Mixed","Female","cave","21","F_cave.wav","None","721.014743671","216","140718.54077","133001.747735","133768.026744","134535.475651","135302.10464","136068.6517","136835.46248","137584.926071","141484.752071","127634.981227","128401.399981","129168.440166","129935.232397","130701.867878","131468.507379","132235.27364","140728.524779"
"Mixed","Female","cave","21","F_done.wav","space","589.72190824","216","140718.54077","133001.747735","133768.026744","134535.475651","135302.10464","136068.6517","136835.46248","137584.926071","141484.752071","142234.810195","128401.399981","129168.440166","129935.232397","130701.867878","131468.507379","132235.27364","141493.587825"
"Mixed","Female","cave","21","F_cave.wav","None","735.086901353","216","140718.54077","133001.747735","133768.026744","134535.475651","135302.10464","136068.6517","136835.46248","137584.926071","141484.752071","142234.810195","143001.431455","129168.440166","129935.232397","130701.867878","131468.507379","132235.27364","142244.077859"
"Mixed","Female","cave","21","M_reek.wav","space","616.474651812","216","140718.54077","133001.747735","133768.026744","134535.475651","135302.10464","136068.6517","136835.46248","137584.926071","141484.752071","142234.810195","143001.431455","143768.117022","129935.232397","130701.867878","131468.507379","132235.27364","143010.759098"
"Mixed","Female","cave","21","F_cling.wav","None","731.59483217","216","140718.54077","133001.747735","133768.026744","134535.475651","135302.10464","136068.6517","136835.46248","137584.926071","141484.752071","142234.810195","143001.431455","143768.117022","144534.748794","130701.867878","131468.507379","132235.27364","143777.380048"
"Mixed","Female","cave","21","F_cave.wav","None","730.615074113","216","140718.54077","133001.747735","133768.026744","134535.475651","135302.10464","136068.6517","136835.46248","137584.926071","141484.752071","142234.810195","143001.431455","143768.117022","144534.748794","145301.672731","131468.507379","132235.27364","144543.681009"
"Mixed","Female","cave","21","M_bluff.wav","space","396.785008495","216","140718.54077","133001.747735","133768.026744","134535.475651","135302.10464","136068.6517","136835.46248","137584.926071","141484.752071","142234.810195","143001.431455","143768.117022","144534.748794","145301.672731","146068.022849","132235.27364","145310.407077"
"Mixed","Female","cave","21","F_gnash.wav","None","726.801777848","216","140718.54077","133001.747735","133768.026744","134535.475651","135302.10464","136068.6517","136835.46248","137584.926071","141484.752071","142234.810195","143001.431455","143768.117022","144534.748794","145301.672731","146068.022849","146834.746135","146077.46674"
"Mixed","Female","cave","21","M_reek.wav","None","725.310962654","216","140718.54077","147601.901021","133768.026744","134535.475651","135302.10464","136068.6517","136835.46248","137584.926071","141484.752071","142234.810195","143001.431455","143768.117022","144534.748794","145301.672731","146068.022849","146834.746135","146844.371817"
"Mixed","Female","cave","21","M_ball.wav","None","723.033001981","216","140718.54077","147601.901021","148368.305863","134535.475651","135302.10464","136068.6517","136835.46248","137584.926071","141484.752071","142234.810195","143001.431455","143768.117022","144534.748794","145301.672731","146068.022849","146834.746135","147611.559166"
"Mixed","Female","cave","21","M_jolt.wav","None","722.136719691","216","140718.54077","147601.901021","148368.305863","149134.474808","135302.10464","136068.6517","136835.46248","137584.926071","141484.752071","142234.810195","143001.431455","143768.117022","144534.748794","145301.672731","146068.022849","146834.746135","148377.950095"
"Mixed","Female","cave","21","F_cave.wav","None","722.182785939","216","140718.54077","147601.901021","148368.305863","149134.474808","149900.952304","136068.6517","136835.46248","137584.926071","141484.752071","142234.810195","143001.431455","143768.117022","144534.748794","145301.672731","146068.022849","146834.746135","149143.348281"
"Mixed","Female","cave","21","M_romp.wav","space","397.119220695","216","140718.54077","147601.901021","148368.305863","149134.474808","149900.952304","150651.219426","136835.46248","137584.926071","141484.752071","142234.810195","143001.431455","143768.117022","144534.748794","145301.672731","146068.022849","146834.746135","149909.891939"
"Mixed","Female","cave","21","M_knife.wav","None","734.384159143","216","140718.54077","147601.901021","148368.305863","149134.474808","149900.952304","150651.219426","151417.680846","137584.926071","141484.752071","142234.810195","143001.431455","143768.117022","144534.748794","145301.672731","146068.022849","146834.746135","150660.754831"
"Mixed","Female","cave","21","M_cad.wav","None","734.300065043","216","140718.54077","147601.901021","148368.305863","149134.474808","149900.952304","150651.219426","151417.680846","152184.204099","141484.752071","142234.810195","143001.431455","143768.117022","144534.748794","145301.672731","146068.022849","146834.746135","151426.495576"
"Mixed","Male","ball","1","F_jaw.wav","None","732.377649278","216","155318.265547","147601.901021","148368.305863","149134.474808","149900.952304","150651.219426","151417.680846","152184.204099","141484.752071","142234.810195","143001.431455","143768.117022","144534.748794","145301.672731","146068.022849","146834.746135","152193.359534"
"Mixed","Male","ball","1","M_ball.wav","None","720.892003395","216","155318.265547","147601.901021","148368.305863","149134.474808","149900.952304","150651.219426","151417.680846","152184.204099","156084.857745","142234.810195","143001.431455","143768.117022","144534.748794","145301.672731","146068.022849","146834.746135","155328.113522"
"Mixed","Male","ball","1","F_dime.wav","space","540.356200334","216","155318.265547","147601.901021","148368.305863","149134.474808","149900.952304","150651.219426","151417.680846","152184.204099","156084.857745","156850.745964","143001.431455","143768.117022","144534.748794","145301.672731","146068.022849","146834.746135","156094.499813"
"Mixed","Male","ball","1","M_depth.wav","None","721.596909796","216","155318.265547","147601.901021","148368.305863","149134.474808","149900.952304","150651.219426","151417.680846","152184.204099","156084.857745","156850.745964","157618.200127","143768.117022","144534.748794","145301.672731","146068.022849","146834.746135","156859.544927"
"Mixed","Male","ball","1","M_ball.wav","None","718.780685071","216","155318.265547","147601.901021","148368.305863","149134.474808","149900.952304","150651.219426","151417.680846","152184.204099","156084.857745","156850.745964","157618.200127","158367.375881","144534.748794","145301.672731","146068.022849","146834.746135","157627.919178"
"Mixed","Male","ball","1","M_depth.wav","space","401.91691256","216","155318.265547","147601.901021","148368.305863","149134.474808","149900.952304","150651.219426","151417.680846","152184.204099","156084.857745","156850.745964","157618.200127","158367.375881","159134.318059","145301.672731","146068.022849","146834.746135","158376.882842"
"Mixed","Male","ball","1","F_jolt.wav","None","733.135114482","216","155318.265547","147601.901021","148368.305863","149134.474808","149900.952304","150651.219426","151417.680846","152184.204099","156084.857745","156850.745964","157618.200127","158367.375881","159134.318059","159900.920769","146068.022849","146834.746135","159143.681256"
"Mixed","Male","ball","1","F_cave.wav","None","732.57489939","216","155318.265547","147601.901021","148368.305863","149134.474808","149900.952304","150651.219426","151417.680846","152184.204099","156084.857745","156850.745964","157618.200127","158367.375881","159134.318059","159900.920769","160667.28078","146834.746135","159909.827941"
"Mixed","Male","ball","1","F_cave.wav","None","731.968927234","216","155318.265547","147601.901021","148368.305863","149134.474808","149900.952304","150651.219426","151417.680846","152184.204099","156084.857745","156850.745964","157618.200127","158367.375881","159134.318059","159900.920769","160667.28078","161434.254803","160676.106641"
"Mixed","Male","ball","1","M_bluff.wav","None","729.961799021","216","155318.265547","162200.468886","148368.305863","149134.474808","149900.952304","150651.219426","151417.680846","152184.204099","156084.857745","156850.745964","157618.200127","158367.375881","159134.318059","159900.920769","160667.28078","161434.254803","161443.673032"
"Mixed","Male","ball","1","M_ball.wav","None","729.747853744","216","155318.265547","162200.468886","162967.507834","149134.474808","149900.952304","150651.219426","151417.680846","152184.204099","156084.857745","156850.745964","157618.200127","158367.375881","159134.318059","159900.920769","160667.28078","161434.254803","162209.500345"
"Mixed","Male","ball","1","F_knife.wav","space","513.580269049","216","155318.265547","162200.468886","162967.507834","163734.159393","149900.952304","150651.219426","151417.680846","152184.204099","156084.857745","156850.745964","157618.200127","158367.375881","159134.318059","159900.920769","160667.28078","161434.254803","162977.067973"
"Mixed","Male","ball","1","F_priest.wav","None","726.189931469","216","155318.265547","162200.468886","162967.507834","163734.159393","164501.117957","150651.219426","151417.680846","152184.204099","156084.857745","156850.745964","157618.200127","158367.375881","159134.318059","159900.920769","160667.28078","161434.254803","163743.538049"
"Mixed","Male","ball","1","M_ball.wav","None","725.158232934","216","155318.265547","162200.468886","162967.507834","163734.159393","164501.117957","165267.705208","151417.680846","152184.204099","156084.857745","156850.745964","157618.200127","158367.375881","159134.318059","159900.920769","160667.28078","161434.254803","164510.263808"
"Mixed","Male","ball","1","M_cling.wav","None","723.092980865","216","155318.265547","162200.468886","162967.507834","163734.159393","164501.117957","165267.705208","166034.554326","152184.204099","156084.857745","156850.745964","157618.200127","158367.375881","159134.318059","159900.920769","160667.28078","161434.254803","165278.005498"
"Mixed","Male","ball","1","F_done.wav","space","270.294811642","216","155318.265547","162200.468886","162967.507834","163734.159393","164501.117957","165267.705208","166034.554326","166801.264936","156084.857745","156850.745964","157618.200127","158367.375881","159134.318059","159900.920769","160667.28078","161434.254803","166044.228857"
"Mixed","Male","done","38","F_priest.wav","None","720.64868702","216","169917.957552","162200.468886","162967.507834","163734.159393","164501.117957","165267.705208","166034.554326","166801.264936","156084.857745","156850.745964","157618.200127","158367.375881","159134.318059","159900.920769","160667.28078","161434.254803","166811.189276"
"Mixed","Male","done","38","M_lash.wav","None","720.899423461","216","169917.957552","162200.468886","162967.507834","163734.159393","164501.117957","165267.705208","166034.554326","166801.264936","170684.474004","156850.745964","157618.200127","158367.375881","159134.318059","159900.920769","160667.28078","161434.254803","169927.683406"
"Mixed","Male","done","38","M_done.wav","None","719.168074422","216","169917.957552","162200.468886","162967.507834","163734.159393","164501.117957","165267.705208","166034.554326","166801.264936","170684.474004","171451.221714","157618.200127","158367.375881","159134.318059","159900.920769","160667.28078","161434.254803","170694.55602"
"Mixed","Male","done","38","F_romp.wav","space","549.100440505","216","169917.957552","162200.468886","162967.507834","163734.159393","164501.117957","165267.705208","166034.554326","166801.264936","170684.474004","171451.221714","172200.552362","158367.375881","159134.318059","159900.920769","160667.28078","161434.254803","171461.315479"
"Mixed","Male","done","38","F_greet.wav","None","733.703677142","216","169917.957552","162200.468886","162967.507834","163734.159393","164501.117957","165267.705208","166034.554326","166801.264936","170684.474004","171451.221714","172200.552362","172967.254315","159134.318059","159900.920769","160667.28078","161434.254803","172210.070144"
"Mixed","Male","done","38","M_done.wav","None","733.109453417","216","169917.957552","162200.468886","162967.507834","163734.159393","164501.117957","165267.705208","166034.554326","166801.264936","170684.474004","171451.221714","172200.552362","172967.254315","173733.870938","159900.920769","160667.28078","161434.254803","172976.178492"
"Mixed","Male","done","38","F_cad.wav","space","554.912208238","216","169917.957552","162200.468886","162967.507834","163734.159393","164501.117957","165267.705208","166034.554326","166801.264936","170684.474004","171451.221714","172200.552362","172967.254315","173733.870938","174500.536718","160667.28078","161434.254803","173743.435714"
"Mixed","Male","done","38","F_depth.wav","None","730.218100514","216","169917.957552","162200.468886","162967.507834","163734.159393","164501.117957","165267.705208","166034.554326","166801.264936","170684.474004","171451.221714","172200.552362","172967.254315","173733.870938","174500.536718","175267.362958","161434.254803","174509.738838"
"Mixed","Male","done","38","F_priest.wav","None","728.679364045","216","169917.957552","162200.468886","162967.507834","163734.159393","164501.117957","165267.705208","166034.554326","166801.264936","170684.474004","171451.221714","172200.552362","172967.254315","173733.870938","174500.536718","175267.362958","176033.843236","175276.420386"
"Mixed","Male","done","38","M_park.wav","None","727.711972773","216","169917.957552","176800.449347","162967.507834","163734.159393","164501.117957","165267.705208","166034.554326","166801.264936","170684.474004","171451.221714","172200.552362","172967.254315","173733.870938","174500.536718","175267.362958","176033.843236","176042.949514"
"Mixed","Male","done","38","M_done.wav","None","725.822638131","216","169917.957552","176800.449347","177566.772877","163734.159393","164501.117957","165267.705208","166034.554326","166801.264936","170684.474004","171451.221714","172200.552362","172967.254315","173733.870938","174500.536718","175267.362958","176033.843236","176810.215083"
"Mixed","Male","done","38","F_tile.wav","space","354.632224364","216","169917.957552","176800.449347","177566.772877","178333.65353","164501.117957","165267.705208","166034.554326","166801.264936","170684.474004","171451.221714","172200.552362","172967.254315","173733.870938","174500.536718","175267.362958","176033.843236","177575.600902"
"Mixed","Male","done","38","M_lash.wav","None","724.089124902","216","169917.957552","176800.449347","177566.772877","178333.65353","179100.313436","165267.705208","166034.554326","166801.264936","170684.474004","171451.221714","172200.552362","172967.254315","173733.870938","174500.536718","175267.362958","176033.843236","178342.483719"
"Mixed","Male","done","38","M_done.wav","None","722.392712007","216","169917.957552","176800.449347","177566.772877","178333.65353","179100.313436","179866.88121","166034.554326","166801.264936","170684.474004","171451.221714","172200.552362","172967.254315","173733.870938","174500.536718","175267.362958","176033.843236","179109.737849"
"Mixed","Male","done","38","M_cling.wav","space","437.905475759","216","169917.957552","176800.449347","177566.772877","178333.65353","179100.313436","179866.88121","180616.426112","166801.264936","170684.474004","171451.221714","172200.552362","172967.254315","173733.870938","174500.536718","175267.362958","176033.843236","179876.245953"
"Mixed","Male","done","38","F_knife.wav","None","736.712823607","216","169917.957552","176800.449347","177566.772877","178333.65353","179100.313436","179866.88121","180616.426112","181383.233183","170684.474004","171451.221714","172200.552362","172967.254315","173733.870938","174500.536718","175267.362958","176033.843236","180625.146546"
"Mixed","Female","cave","22","M_gnash.wav","None","735.607233575","216","184517.401913","176800.449347","177566.772877","178333.65353","179100.313436","179866.88121","180616.426112","181383.233183","170684.474004","171451.221714","172200.552362","172967.254315","173733.870938","174500.536718","175267.362958","176033.843236","181391.977114"
"Mixed","Female","cave","22","F_cave.wav","None","725.832222386","216","184517.401913","176800.449347","177566.772877","178333.65353","179100.313436","179866.88121","180616.426112","181383.233183","185283.30219","171451.221714","172200.552362","172967.254315","173733.870938","174500.536718","175267.362958","176033.843236","184522.306268"
"Mixed","Female","cave","22","M_greet.wav","space","493.52382707","216","184517.401913","176800.449347","177566.772877","178333.65353","179100.313436","179866.88121","180616.426112","181383.233183","185283.30219","186033.046816","172200.552362","172967.254315","173733.870938","174500.536718","175267.362958","176033.843236","185292.464118"
"Mixed","Female","cave","22","F_greet.wav","None","736.105614771","216","184517.401913","176800.449347","177566.772877","178333.65353","179100.313436","179866.88121","180616.426112","181383.233183","185283.30219","186033.046816","186799.684771","172967.254315","173733.870938","174500.536718","175267.362958","176033.843236","186042.065908"
"Mixed","Female","cave","22","F_dime.wav","None","735.004353104","216","184517.401913","176800.449347","177566.772877","178333.65353","179100.313436","179866.88121","180616.426112","181383.233183","185283.30219","186033.046816","186799.684771","187566.506991","173733.870938","174500.536718","175267.362958","176033.843236","186808.853191"
"Mixed","Female","cave","22","M_priest.wav","None","734.159702108","216","184517.401913","176800.449347","177566.772877","178333.65353","179100.313436","179866.88121","180616.426112","181383.233183","185283.30219","186033.046816","186799.684771","187566.506991","188332.909359","174500.536718","175267.362958","176033.843236","187575.458065"
"Mixed","Female","cave","22","F_gnash.wav","None","733.466234982","216","184517.401913","176800.449347","177566.772877","178333.65353","179100.313436","179866.88121","180616.426112","181383.233183","185283.30219","186033.046816","186799.684771","187566.506991","188332.909359","189100.085578","175267.362958","176033.843236","188341.729036"
"Mixed","Female","cave","22","F_cave.wav","None","731.525578209","216","184517.401913","176800.449347","177566.772877","178333.65353","179100.313436","179866.88121","180616.426112","181383.233183","185283.30219","186033.046816","186799.684771","187566.506991","188332.909359","189100.085578","189866.814429","176033.843236","189109.46949"
"Mixed","Female","cave","22","M_jolt.wav","space","453.730315181","216","184517.401913","176800.449347","177566.772877","178333.65353","179100.313436","179866.88121","180616.426112","181383.233183","185283.30219","186033.046816","186799.684771","187566.506991","188332.909359","189100.085578","189866.814429","190632.971007","189876.134652"
"Mixed","Female","cave","22","M_jaw.wav","None","729.094269482","216","184517.401913","191399.98584","177566.772877","178333.65353","179100.313436","179866.88121","180616.426112","181383.233183","185283.30219","186033.046816","186799.684771","187566.506991","188332.909359","189100.085578","189866.814429","190632.971007","190641.965984"
"Mixed","Female","cave","22","F_gnash.wav","None","727.14310095","216","184517.401913","191399.98584","192166.582676","178333.65353","179100.313436","179866.88121","180616.426112","181383.233183","185283.30219","186033.046816","186799.684771","187566.506991","188332.909359","189100.085578","189866.814429","190632.971007","191409.911108"
"Mixed","Female","cave","22","F_cave.wav","None","726.857737529","216","184517.401913","191399.98584","192166.582676","192933.336569","179100.313436","179866.88121","180616.426112","181383.233183","185283.30219","186033.046816","186799.684771","187566.506991","188332.909359","189100.085578","189866.814429","190632.971007","192176.071396"
"Mixed","Female","cave","22","M_cad.wav","space","555.139756972","216","184517.401913","191399.98584","192166.582676","192933.336569","193700.35975","179866.88121","180616.426112","181383.233183","185283.30219","186033.046816","186799.684771","187566.506991","188332.909359","189100.085578","189866.814429","190632.971007","192942.629894"
"Mixed","Female","cave","22","F_cave.wav","None","722.468458531","216","184517.401913","191399.98584","192166.582676","192933.336569","193700.35975","194466.922577","180616.426112","181383.233183","185283.30219","186033.046816","186799.684771","187566.506991","188332.909359","189100.085578","189866.814429","190632.971007","193710.597897"
"Mixed","Female","cave","22","M_park.wav","space","500.733968329","216","184517.401913","191399.98584","192166.582676","192933.336569","193700.35975","194466.922577","195233.583101","181383.233183","185283.30219","186033.046816","186799.684771","187566.506991","188332.909359","189100.085578","189866.814429","190632.971007","194476.982951"
"Mixed","Female","cave","22","M_knife.wav","None","719.801562664","216","184517.401913","191399.98584","192166.582676","192933.336569","193700.35975","194466.922577","195233.583101","196000.267432","185283.30219","186033.046816","186799.684771","187566.506991","188332.909359","189100.085578","189866.814429","190632.971007","195243.453336"
"Mixed","Female","ball","11","M_tile.wav","None","718.847465672","216","199117.059291","191399.98584","192166.582676","192933.336569","193700.35975","194466.922577","195233.583101","196000.267432","185283.30219","186033.046816","186799.684771","187566.506991","188332.909359","189100.085578","189866.814429","190632.971007","196010.228563"
"Mixed","Female","ball","11","F_ball.wav","None","725.946615094","216","199117.059291","191399.98584","192166.582676","192933.336569","193700.35975","194466.922577","195233.583101","196000.267432","199883.630466","186033.046816","186799.684771","187566.506991","188332.909359","189100.085578","189866.814429","190632.971007","199121.792367"
"Mixed","Female","ball","11","F_cad.wav","space","403.967942832","216","199117.059291","191399.98584","192166.582676","192933.336569","193700.35975","194466.922577","195233.583101","196000.267432","199883.630466","200633.072724","186799.684771","187566.506991","188332.909359","189100.085578","189866.814429","190632.971007","199893.57552"
"Mixed","Female","ball","11","M_park.wav","None","735.377520657","216","199117.059291","191399.98584","192166.582676","192933.336569","193700.35975","194466.922577","195233.583101","196000.267432","199883.630466","200633.072724","201399.634005","187566.506991","188332.909359","189100.085578","189866.814429","190632.971007","200642.618022"
"Mixed","Female","ball","11","M_jolt.wav","None","734.177324768","216","199117.059291","191399.98584","192166.582676","192933.336569","193700.35975","194466.922577","195233.583101","196000.267432","199883.630466","200633.072724","201399.634005","202166.536609","188332.909359","189100.085578","189866.814429","190632.971007","201409.089335"
"Mixed","Female","ball","11","F_cave.wav","None","733.204986776","216","199117.059291","191399.98584","192166.582676","192933.336569","193700.35975","194466.922577","195233.583101","196000.267432","199883.630466","200633.072724","201399.634005","202166.536609","202933.015033","189100.085578","189866.814429","190632.971007","202175.978645"
"Mixed","Female","ball","11","M_cling.wav","None","732.609526371","216","199117.059291","191399.98584","192166.582676","192933.336569","193700.35975","194466.922577","195233.583101","196000.267432","199883.630466","200633.072724","201399.634005","202166.536609","202933.015033","203699.661027","189866.814429","190632.971007","202942.577645"
"Mixed","Female","ball","11","M_done.wav","None","732.139897947","216","199117.059291","191399.98584","192166.582676","192933.336569","193700.35975","194466.922577","195233.583101","196000.267432","199883.630466","200633.072724","201399.634005","202166.536609","202933.015033","203699.661027","204466.486957","190632.971007","203708.931782"
"Mixed","Female","ball","11","F_ball.wav","None","730.965981464","216","199117.059291","191399.98584","192166.582676","192933.336569","193700.35975","194466.922577","195233.583101","196000.267432","199883.630466","200633.072724","201399.634005","202166.536609","202933.015033","203699.661027","204466.486957","205232.918387","204475.625697"
"Mixed","Female","ball","11","M_jaw.wav","space","406.850948166","216","199117.059291","205999.999072","192166.582676","192933.336569","193700.35975","194466.922577","195233.583101","196000.267432","199883.630466","200633.072724","201399.634005","202166.536609","202933.015033","203699.661027","204466.486957","205232.918387","205242.550252"
"Mixed","Female","ball","11","F_ball.wav","None","726.759421632","216","199117.059291","205999.999072","206766.209446","192933.336569","193700.35975","194466.922577","195233.583101","196000.267432","199883.630466","200633.072724","201399.634005","202166.536609","202933.015033","203699.661027","204466.486957","205232.918387","206009.548699"
"Mixed","Female","ball","11","M_gnash.wav","space","449.819630529","216","199117.059291","205999.999072","206766.209446","207532.847092","193700.35975","194466.922577","195233.583101","196000.267432","199883.630466","200633.072724","201399.634005","202166.536609","202933.015033","203699.661027","204466.486957","205232.918387","206775.539563"
"Mixed","Female","ball","11","F_ball.wav","None","724.389946794","216","199117.059291","205999.999072","206766.209446","207532.847092","208299.32026","194466.922577","195233.583101","196000.267432","199883.630466","200633.072724","201399.634005","202166.536609","202933.015033","203699.661027","204466.486957","205232.918387","207542.412177"
"Mixed","Female","ball","11","M_romp.wav","space","357.072808169","216","199117.059291","205999.999072","206766.209446","207532.847092","208299.32026","209065.93039","195233.583101","196000.267432","199883.630466","200633.072724","201399.634005","202166.536609","202933.015033","203699.661027","204466.486957","205232.918387","208308.24691"
"Mixed","Female","ball","11","F_done.wav","None","722.210920358","216","199117.059291","205999.999072","206766.209446","207532.847092","208299.32026","209065.93039","209832.523206","196000.267432","199883.630466","200633.072724","201399.634005","202166.536609","202933.015033","203699.661027","204466.486957","205232.918387","209075.25154"
"Mixed","Female","ball","11","F_jolt.wav","None","721.945343787","216","199117.059291","205999.999072","206766.209446","207532.847092","208299.32026","209065.93039","209832.523206","210599.289158","199883.630466","200633.072724","201399.634005","202166.536609","202933.015033","203699.661027","204466.486957","205232.918387","209841.365453"
"Mixed","Male","ball","3","F_depth.wav","None","721.004231913","216","213716.504579","205999.999072","206766.209446","207532.847092","208299.32026","209065.93039","209832.523206","210599.289158","199883.630466","200633.072724","201399.634005","202166.536609","202933.015033","203699.661027","204466.486957","205232.918387","210608.661012"
"Mixed","Male","ball","3","M_gnash.wav","None","720.563356248","216","213716.504579","205999.999072","206766.209446","207532.847092","208299.32026","209065.93039","209832.523206","210599.289158","214483.17407","200633.072724","201399.634005","202166.536609","202933.015033","203699.661027","204466.486957","205232.918387","213726.693569"
"Mixed","Male","ball","3","F_cad.wav","None","720.435050913","216","213716.504579","205999.999072","206766.209446","207532.847092","208299.32026","209065.93039","209832.523206","210599.289158","214483.17407","215250.005256","201399.634005","202166.536609","202933.015033","203699.661027","204466.486957","205232.918387","214492.670519"
"Mixed","Male","ball","3","M_ball.wav","None","719.370889594","216","213716.504579","205999.999072","206766.209446","207532.847092","208299.32026","209065.93039","209832.523206","210599.289158","214483.17407","215250.005256","216015.709519","202166.536609","202933.015033","203699.661027","204466.486957","205232.918387","215259.812421"
"Mixed","Male","ball","3","F_jaw.wav","space","368.323794421","216","213716.504579","205999.999072","206766.209446","207532.847092","208299.32026","209065.93039","209832.523206","210599.289158","214483.17407","215250.005256","216015.709519","216765.697152","202933.015033","203699.661027","204466.486957","205232.918387","216024.743451"
"Mixed","Male","ball","3","M_jaw.wav","None","734.897071299","216","213716.504579","205999.999072","206766.209446","207532.847092","208299.32026","209065.93039","209832.523206","210599.289158","214483.17407","215250.005256","216015.709519","216765.697152","217532.160736","203699.661027","204466.486957","205232.918387","216774.899582"
"Mixed","Male","ball","3","M_ball.wav","None","734.381994953","216","213716.504579","205999.999072","206766.209446","207532.847092","208299.32026","209065.93039","209832.523206","210599.289158","214483.17407","215250.005256","216015.709519","216765.697152","217532.160736","218299.17897","204466.486957","205232.918387","217541.29824"
"Mixed","Male","ball","3","F_tile.wav","space","413.087823916","216","213716.504579","205999.999072","206766.209446","207532.847092","208299.32026","209065.93039","209832.523206","210599.289158","214483.17407","215250.005256","216015.709519","216765.697152","217532.160736","218299.17897","219065.401401","205232.918387","218307.908679"
"Mixed","Male","ball","3","F_priest.wav","None","731.540418339","216","213716.504579","205999.999072","206766.209446","207532.847092","208299.32026","209065.93039","209832.523206","210599.289158","214483.17407","215250.005256","216015.709519","216765.697152","217532.160736","218299.17897","219065.401401","219832.466937","219074.54076"
"Mixed","Male","ball","3","F_priest.wav","None","729.675508082","216","213716.504579","220599.061918","206766.209446","207532.847092","208299.32026","209065.93039","209832.523206","210599.289158","214483.17407","215250.005256","216015.709519","216765.697152","217532.160736","218299.17897","219065.401401","219832.466937","219841.837555"
"Mixed","Male","ball","3","M_gnash.wav","None","729.450432715","216","213716.504579","220599.061918","221365.67885","207532.847092","208299.32026","209065.93039","209832.523206","210599.289158","214483.17407","215250.005256","216015.709519","216765.697152","217532.160736","218299.17897","219065.401401","219832.466937","220607.994442"
"Mixed","Male","ball","3","F_bluff.wav","None","727.882325154","216","213716.504579","220599.061918","221365.67885","222132.419758","208299.32026","209065.93039","209832.523206","210599.289158","214483.17407","215250.005256","216015.709519","216765.697152","217532.160736","218299.17897","219065.401401","219832.466937","221375.191067"
"Mixed","Male","ball","3","M_ball.wav","None","727.276352991","216","213716.504579","220599.061918","221365.67885","222132.419758","222899.079355","209065.93039","209832.523206","210599.289158","214483.17407","215250.005256","216015.709519","216765.697152","217532.160736","218299.17897","219065.401401","219832.466937","222141.757295"
"Mixed","Male","ball","3","M_gnash.wav","space","475.823565641","216","213716.504579","220599.061918","221365.67885","222132.419758","222899.079355","223665.282618","209832.523206","210599.289158","214483.17407","215250.005256","216015.709519","216765.697152","217532.160736","218299.17897","219065.401401","219832.466937","222909.053162"
"Mixed","Male","ball","3","M_ball.wav","None","725.468020748","216","213716.504579","220599.061918","221365.67885","222132.419758","222899.079355","223665.282618","224432.878071","210599.289158","214483.17407","215250.005256","216015.709519","216765.697152","217532.160736","218299.17897","219065.401401","219832.466937","223674.295836"
"Mixed","Male","ball","3","F_jolt.wav","space","445.834436032","216","213716.504579","220599.061918","221365.67885","222132.419758","222899.079355","223665.282618","224432.878071","225199.618052","214483.17407","215250.005256","216015.709519","216765.697152","217532.160736","218299.17897","219065.401401","219832.466937","224442.941228"
"Mixed","Male","cave","16","M_romp.wav","None","719.389748934","216","228315.864537","220599.061918","221365.67885","222132.419758","222899.079355","223665.282618","224432.878071","225199.618052","214483.17407","215250.005256","216015.709519","216765.697152","217532.160736","218299.17897","219065.401401","219832.466937","225209.813843"
"Mixed","Male","cave","16","M_jolt.wav","None","721.29485121","216","228315.864537","220599.061918","221365.67885","222132.419758","222899.079355","223665.282618","224432.878071","225199.618052","229082.550722","215250.005256","216015.709519","216765.697152","217532.160736","218299.17897","219065.401401","219832.466937","228325.607704"
"Mixed","Male","cave","16","M_cave.wav","None","719.771882403","216","228315.864537","220599.061918","221365.67885","222132.419758","222899.079355","223665.282618","224432.878071","225199.618052","229082.550722","229848.881672","216015.709519","216765.697152","217532.160736","218299.17897","219065.401401","219832.466937","229092.705084"
"Mixed","Male","cave","16","F_cling.wav","space","446.746485977","216","228315.864537","220599.061918","221365.67885","222132.419758","222899.079355","223665.282618","224432.878071","225199.618052","229082.550722","229848.881672","230598.393803","216765.697152","217532.160736","218299.17897","219065.401401","219832.466937","229857.866755"
"Mixed","Male","cave","16","M_cave.wav","None","735.441827906","216","228315.864537","220599.061918","221365.67885","222132.419758","222899.079355","223665.282618","224432.878071","225199.618052","229082.550722","229848.881672","230598.393803","231365.502314","217532.160736","218299.17897","219065.401401","219832.466937","230607.445048"
"Mixed","Male","cave","16","F_depth.wav","space","481.79486482","216","228315.864537","220599.061918","221365.67885","222132.419758","222899.079355","223665.282618","224432.878071","225199.618052","229082.550722","229848.881672","230598.393803","231365.502314","232132.138723","218299.17897","219065.401401","219832.466937","231374.840778"
"Mixed","Male","cave","16","F_done.wav","None","731.356153337","216","228315.864537","220599.061918","221365.67885","222132.419758","222899.079355","223665.282618","224432.878071","225199.618052","229082.550722","229848.881672","230598.393803","231365.502314","232132.138723","232898.739269","219065.401401","219832.466937","232141.759768"
"Mixed","Male","cave","16","M_cave.wav","None","730.994734222","216","228315.864537","220599.061918","221365.67885","222132.419758","222899.079355","223665.282618","224432.878071","225199.618052","229082.550722","229848.881672","230598.393803","231365.502314","232132.138723","232898.739269","233665.441222","219832.466937","232908.107104"
"Mixed","Male","cave","16","M_reek.wav","space","421.77486774","216","228315.864537","220599.061918","221365.67885","222132.419758","222899.079355","223665.282618","224432.878071","225199.618052","229082.550722","229848.881672","230598.393803","231365.502314","232132.138723","232898.739269","233665.441222","234432.058772","233674.772266"
"Mixed","Male","cave","16","M_cave.wav","None","727.79142933","216","228315.864537","235198.619125","221365.67885","222132.419758","222899.079355","223665.282618","224432.878071","225199.618052","229082.550722","229848.881672","230598.393803","231365.502314","232132.138723","232898.739269","233665.441222","234432.058772","234441.572535"
"Mixed","Male","cave","16","F_cling.wav","space","488.565676249","216","228315.864537","235198.619125","235965.641997","222132.419758","222899.079355","223665.282618","224432.878071","225199.618052","229082.550722","229848.881672","230598.393803","231365.502314","232132.138723","232898.739269","233665.441222","234432.058772","235207.956971"
"Mixed","Male","cave","16","F_cad.wav","None","724.909969846","216","228315.864537","235198.619125","235965.641997","236731.991497","222899.079355","223665.282618","224432.878071","225199.618052","229082.550722","229848.881672","230598.393803","231365.502314","232132.138723","232898.739269","233665.441222","234432.058772","235975.144939"
"Mixed","Male","cave","16","F_depth.wav","None","724.946142676","216","228315.864537","235198.619125","235965.641997","236731.991497","237498.875551","223665.282618","224432.878071","225199.618052","229082.550722","229848.881672","230598.393803","231365.502314","232132.138723","232898.739269","233665.441222","234432.058772","236740.99884"
"Mixed","Male","cave","16","M_jaw.wav","None","723.256222343","216","228315.864537","235198.619125","235965.641997","236731.991497","237498.875551","238265.423847","224432.878071","225199.618052","229082.550722","229848.881672","230598.393803","231365.502314","232132.138723","232898.739269","233665.441222","234432.058772","237508.760008"
"Mixed","Male","cave","16","F_greet.wav","None","722.464439328","216","228315.864537","235198.619125","235965.641997","236731.991497","237498.875551","238265.423847","239031.887739","225199.618052","229082.550722","229848.881672","230598.393803","231365.502314","232132.138723","232898.739269","233665.441222","234432.058772","238275.55162"
"Mixed","Male","cave","16","F_romp.wav","None","723.958037044","216","228315.864537","235198.619125","235965.641997","236731.991497","237498.875551","238265.423847","239031.887739","239798.998724","229082.550722","229848.881672","230598.393803","231365.502314","232132.138723","232898.739269","233665.441222","234432.058772","239040.645892"
"Mixed","Male","ball","5","F_cling.wav","None","721.834970282","216","242932.171","235198.619125","235965.641997","236731.991497","237498.875551","238265.423847","239031.887739","239798.998724","229082.550722","229848.881672","230598.393803","231365.502314","232132.138723","232898.739269","233665.441222","234432.058772","239808.791358"
"Mixed","Male","ball","5","M_jolt.wav","None","721.653487803","216","242932.171","235198.619125","235965.641997","236731.991497","237498.875551","238265.423847","239031.887739","239798.998724","243698.954884","229848.881672","230598.393803","231365.502314","232132.138723","232898.739269","233665.441222","234432.058772","242941.71939"
"Mixed","Male","ball","5","M_gnash.wav","None","720.534294313","216","242932.171","235198.619125","235965.641997","236731.991497","237498.875551","238265.423847","239031.887739","239798.998724","243698.954884","244465.663638","230598.393803","231365.502314","232132.138723","232898.739269","233665.441222","234432.058772","243708.740097"
"Mixed","Male","ball","5","M_ball.wav","None","719.611114269","216","242932.171","235198.619125","235965.641997","236731.991497","237498.875551","238265.423847","239031.887739","239798.998724","243698.954884","244465.663638","245232.214099","231365.502314","232132.138723","232898.739269","233665.441222","234432.058772","244475.655687"
"Mixed","Male","ball","5","F_tile.wav","space","349.98355218","216","242932.171","235198.619125","235965.641997","236731.991497","237498.875551","238265.423847","239031.887739","239798.998724","243698.954884","244465.663638","245232.214099","245981.598233","232132.138723","232898.739269","233665.441222","234432.058772","245242.215113"
"Mixed","Male","ball","5","F_greet.wav","None","734.73568484","216","242932.171","235198.619125","235965.641997","236731.991497","237498.875551","238265.423847","239031.887739","239798.998724","243698.954884","244465.663638","245232.214099","245981.598233","246748.258448","232898.739269","233665.441222","234432.058772","245991.257924"
"Mixed","Male","ball","5","M_ball.wav","None","734.375193235","216","242932.171","235198.619125","235965.641997","236731.991497","237498.875551","238265.423847","239031.887739","239798.998724","243698.954884","244465.663638","245232.214099","245981.598233","246748.258448","247514.917427","233665.441222","234432.058772","246757.704194"
"Mixed","Male","ball","5","M_priest.wav","space","427.758224527","216","242932.171","235198.619125","235965.641997","236731.991497","237498.875551","238265.423847","239031.887739","239798.998724","243698.954884","244465.663638","245232.214099","245981.598233","246748.258448","247514.917427","248281.237247","234432.058772","247524.348333"
"Mixed","Male","ball","5","M_ball.wav","None","732.48183939","216","242932.171","235198.619125","235965.641997","236731.991497","237498.875551","238265.423847","239031.887739","239798.998724","243698.954884","244465.663638","245232.214099","245981.598233","246748.258448","247514.917427","248281.237247","249048.25177","248290.644655"
"Mixed","Male","ball","5","M_jaw.wav","space","342.212268333","216","242932.171","249815.140462","235965.641997","236731.991497","237498.875551","238265.423847","239031.887739","239798.998724","243698.954884","244465.663638","245232.214099","245981.598233","246748.258448","247514.917427","248281.237247","249048.25177","249057.878689"
"Mixed","Male","ball","5","F_cave.wav","None","728.226739942","216","242932.171","249815.140462","250581.641764","236731.991497","237498.875551","238265.423847","239031.887739","239798.998724","243698.954884","244465.663638","245232.214099","245981.598233","246748.258448","247514.917427","248281.237247","249048.25177","249825.269163"
"Mixed","Male","ball","5","M_ball.wav","None","727.850480696","216","242932.171","249815.140462","250581.641764","251348.186041","237498.875551","238265.423847","239031.887739","239798.998724","243698.954884","244465.663638","245232.214099","245981.598233","246748.258448","247514.917427","248281.237247","249048.25177","250591.132958"
"Mixed","Male","ball","5","F_romp.wav","space","418.434600761","216","242932.171","249815.140462","250581.641764","251348.186041","252115.065148","238265.423847","239031.887739","239798.998724","243698.954884","244465.663638","245232.214099","245981.598233","246748.258448","247514.917427","248281.237247","249048.25177","251357.510283"
"Mixed","Male","ball","5","F_cad.wav","None","725.35486472","216","242932.171","249815.140462","250581.641764","251348.186041","252115.065148","252882.018147","239031.887739","239798.998724","243698.954884","244465.663638","245232.214099","245981.598233","246748.258448","247514.917427","248281.237247","249048.25177","252124.053014"
"Mixed","Male","ball","5","F_cave.wav","None","723.426883895","216","242932.171","249815.140462","250581.641764","251348.186041","252115.065148","252882.018147","253648.207806","239798.998724","243698.954884","244465.663638","245232.214099","245981.598233","246748.258448","247514.917427","248281.237247","249048.25177","252892.184876"
"Mixed","Male","ball","5","F_tile.wav","None","724.156214674","216","242932.171","249815.140462","250581.641764","251348.186041","252115.065148","252882.018147","253648.207806","254415.042393","243698.954884","244465.663638","245232.214099","245981.598233","246748.258448","247514.917427","248281.237247","249048.25177","253657.076024"
"Mixed","Male","cave","17","M_reek.wav","None","722.547915087","216","257548.301547","249815.140462","250581.641764","251348.186041","252115.065148","252882.018147","253648.207806","254415.042393","243698.954884","244465.663638","245232.214099","245981.598233","246748.258448","247514.917427","248281.237247","249048.25177","254424.850176"
"Mixed","Male","cave","17","M_cave.wav","None","721.790449876","216","257548.301547","249815.140462","250581.641764","251348.186041","252115.065148","252882.018147","253648.207806","254415.042393","258314.773478","244465.663638","245232.214099","245981.598233","246748.258448","247514.917427","248281.237247","249048.25177","257558.072539"
"Mixed","Male","cave","17","F_bluff.wav","space","531.384102258","216","257548.301547","249815.140462","250581.641764","251348.186041","252115.065148","252882.018147","253648.207806","254415.042393","258314.773478","259081.549013","245232.214099","245981.598233","246748.258448","247514.917427","248281.237247","249048.25177","258324.43657"
"Mixed","Male","cave","17","M_cave.wav","None","718.631974552","216","257548.301547","249815.140462","250581.641764","251348.186041","252115.065148","252882.018147","253648.207806","254415.042393","258314.773478","259081.549013","259831.506039","245981.598233","246748.258448","247514.917427","248281.237247","249048.25177","259091.878674"
"Mixed","Male","cave","17","F_cling.wav","space","438.776096998","216","257548.301547","249815.140462","250581.641764","251348.186041","252115.065148","252882.018147","253648.207806","254415.042393","258314.773478","259081.549013","259831.506039","260597.493192","246748.258448","247514.917427","248281.237247","249048.25177","259840.976827"
"Mixed","Male","cave","17","F_cad.wav","None","734.518957041","216","257548.301547","249815.140462","250581.641764","251348.186041","252115.065148","252882.018147","253648.207806","254415.042393","258314.773478","259081.549013","259831.506039","260597.493192","261364.322523","247514.917427","248281.237247","249048.25177","260606.697786"
"Mixed","Male","cave","17","M_cave.wav","None","734.172996396","216","257548.301547","249815.140462","250581.641764","251348.186041","252115.065148","252882.018147","253648.207806","254415.042393","258314.773478","259081.549013","259831.506039","260597.493192","261364.322523","262131.229765","248281.237247","249048.25177","261373.185794"
"Mixed","Male","cave","17","F_gnash.wav","space","488.489929732","216","257548.301547","249815.140462","250581.641764","251348.186041","252115.065148","252882.018147","253648.207806","254415.042393","258314.773478","259081.549013","259831.506039","260597.493192","261364.322523","262131.229765","262897.854735","249048.25177","262135.194863"
"Mixed","Male","cave","17","F_lash.wav","None","729.842768771","216","257548.301547","249815.140462","250581.641764","251348.186041","252115.065148","252882.018147","253648.207806","254415.042393","258314.773478","259081.549013","259831.506039","260597.493192","261364.322523","262131.229765","262897.854735","263664.714055","262907.213913"
"Mixed","Male","cave","17","M_jaw.wav","None","729.46001697","216","257548.301547","264431.165272","250581.641764","251348.186041","252115.065148","252882.018147","253648.207806","254415.042393","258314.773478","259081.549013","259831.506039","260597.493192","261364.322523","262131.229765","262897.854735","263664.714055","263673.783233"
"Mixed","Male","cave","17","M_cave.wav","None","729.331711642","216","257548.301547","264431.165272","265197.754997","251348.186041","252115.065148","252882.018147","253648.207806","254415.042393","258314.773478","259081.549013","259831.506039","260597.493192","261364.322523","262131.229765","262897.854735","263664.714055","264440.502808"
"Mixed","Male","cave","17","M_romp.wav","space","640.250711709","216","257548.301547","264431.165272","265197.754997","265964.164167","252115.065148","252882.018147","253648.207806","254415.042393","258314.773478","259081.549013","259831.506039","260597.493192","261364.322523","262131.229765","262897.854735","263664.714055","265207.350071"
"Mixed","Male","cave","17","F_jolt.wav","None","727.749073114","216","257548.301547","264431.165272","265197.754997","265964.164167","266731.095523","252882.018147","253648.207806","254415.042393","258314.773478","259081.549013","259831.506039","260597.493192","261364.322523","262131.229765","262897.854735","263664.714055","265973.009505"
"Mixed","Male","cave","17","M_lash.wav","None","725.957436021","216","257548.301547","264431.165272","265197.754997","265964.164167","266731.095523","267497.547668","253648.207806","254415.042393","258314.773478","259081.549013","259831.506039","260597.493192","261364.322523","262131.229765","262897.854735","263664.714055","266740.373081"
"Mixed","Male","cave","17","F_done.wav","None","725.928374086","216","257548.301547","264431.165272","265197.754997","265964.164167","266731.095523","267497.547668","268264.274664","254415.042393","258314.773478","259081.549013","259831.506039","260597.493192","261364.322523","262131.229765","262897.854735","263664.714055","267506.506472"
"Mixed","Male","cave","17","F_lash.wav","None","724.850609309","216","257548.301547","264431.165272","265197.754997","265964.164167","266731.095523","267497.547668","268264.274664","269031.003824","258314.773478","259081.549013","259831.506039","260597.493192","261364.322523","262131.229765","262897.854735","263664.714055","268273.689492"
"Mixed","Male","tile","25","F_cling.wav","None","725.308798472","216","272164.45559","264431.165272","265197.754997","265964.164167","266731.095523","267497.547668","268264.274664","269031.003824","258314.773478","259081.549013","259831.506039","260597.493192","261364.322523","262131.229765","262897.854735","263664.714055","269039.898939"
"Mixed","Male","tile","25","M_tile.wav","None","721.672347143","216","272164.45559","264431.165272","265197.754997","265964.164167","266731.095523","267497.547668","268264.274664","269031.003824","272931.254004","259081.549013","259831.506039","260597.493192","261364.322523","262131.229765","262897.854735","263664.714055","272174.425996"
"Mixed","Male","tile","25","M_jolt.wav","space","410.72607832","216","272164.45559","264431.165272","265197.754997","265964.164167","266731.095523","267497.547668","268264.274664","269031.003824","272931.254004","273698.164337","259831.506039","260597.493192","261364.322523","262131.229765","262897.854735","263664.714055","272940.667287"
"Mixed","Male","tile","25","F_reek.wav","None","718.730290449","216","272164.45559","264431.165272","265197.754997","265964.164167","266731.095523","267497.547668","268264.274664","269031.003824","272931.254004","273698.164337","274464.62081","260597.493192","261364.322523","262131.229765","262897.854735","263664.714055","273708.3929"
"Mixed","Male","tile","25","F_cave.wav","None","718.882401823","216","272164.45559","264431.165272","265197.754997","265964.164167","266731.095523","267497.547668","268264.274664","269031.003824","272931.254004","273698.164337","274464.62081","275231.173434","261364.322523","262131.229765","262897.854735","263664.714055","274474.540822"
"Mixed","Male","tile","25","M_cling.wav","None","719.091400388","216","272164.45559","264431.165272","265197.754997","265964.164167","266731.095523","267497.547668","268264.274664","269031.003824","272931.254004","273698.164337","274464.62081","275231.173434","275997.927019","262131.229765","262897.854735","263664.714055","275240.894959"
"Mixed","Male","tile","25","F_romp.wav","None","718.499959192","216","272164.45559","264431.165272","265197.754997","265964.164167","266731.095523","267497.547668","268264.274664","269031.003824","272931.254004","273698.164337","274464.62081","275231.173434","275997.927019","276747.708745","262897.854735","263664.714055","276007.80993"
"Mixed","Male","tile","25","M_tile.wav","None","735.964633488","216","272164.45559","264431.165272","265197.754997","265964.164167","266731.095523","267497.547668","268264.274664","269031.003824","272931.254004","273698.164337","274464.62081","275231.173434","275997.927019","276747.708745","277514.137392","263664.714055","276756.757517"
"Mixed","Male","tile","25","F_greet.wav","space","387.505286795","216","272164.45559","264431.165272","265197.754997","265964.164167","266731.095523","267497.547668","268264.274664","269031.003824","272931.254004","273698.164337","274464.62081","275231.173434","275997.927019","276747.708745","277514.137392","278280.702693","277523.724738"
"Mixed","Male","tile","25","M_tile.wav","None","733.600414533","216","272164.45559","279047.300765","265197.754997","265964.164167","266731.095523","267497.547668","268264.274664","269031.003824","272931.254004","273698.164337","274464.62081","275231.173434","275997.927019","276747.708745","277514.137392","278280.702693","278290.047649"
"Mixed","Male","tile","25","M_reek.wav","space","478.729140341","216","272164.45559","279047.300765","279813.911204","265964.164167","266731.095523","267497.547668","268264.274664","269031.003824","272931.254004","273698.164337","274464.62081","275231.173434","275997.927019","276747.708745","277514.137392","278280.702693","279056.492373"
"Mixed","Male","tile","25","M_tile.wav","None","731.591431308","216","272164.45559","279047.300765","279813.911204","280580.945205","266731.095523","267497.547668","268264.274664","269031.003824","272931.254004","273698.164337","274464.62081","275231.173434","275997.927019","276747.708745","277514.137392","278280.702693","279823.376427"
"Mixed","Male","tile","25","M_reek.wav","space","456.568181762","216","272164.45559","279047.300765","279813.911204","280580.945205","281346.957711","267497.547668","268264.274664","269031.003824","272931.254004","273698.164337","274464.62081","275231.173434","275997.927019","276747.708745","277514.137392","278280.702693","280590.572743"
"Mixed","Male","tile","25","F_jolt.wav","None","730.031052983","216","272164.45559","279047.300765","279813.911204","280580.945205","281346.957711","282114.187416","268264.274664","269031.003824","272931.254004","273698.164337","274464.62081","275231.173434","275997.927019","276747.708745","277514.137392","278280.702693","281356.016376"
"Mixed","Male","tile","25","F_gnash.wav","None","728.801795165","216","272164.45559","279047.300765","279813.911204","280580.945205","281346.957711","282114.187416","282880.599368","269031.003824","272931.254004","273698.164337","274464.62081","275231.173434","275997.927019","276747.708745","277514.137392","278280.702693","282123.634708"
"Mixed","Male","tile","25","F_dime.wav","None","728.45676203","216","272164.45559","279047.300765","279813.911204","280580.945205","281346.957711","282114.187416","282880.599368","283646.552204","272931.254004","273698.164337","274464.62081","275231.173434","275997.927019","276747.708745","277514.137392","278280.702693","282890.349955"
"Mixed","Female","ball","10","M_romp.wav","None","732.516466363","216","286780.83409","279047.300765","279813.911204","280580.945205","281346.957711","282114.187416","282880.599368","283646.552204","272931.254004","273698.164337","274464.62081","275231.173434","275997.927019","276747.708745","277514.137392","278280.702693","283655.363843"
"Mixed","Female","ball","10","F_bluff.wav","None","721.797251608","216","286780.83409","279047.300765","279813.911204","280580.945205","281346.957711","282114.187416","282880.599368","283646.552204","287547.462151","273698.164337","274464.62081","275231.173434","275997.927019","276747.708745","277514.137392","278280.702693","286790.392991"
"Mixed","Female","ball","10","M_jolt.wav","None","720.63230104","216","286780.83409","279047.300765","279813.911204","280580.945205","281346.957711","282114.187416","282880.599368","283646.552204","287547.462151","288314.183273","274464.62081","275231.173434","275997.927019","276747.708745","277514.137392","278280.702693","287557.958455"
"Mixed","Female","ball","10","M_reek.wav","None","721.137793123","216","286780.83409","279047.300765","279813.911204","280580.945205","281346.957711","282114.187416","282880.599368","283646.552204","287547.462151","288314.183273","289080.77207","275231.173434","275997.927019","276747.708745","277514.137392","278280.702693","288323.977762"
"Mixed","Female","ball","10","F_ball.wav","None","720.66383632","216","286780.83409","279047.300765","279813.911204","280580.945205","281346.957711","282114.187416","282880.599368","283646.552204","287547.462151","288314.183273","289080.77207","289847.329023","275997.927019","276747.708745","277514.137392","278280.702693","289090.643233"
"Mixed","Female","ball","10","F_knife.wav","space","398.586229836","216","286780.83409","279047.300765","279813.911204","280580.945205","281346.957711","282114.187416","282880.599368","283646.552204","287547.462151","288314.183273","289080.77207","289847.329023","290596.681622","276747.708745","277514.137392","278280.702693","289856.2903"
"Mixed","Female","ball","10","M_depth.wav","None","735.864153408","216","286780.83409","279047.300765","279813.911204","280580.945205","281346.957711","282114.187416","282880.599368","283646.552204","287547.462151","288314.183273","289080.77207","289847.329023","290596.681622","291363.373373","277514.137392","278280.702693","290606.15272"
"Mixed","Female","ball","10","F_ball.wav","None","735.899398729","216","286780.83409","279047.300765","279813.911204","280580.945205","281346.957711","282114.187416","282880.599368","283646.552204","287547.462151","288314.183273","289080.77207","289847.329023","290596.681622","291363.373373","292130.126957","278280.702693","291372.434512"
