"Condition","Talker","Target","Trial","current_stimulus","response_response","response_time_response","subject_nr","time_Audio1","time_Audio10","time_Audio11","time_Audio12","time_Audio13","time_Audio14","time_Audio15","time_Audio16","time_Audio2","time_Audio3","time_Audio4","time_Audio5","time_Audio6","time_Audio7","time_Audio8","time_Audio9","time_response","title"
"Mixed","Both","cave","16","M_greet.wav","NA","NA","108","1157365.46993","NA","NA","NA","NA","NA","NA","NA","NA","NA","NA","NA","NA","NA","NA","NA","NA","Mapping"
"Mixed","Both","cave","16","F_cave.wav","None","713.749828807","108","1157365.46993","NA","NA","NA","NA","NA","NA","NA","1158114.76447","NA","NA","NA","NA","NA","NA","NA","1157381.91114","Mapping"
"Mixed","Both","cave","16","F_cling.wav","space","727.852145967","108","1157365.46993","NA","NA","NA","NA","NA","NA","NA","1158114.76447","1158881.57213","NA","NA","NA","NA","NA","NA","1158124.10862","Mapping"
"Mixed","Both","cave","16","F_ball.wav","None","731.055489479","108","1157365.46993","NA","NA","NA","NA","NA","NA","NA","1158114.76447","1158881.57213","1159648.17234","NA","NA","NA","NA","NA","1158891.48639","Mapping"
"Mixed","Both","cave","16","M_cave.wav","None","728.809037013","108","1157365.46993","NA","NA","NA","NA","NA","NA","NA","1158114.76447","1158881.57213","1159648.17234","1160414.94475","NA","NA","NA","NA","1159657.45712","Mapping"
"Mixed","Both","cave","16","F_lash.wav","space","531.065877702","108","1157365.46993","NA","NA","NA","NA","NA","NA","NA","1158114.76447","1158881.57213","1159648.17234","1160414.94475","1161181.9274","NA","NA","NA","1160424.82655","Mapping"
"Mixed","Both","cave","16","M_cave.wav","None","721.211105614","108","1157365.46993","NA","NA","NA","NA","NA","NA","NA","1158114.76447","1158881.57213","1159648.17234","1160414.94475","1161181.9274","1161931.20433","NA","NA","1161191.93812","Mapping"
"Mixed","Both","cave","16","F_knife.wav","space","559.452924208","108","1157365.46993","NA","NA","NA","NA","NA","NA","NA","1158114.76447","1158881.57213","1159648.17234","1160414.94475","1161181.9274","1161931.20433","1162698.12638","NA","1161940.41305","Mapping"
"Mixed","Both","cave","16","M_jaw.wav","None","732.477067853","108","1157365.46993","NA","NA","NA","NA","NA","NA","NA","1158114.76447","1158881.57213","1159648.17234","1160414.94475","1161181.9274","1161931.20433","1162698.12638","1163465.09697","1162707.78557","Mapping"
"Mixed","Both","cave","16","F_cave.wav","None","728.867470752","108","1157365.46993","1164231.67863","NA","NA","NA","NA","NA","NA","1158114.76447","1158881.57213","1159648.17234","1160414.94475","1161181.9274","1161931.20433","1162698.12638","1163465.09697","1163474.95465","Mapping"
"Mixed","Both","cave","16","M_reek.wav","space","490.541928069","108","1157365.46993","1164231.67863","1164998.82669","NA","NA","NA","NA","NA","1158114.76447","1158881.57213","1159648.17234","1160414.94475","1161181.9274","1161931.20433","1162698.12638","1163465.09697","1164241.29361","Mapping"
"Mixed","Both","cave","16","F_cad.wav","None","721.588606102","108","1157365.46993","1164231.67863","1164998.82669","1165765.93054","NA","NA","NA","NA","1158114.76447","1158881.57213","1159648.17234","1160414.94475","1161181.9274","1161931.20433","1162698.12638","1163465.09697","1165009.27272","Mapping"
"Mixed","Both","cave","16","F_done.wav","None","717.998796084","108","1157365.46993","1164231.67863","1164998.82669","1165765.93054","1166515.55559","NA","NA","NA","1158114.76447","1158881.57213","1159648.17234","1160414.94475","1161181.9274","1161931.20433","1162698.12638","1163465.09697","1165776.45386","Mapping"
"Mixed","Both","cave","16","M_ball.wav","None","732.608775637","108","1157365.46993","1164231.67863","1164998.82669","1165765.93054","1166515.55559","1167281.46386","NA","NA","1158114.76447","1158881.57213","1159648.17234","1160414.94475","1161181.9274","1161931.20433","1162698.12638","1163465.09697","1166525.5122","Mapping"
"Mixed","Both","cave","16","M_reek.wav","None","731.177922076","108","1157365.46993","1164231.67863","1164998.82669","1165765.93054","1166515.55559","1167281.46386","1168048.6855","NA","1158114.76447","1158881.57213","1159648.17234","1160414.94475","1161181.9274","1161931.20433","1162698.12638","1163465.09697","1167290.73164","Mapping"
"Mixed","Both","cave","16","M_cad.wav","None","727.172583283","108","1157365.46993","1164231.67863","1164998.82669","1165765.93054","1166515.55559","1167281.46386","1168048.6855","1168814.86338","1158114.76447","1158881.57213","1159648.17234","1160414.94475","1161181.9274","1161931.20433","1162698.12638","1163465.09697","1168058.29182","Mapping"
"Mixed","Both","ball","2","F_greet.wav","None","725.273023127","108","1171965.67652","1164231.67863","1164998.82669","1165765.93054","1166515.55559","1167281.46386","1168048.6855","1168814.86338","1158114.76447","1158881.57213","1159648.17234","1160414.94475","1161181.9274","1161931.20433","1162698.12638","1163465.09697","1168823.88289","Mapping"
"Mixed","Both","ball","2","M_ball.wav","None","719.391312159","108","1171965.67652","1164231.67863","1164998.82669","1165765.93054","1166515.55559","1167281.46386","1168048.6855","1168814.86338","1172715.19181","1158881.57213","1159648.17234","1160414.94475","1161181.9274","1161931.20433","1162698.12638","1163465.09697","1171975.83069","Mapping"
"Mixed","Both","ball","2","M_cave.wav","space","446.933357423","108","1171965.67652","1164231.67863","1164998.82669","1165765.93054","1166515.55559","1167281.46386","1168048.6855","1168814.86338","1172715.19181","1173481.82881","1159648.17234","1160414.94475","1161181.9274","1161931.20433","1162698.12638","1163465.09697","1172724.76103","Mapping"
"Mixed","Both","ball","2","M_cave.wav","None","731.100319565","108","1171965.67652","1164231.67863","1164998.82669","1165765.93054","1166515.55559","1167281.46386","1168048.6855","1168814.86338","1172715.19181","1173481.82881","1174249.06529","1160414.94475","1161181.9274","1161931.20433","1162698.12638","1163465.09697","1173491.61569","Mapping"
"Mixed","Both","ball","2","F_bluff.wav","None","725.784086419","108","1171965.67652","1164231.67863","1164998.82669","1165765.93054","1166515.55559","1167281.46386","1168048.6855","1168814.86338","1172715.19181","1173481.82881","1174249.06529","1175015.27501","1161181.9274","1161931.20433","1162698.12638","1163465.09697","1174260.52294","Mapping"
"Mixed","Both","ball","2","M_ball.wav","None","724.655295082","108","1171965.67652","1164231.67863","1164998.82669","1165765.93054","1166515.55559","1167281.46386","1168048.6855","1168814.86338","1172715.19181","1173481.82881","1174249.06529","1175015.27501","1175782.00507","1161931.20433","1162698.12638","1163465.09697","1175025.3318","Mapping"
"Mixed","Both","ball","2","F_knife.wav","space","411.618357844","108","1171965.67652","1164231.67863","1164998.82669","1165765.93054","1166515.55559","1167281.46386","1168048.6855","1168814.86338","1172715.19181","1173481.82881","1174249.06529","1175015.27501","1175782.00507","1176548.28868","1162698.12638","1163465.09697","1175792.05536","Mapping"
"Mixed","Both","ball","2","M_lash.wav","None","720.081386768","108","1171965.67652","1164231.67863","1164998.82669","1165765.93054","1166515.55559","1167281.46386","1168048.6855","1168814.86338","1172715.19181","1173481.82881","1174249.06529","1175015.27501","1175782.00507","1176548.28868","1177298.50147","1163465.09697","1176557.65385","Mapping"
"Mixed","Both","ball","2","F_jaw.wav","None","732.964943163","108","1171965.67652","1164231.67863","1164998.82669","1165765.93054","1166515.55559","1167281.46386","1168048.6855","1168814.86338","1172715.19181","1173481.82881","1174249.06529","1175015.27501","1175782.00507","1176548.28868","1177298.50147","1178065.14836","1177308.51064","Mapping"
"Mixed","Both","ball","2","M_knife.wav","None","730.267406994","108","1171965.67652","1178831.64839","1164998.82669","1165765.93054","1166515.55559","1167281.46386","1168048.6855","1168814.86338","1172715.19181","1173481.82881","1174249.06529","1175015.27501","1175782.00507","1176548.28868","1177298.50147","1178065.14836","1178074.89288","Mapping"
"Mixed","Both","ball","2","M_priest.wav","None","728.074441489","108","1171965.67652","1178831.64839","1179598.4576","1165765.93054","1166515.55559","1167281.46386","1168048.6855","1168814.86338","1172715.19181","1173481.82881","1174249.06529","1175015.27501","1175782.00507","1176548.28868","1177298.50147","1178065.14836","1178840.85217","Mapping"
"Mixed","Both","ball","2","F_bluff.wav","None","724.000466231","108","1171965.67652","1178831.64839","1179598.4576","1180365.64059","1166515.55559","1167281.46386","1168048.6855","1168814.86338","1172715.19181","1173481.82881","1174249.06529","1175015.27501","1175782.00507","1176548.28868","1177298.50147","1178065.14836","1179608.74348","Mapping"
"Mixed","Both","ball","2","F_ball.wav","None","721.030857647","108","1171965.67652","1178831.64839","1179598.4576","1180365.64059","1181115.19608","1167281.46386","1168048.6855","1168814.86338","1172715.19181","1173481.82881","1174249.06529","1175015.27501","1175782.00507","1176548.28868","1177298.50147","1178065.14836","1180375.40892","Mapping"
"Mixed","Both","ball","2","M_lash.wav","space","519.093145529","108","1171965.67652","1178831.64839","1179598.4576","1180365.64059","1181115.19608","1181881.51586","1168048.6855","1168814.86338","1172715.19181","1173481.82881","1174249.06529","1175015.27501","1175782.00507","1176548.28868","1177298.50147","1178065.14836","1181124.60607","Mapping"
"Mixed","Both","ball","2","F_ball.wav","None","732.769854862","108","1171965.67652","1178831.64839","1179598.4576","1180365.64059","1181115.19608","1181881.51586","1182647.87615","1168814.86338","1172715.19181","1173481.82881","1174249.06529","1175015.27501","1175782.00507","1176548.28868","1177298.50147","1178065.14836","1181891.13733","Mapping"
"Mixed","Both","ball","2","F_dime.wav","space","602.117589064","108","1171965.67652","1178831.64839","1179598.4576","1180365.64059","1181115.19608","1181881.51586","1182647.87615","1183415.0777","1172715.19181","1173481.82881","1174249.06529","1175015.27501","1175782.00507","1176548.28868","1177298.50147","1178065.14836","1182657.4364","Mapping"
"Mixed","Both","cave","15","F_romp.wav","None","725.868799869","108","1186532.12201","1178831.64839","1179598.4576","1180365.64059","1181115.19608","1181881.51586","1182647.87615","1183415.0777","1172715.19181","1173481.82881","1174249.06529","1175015.27501","1175782.00507","1176548.28868","1177298.50147","1178065.14836","1183425.23775","Mapping"
"Mixed","Both","cave","15","F_cave.wav","None","719.430577185","108","1186532.12201","1178831.64839","1179598.4576","1180365.64059","1181115.19608","1181881.51586","1182647.87615","1183415.0777","1187281.35998","1173481.82881","1174249.06529","1175015.27501","1175782.00507","1176548.28868","1177298.50147","1178065.14836","1186542.4382","Mapping"
"Mixed","Both","cave","15","M_gnash.wav","space","504.418548808","108","1186532.12201","1178831.64839","1179598.4576","1180365.64059","1181115.19608","1181881.51586","1182647.87615","1183415.0777","1187281.35998","1188048.35005","1174249.06529","1175015.27501","1175782.00507","1176548.28868","1177298.50147","1178065.14836","1187291.00618","Mapping"
"Mixed","Both","cave","15","F_knife.wav","None","731.106503052","108","1186532.12201","1178831.64839","1179598.4576","1180365.64059","1181115.19608","1181881.51586","1182647.87615","1183415.0777","1187281.35998","1188048.35005","1188814.4967","1175015.27501","1175782.00507","1176548.28868","1177298.50147","1178065.14836","1188057.99966","Mapping"
"Mixed","Both","cave","15","F_park.wav","None","727.418685128","108","1186532.12201","1178831.64839","1179598.4576","1180365.64059","1181115.19608","1181881.51586","1182647.87615","1183415.0777","1187281.35998","1188048.35005","1188814.4967","1189581.40515","1175782.00507","1176548.28868","1177298.50147","1178065.14836","1188825.49584","Mapping"
"Mixed","Both","cave","15","F_done.wav","None","725.823660585","108","1186532.12201","1178831.64839","1179598.4576","1180365.64059","1181115.19608","1181881.51586","1182647.87615","1183415.0777","1187281.35998","1188048.35005","1188814.4967","1189581.40515","1190348.33741","1176548.28868","1177298.50147","1178065.14836","1189591.35527","Mapping"
"Mixed","Both","cave","15","F_cave.wav","None","723.201562709","108","1186532.12201","1178831.64839","1179598.4576","1180365.64059","1181115.19608","1181881.51586","1182647.87615","1183415.0777","1187281.35998","1188048.35005","1188814.4967","1189581.40515","1190348.33741","1191115.27275","1177298.50147","1178065.14836","1190357.73473","Mapping"
"Mixed","Both","cave","15","F_depth.wav","space","421.644226357","108","1186532.12201","1178831.64839","1179598.4576","1180365.64059","1181115.19608","1181881.51586","1182647.87615","1183415.0777","1187281.35998","1188048.35005","1188814.4967","1189581.40515","1190348.33741","1191115.27275","1191864.84895","1178065.14836","1191125.70982","Mapping"
"Mixed","Both","cave","15","M_priest.wav","None","733.618535305","108","1186532.12201","1178831.64839","1179598.4576","1180365.64059","1181115.19608","1181881.51586","1182647.87615","1183415.0777","1187281.35998","1188048.35005","1188814.4967","1189581.40515","1190348.33741","1191115.27275","1191864.84895","1192631.30416","1191874.54277","Mapping"
"Mixed","Both","cave","15","M_park.wav","None","730.552155495","108","1186532.12201","1193398.22559","1179598.4576","1180365.64059","1181115.19608","1181881.51586","1182647.87615","1183415.0777","1187281.35998","1188048.35005","1188814.4967","1189581.40515","1190348.33741","1191115.27275","1191864.84895","1192631.30416","1192641.26726","Mapping"
"Mixed","Both","cave","15","M_cave.wav","None","727.452075836","108","1186532.12201","1193398.22559","1194164.86228","1180365.64059","1181115.19608","1181881.51586","1182647.87615","1183415.0777","1187281.35998","1188048.35005","1188814.4967","1189581.40515","1190348.33741","1191115.27275","1191864.84895","1192631.30416","1193408.10337","Mapping"
"Mixed","Both","cave","15","M_jaw.wav","space","484.825624793","108","1186532.12201","1193398.22559","1194164.86228","1194931.6013","1181115.19608","1181881.51586","1182647.87615","1183415.0777","1187281.35998","1188048.35005","1188814.4967","1189581.40515","1190348.33741","1191115.27275","1191864.84895","1192631.30416","1194174.47509","Mapping"
"Mixed","Both","cave","15","M_done.wav","None","721.378059156","108","1186532.12201","1193398.22559","1194164.86228","1194931.6013","1195681.29406","1181881.51586","1182647.87615","1183415.0777","1187281.35998","1188048.35005","1188814.4967","1189581.40515","1190348.33741","1191115.27275","1191864.84895","1192631.30416","1194941.63923","Mapping"
"Mixed","Both","cave","15","M_depth.wav","None","736.460146203","108","1186532.12201","1193398.22559","1194164.86228","1194931.6013","1195681.29406","1196447.82594","1182647.87615","1183415.0777","1187281.35998","1188048.35005","1188814.4967","1189581.40515","1190348.33741","1191115.27275","1191864.84895","1192631.30416","1195690.46878","Mapping"
"Mixed","Both","cave","15","M_cave.wav","None","733.505377924","108","1186532.12201","1193398.22559","1194164.86228","1194931.6013","1195681.29406","1196447.82594","1197214.75511","1183415.0777","1187281.35998","1188048.35005","1188814.4967","1189581.40515","1190348.33741","1191115.27275","1191864.84895","1192631.30416","1196457.24181","Mapping"
"Mixed","Both","cave","15","F_jolt.wav","space","378.380693001","108","1186532.12201","1193398.22559","1194164.86228","1194931.6013","1195681.29406","1196447.82594","1197214.75511","1197981.23195","1187281.35998","1188048.35005","1188814.4967","1189581.40515","1190348.33741","1191115.27275","1191864.84895","1192631.30416","1197224.90186","Mapping"
"Mixed","Both","done","41","F_reek.wav","None","727.023870946","108","1201115.16423","1193398.22559","1194164.86228","1194931.6013","1195681.29406","1196447.82594","1197214.75511","1197981.23195","1187281.35998","1188048.35005","1188814.4967","1189581.40515","1190348.33741","1191115.27275","1191864.84895","1192631.30416","1197990.87723","Mapping"
"Mixed","Both","done","41","F_lash.wav","None","718.98536777","108","1201115.16423","1193398.22559","1194164.86228","1194931.6013","1195681.29406","1196447.82594","1197214.75511","1197981.23195","1201864.65541","1188048.35005","1188814.4967","1189581.40515","1190348.33741","1191115.27275","1191864.84895","1192631.30416","1201125.55555","Mapping"
"Mixed","Both","done","41","M_dime.wav","None","733.817642846","108","1201115.16423","1193398.22559","1194164.86228","1194931.6013","1195681.29406","1196447.82594","1197214.75511","1197981.23195","1201864.65541","1202630.93964","1188814.4967","1189581.40515","1190348.33741","1191115.27275","1191864.84895","1192631.30416","1201874.54215","Mapping"
"Mixed","Both","done","41","F_jaw.wav","None","732.018254843","108","1201115.16423","1193398.22559","1194164.86228","1194931.6013","1195681.29406","1196447.82594","1197214.75511","1197981.23195","1201864.65541","1202630.93964","1203397.56087","1189581.40515","1190348.33741","1191115.27275","1191864.84895","1192631.30416","1202640.25132","Mapping"
"Mixed","Both","done","41","F_romp.wav","None","729.233222635","108","1201115.16423","1193398.22559","1194164.86228","1194931.6013","1195681.29406","1196447.82594","1197214.75511","1197981.23195","1201864.65541","1202630.93964","1203397.56087","1204164.25259","1190348.33741","1191115.27275","1191864.84895","1192631.30416","1203406.95819","Mapping"
"Mixed","Both","done","41","M_priest.wav","None","726.987079339","108","1201115.16423","1193398.22559","1194164.86228","1194931.6013","1195681.29406","1196447.82594","1197214.75511","1197981.23195","1201864.65541","1202630.93964","1203397.56087","1204164.25259","1204931.07602","1191115.27275","1191864.84895","1192631.30416","1204173.15771","Mapping"
"Mixed","Both","done","41","M_park.wav","None","723.661612428","108","1201115.16423","1193398.22559","1194164.86228","1194931.6013","1195681.29406","1196447.82594","1197214.75511","1197981.23195","1201864.65541","1202630.93964","1203397.56087","1204164.25259","1204931.07602","1205698.46431","1191864.84895","1192631.30416","1204940.2832","Mapping"
"Mixed","Both","done","41","F_done.wav","None","719.38822043","108","1201115.16423","1193398.22559","1194164.86228","1194931.6013","1195681.29406","1196447.82594","1197214.75511","1197981.23195","1201864.65541","1202630.93964","1203397.56087","1204164.25259","1204931.07602","1205698.46431","1206447.83027","1192631.30416","1205708.44287","Mapping"
"Mixed","Both","done","41","M_reek.wav","space","409.472695814","108","1201115.16423","1193398.22559","1194164.86228","1194931.6013","1195681.29406","1196447.82594","1197214.75511","1197981.23195","1201864.65541","1202630.93964","1203397.56087","1204164.25259","1204931.07602","1205698.46431","1206447.83027","1207214.19086","1206457.60447","Mapping"
"Mixed","Both","done","41","M_ball.wav","None","732.319080358","108","1201115.16423","1207980.83095","1194164.86228","1194931.6013","1195681.29406","1196447.82594","1197214.75511","1197981.23195","1201864.65541","1202630.93964","1203397.56087","1204164.25259","1204931.07602","1205698.46431","1206447.83027","1207214.19086","1207223.10742","Mapping"
"Mixed","Both","done","41","M_done.wav","None","729.298458173","108","1201115.16423","1207980.83095","1208747.96788","1194931.6013","1195681.29406","1196447.82594","1197214.75511","1197981.23195","1201864.65541","1202630.93964","1203397.56087","1204164.25259","1204931.07602","1205698.46431","1206447.83027","1207214.19086","1207989.94878","Mapping"
"Mixed","Both","done","41","F_dime.wav","space","540.964985208","108","1201115.16423","1207980.83095","1208747.96788","1209514.88901","1195681.29406","1196447.82594","1197214.75511","1197981.23195","1201864.65541","1202630.93964","1203397.56087","1204164.25259","1204931.07602","1205698.46431","1206447.83027","1207214.19086","1208758.07846","Mapping"
"Mixed","Both","done","41","M_done.wav","None","723.029662389","108","1201115.16423","1207980.83095","1208747.96788","1209514.88901","1210281.39151","1196447.82594","1197214.75511","1197981.23195","1201864.65541","1202630.93964","1203397.56087","1204164.25259","1204931.07602","1205698.46431","1206447.83027","1207214.19086","1209525.06575","Mapping"
"Mixed","Both","done","41","F_lash.wav","space","575.624228397","108","1201115.16423","1207980.83095","1208747.96788","1209514.88901","1210281.39151","1211030.93803","1197214.75511","1197981.23195","1201864.65541","1202630.93964","1203397.56087","1204164.25259","1204931.07602","1205698.46431","1206447.83027","1207214.19086","1210291.40502","Mapping"
"Mixed","Both","done","41","F_done.wav","None","734.783499909","108","1201115.16423","1207980.83095","1208747.96788","1209514.88901","1210281.39151","1211030.93803","1211798.04126","1197981.23195","1201864.65541","1202630.93964","1203397.56087","1204164.25259","1204931.07602","1205698.46431","1206447.83027","1207214.19086","1211040.62969","Mapping"
"Mixed","Both","done","41","M_depth.wav","space","514.318892994","108","1201115.16423","1207980.83095","1208747.96788","1209514.88901","1210281.39151","1211030.93803","1211798.04126","1212563.96407","1201864.65541","1202630.93964","1203397.56087","1204164.25259","1204931.07602","1205698.46431","1206447.83027","1207214.19086","1211808.62766","Mapping"
"Mixed","Both","ball","10","F_jolt.wav","None","731.666106527","108","1215698.17708","1207980.83095","1208747.96788","1209514.88901","1210281.39151","1211030.93803","1211798.04126","1212563.96407","1201864.65541","1202630.93964","1203397.56087","1204164.25259","1204931.07602","1205698.46431","1206447.83027","1207214.19086","1212572.98822","Mapping"
"Mixed","Both","ball","10","F_cave.wav","None","720.035938313","108","1215698.17708","1207980.83095","1208747.96788","1209514.88901","1210281.39151","1211030.93803","1211798.04126","1212563.96407","1216447.2852","1202630.93964","1203397.56087","1204164.25259","1204931.07602","1205698.46431","1206447.83027","1207214.19086","1215708.44411","Mapping"
"Mixed","Both","ball","10","M_ball.wav","None","735.712874564","108","1215698.17708","1207980.83095","1208747.96788","1209514.88901","1210281.39151","1211030.93803","1211798.04126","1212563.96407","1216447.2852","1217214.52632","1203397.56087","1204164.25259","1204931.07602","1205698.46431","1206447.83027","1207214.19086","1216456.74095","Mapping"
"Mixed","Both","ball","10","M_dime.wav","space","410.374244879","108","1215698.17708","1207980.83095","1208747.96788","1209514.88901","1210281.39151","1211030.93803","1211798.04126","1212563.96407","1216447.2852","1217214.52632","1217980.8662","1204164.25259","1204931.07602","1205698.46431","1206447.83027","1207214.19086","1217224.54291","Mapping"
"Mixed","Both","ball","10","F_ball.wav","None","729.482725437","108","1215698.17708","1207980.83095","1208747.96788","1209514.88901","1210281.39151","1211030.93803","1211798.04126","1212563.96407","1216447.2852","1217214.52632","1217980.8662","1218747.68437","1204931.07602","1205698.46431","1206447.83027","1207214.19086","1217990.48118","Mapping"
"Mixed","Both","ball","10","M_cad.wav","space","509.298538585","108","1215698.17708","1207980.83095","1208747.96788","1209514.88901","1210281.39151","1211030.93803","1211798.04126","1212563.96407","1216447.2852","1217214.52632","1217980.8662","1218747.68437","1219514.70196","1205698.46431","1206447.83027","1207214.19086","1218757.55658","Mapping"
"Mixed","Both","ball","10","M_bluff.wav","None","722.940002161","108","1215698.17708","1207980.83095","1208747.96788","1209514.88901","1210281.39151","1211030.93803","1211798.04126","1212563.96407","1216447.2852","1217214.52632","1217980.8662","1218747.68437","1219514.70196","1220281.25733","1206447.83027","1207214.19086","1219524.8954","Mapping"
"Mixed","Both","ball","10","M_ball.wav","None","720.690457965","108","1215698.17708","1207980.83095","1208747.96788","1209514.88901","1210281.39151","1211030.93803","1211798.04126","1212563.96407","1216447.2852","1217214.52632","1217980.8662","1218747.68437","1219514.70196","1220281.25733","1221030.79272","1207214.19086","1220291.1484","Mapping"
"Mixed","Both","ball","10","M_gnash.wav","space","458.46830032","108","1215698.17708","1207980.83095","1208747.96788","1209514.88901","1210281.39151","1211030.93803","1211798.04126","1212563.96407","1216447.2852","1217214.52632","1217980.8662","1218747.68437","1219514.70196","1220281.25733","1221030.79272","1221797.66995","1221040.357","Mapping"
"Mixed","Both","ball","10","M_done.wav","None","731.972497189","108","1215698.17708","1222563.91862","1208747.96788","1209514.88901","1210281.39151","1211030.93803","1211798.04126","1212563.96407","1216447.2852","1217214.52632","1217980.8662","1218747.68437","1219514.70196","1220281.25733","1221030.79272","1221797.66995","1221807.40086","Mapping"
"Mixed","Both","ball","10","F_done.wav","None","730.498977704","108","1215698.17708","1222563.91862","1223330.90777","1209514.88901","1210281.39151","1211030.93803","1211798.04126","1212563.96407","1216447.2852","1217214.52632","1217980.8662","1218747.68437","1219514.70196","1220281.25733","1221030.79272","1221797.66995","1222572.86826","Mapping"
"Mixed","Both","ball","10","F_cave.wav","None","726.593192667","108","1215698.17708","1222563.91862","1223330.90777","1224098.08922","1210281.39151","1211030.93803","1211798.04126","1212563.96407","1216447.2852","1217214.52632","1217980.8662","1218747.68437","1219514.70196","1220281.25733","1221030.79272","1221797.66995","1223340.70825","Mapping"
"Mixed","Both","ball","10","F_done.wav","None","723.271744995","108","1215698.17708","1222563.91862","1223330.90777","1224098.08922","1224864.827","1211030.93803","1211798.04126","1212563.96407","1216447.2852","1217214.52632","1217980.8662","1218747.68437","1219514.70196","1220281.25733","1221030.79272","1221797.66995","1224108.13209","Mapping"
"Mixed","Both","ball","10","F_ball.wav","None","720.728795422","108","1215698.17708","1222563.91862","1223330.90777","1224098.08922","1224864.827","1225614.60757","1211798.04126","1212563.96407","1216447.2852","1217214.52632","1217980.8662","1218747.68437","1219514.70196","1220281.25733","1221030.79272","1221797.66995","1224874.77032","Mapping"
"Mixed","Both","ball","10","M_cave.wav","space","378.607935301","108","1215698.17708","1222563.91862","1223330.90777","1224098.08922","1224864.827","1225614.60757","1226380.73536","1212563.96407","1216447.2852","1217214.52632","1217980.8662","1218747.68437","1219514.70196","1220281.25733","1221030.79272","1221797.66995","1225624.16287","Mapping"
"Mixed","Both","ball","10","F_cling.wav","None","732.360818743","108","1215698.17708","1222563.91862","1223330.90777","1224098.08922","1224864.827","1225614.60757","1226380.73536","1227147.21529","1216447.2852","1217214.52632","1217980.8662","1218747.68437","1219514.70196","1220281.25733","1221030.79272","1221797.66995","1226390.78441","Mapping"
"Mixed","Both","tile","34","F_cad.wav","None","730.685718328","108","1230280.91261","1222563.91862","1223330.90777","1224098.08922","1224864.827","1225614.60757","1226380.73536","1227147.21529","1216447.2852","1217214.52632","1217980.8662","1218747.68437","1219514.70196","1220281.25733","1221030.79272","1221797.66995","1227156.43236","Mapping"
"Mixed","Both","tile","34","M_greet.wav","None","720.429515757","108","1230280.91261","1222563.91862","1223330.90777","1224098.08922","1224864.827","1225614.60757","1226380.73536","1227147.21529","1231030.58743","1217214.52632","1217980.8662","1218747.68437","1219514.70196","1220281.25733","1221030.79272","1221797.66995","1230290.77399","Mapping"
"Mixed","Both","tile","34","F_tile.wav","None","735.071958508","108","1230280.91261","1222563.91862","1223330.90777","1224098.08922","1224864.827","1225614.60757","1226380.73536","1227147.21529","1231030.58743","1231797.30141","1217980.8662","1218747.68437","1219514.70196","1220281.25733","1221030.79272","1221797.66995","1231040.20025","Mapping"
"Mixed","Both","tile","34","F_knife.wav","space","483.799169742","108","1230280.91261","1222563.91862","1223330.90777","1224098.08922","1224864.827","1225614.60757","1226380.73536","1227147.21529","1231030.58743","1231797.30141","1232564.19626","1218747.68437","1219514.70196","1220281.25733","1221030.79272","1221797.66995","1231806.84497","Mapping"
"Mixed","Both","tile","34","M_ball.wav","None","729.239715263","108","1230280.91261","1222563.91862","1223330.90777","1224098.08922","1224864.827","1225614.60757","1226380.73536","1227147.21529","1231030.58743","1231797.30141","1232564.19626","1233330.34043","1219514.70196","1220281.25733","1221030.79272","1221797.66995","1232573.70055","Mapping"
"Mixed","Both","tile","34","F_jaw.wav","None","727.394569636","108","1230280.91261","1222563.91862","1223330.90777","1224098.08922","1224864.827","1225614.60757","1226380.73536","1227147.21529","1231030.58743","1231797.30141","1232564.19626","1233330.34043","1234097.50241","1220281.25733","1221030.79272","1221797.66995","1233339.6079","Mapping"
"Mixed","Both","tile","34","M_cave.wav","None","724.681883963","108","1230280.91261","1222563.91862","1223330.90777","1224098.08922","1224864.827","1225614.60757","1226380.73536","1227147.21529","1231030.58743","1231797.30141","1232564.19626","1233330.34043","1234097.50241","1234863.90258","1221030.79272","1221797.66995","1234106.94827","Mapping"
"Mixed","Both","tile","34","M_cad.wav","None","722.207261686","108","1230280.91261","1222563.91862","1223330.90777","1224098.08922","1224864.827","1225614.60757","1226380.73536","1227147.21529","1231030.58743","1231797.30141","1232564.19626","1233330.34043","1234097.50241","1234863.90258","1235631.02343","1221797.66995","1234873.5225","Mapping"
"Mixed","Both","tile","34","F_knife.wav","None","719.2157018","108","1230280.91261","1222563.91862","1223330.90777","1224098.08922","1224864.827","1225614.60757","1226380.73536","1227147.21529","1231030.58743","1231797.30141","1232564.19626","1233330.34043","1234097.50241","1234863.90258","1235631.02343","1236380.5347","1235640.69035","Mapping"
"Mixed","Both","tile","34","M_tile.wav","None","733.937911224","108","1230280.91261","1237146.96672","1223330.90777","1224098.08922","1224864.827","1225614.60757","1226380.73536","1227147.21529","1231030.58743","1231797.30141","1232564.19626","1233330.34043","1234097.50241","1234863.90258","1235631.02343","1236380.5347","1236390.16174","Mapping"
"Mixed","Both","tile","34","M_bluff.wav","space","382.476619561","108","1230280.91261","1237146.96672","1237914.34202","1224098.08922","1224864.827","1225614.60757","1226380.73536","1227147.21529","1231030.58743","1231797.30141","1232564.19626","1233330.34043","1234097.50241","1234863.90258","1235631.02343","1236380.5347","1237156.05455","Mapping"
"Mixed","Both","tile","34","F_tile.wav","None","727.425177756","108","1230280.91261","1237146.96672","1237914.34202","1238680.574","1224864.827","1225614.60757","1226380.73536","1227147.21529","1231030.58743","1231797.30141","1232564.19626","1233330.34043","1234097.50241","1234863.90258","1235631.02343","1236380.5347","1237924.34254","Mapping"
"Mixed","Both","tile","34","F_priest.wav","space","576.286477415","108","1230280.91261","1237146.96672","1237914.34202","1238680.574","1239447.79842","1225614.60757","1226380.73536","1227147.21529","1231030.58743","1231797.30141","1232564.19626","1233330.34043","1234097.50241","1234863.90258","1235631.02343","1236380.5347","1238690.20784","Mapping"
"Mixed","Both","tile","34","M_tile.wav","None","721.738864289","108","1230280.91261","1237146.96672","1237914.34202","1238680.574","1239447.79842","1240214.40358","1226380.73536","1227147.21529","1231030.58743","1231797.30141","1232564.19626","1233330.34043","1234097.50241","1234863.90258","1235631.02343","1236380.5347","1239457.90282","Mapping"
"Mixed","Both","tile","34","F_jolt.wav","space","521.890235483","108","1230280.91261","1237146.96672","1237914.34202","1238680.574","1239447.79842","1240214.40358","1240963.98812","1227147.21529","1231030.58743","1231797.30141","1232564.19626","1233330.34043","1234097.50241","1234863.90258","1235631.02343","1236380.5347","1240224.58496","Mapping"
"Mixed","Both","tile","34","M_greet.wav","None","733.868038078","108","1230280.91261","1237146.96672","1237914.34202","1238680.574","1239447.79842","1240214.40358","1240963.98812","1241730.44982","1231030.58743","1231797.30141","1232564.19626","1233330.34043","1234097.50241","1234863.90258","1235631.02343","1236380.5347","1240973.5221","Mapping"
"Mixed","Both","done","38","F_reek.wav","None","731.592523312","108","1244863.65833","1237146.96672","1237914.34202","1238680.574","1239447.79842","1240214.40358","1240963.98812","1241730.44982","1231030.58743","1231797.30141","1232564.19626","1233330.34043","1234097.50241","1234863.90258","1235631.02343","1236380.5347","1241740.04563","Mapping"
"Mixed","Both","done","38","M_done.wav","None","720.99468438","108","1244863.65833","1237146.96672","1237914.34202","1238680.574","1239447.79842","1240214.40358","1240963.98812","1241730.44982","1245613.62718","1231797.30141","1232564.19626","1233330.34043","1234097.50241","1234863.90258","1235631.02343","1236380.5347","1244872.85128","Mapping"
"Mixed","Both","done","38","F_cad.wav","space","539.025541744","108","1244863.65833","1237146.96672","1237914.34202","1238680.574","1239447.79842","1240214.40358","1240963.98812","1241730.44982","1245613.62718","1246380.37857","1232564.19626","1233330.34043","1234097.50241","1234863.90258","1235631.02343","1236380.5347","1245623.35593","Mapping"
"Mixed","Both","done","38","F_ball.wav","None","731.483385171","108","1244863.65833","1237146.96672","1237914.34202","1238680.574","1239447.79842","1240214.40358","1240963.98812","1241730.44982","1245613.62718","1246380.37857","1247146.93704","1233330.34043","1234097.50241","1234863.90258","1235631.02343","1236380.5347","1246390.25016","Mapping"
"Mixed","Both","done","38","M_done.wav","None","729.33648646","108","1244863.65833","1237146.96672","1237914.34202","1238680.574","1239447.79842","1240214.40358","1240963.98812","1241730.44982","1245613.62718","1246380.37857","1247146.93704","1247913.8863","1234097.50241","1234863.90258","1235631.02343","1236380.5347","1247156.65219","Mapping"
"Mixed","Both","done","38","F_reek.wav","space","454.593123432","108","1244863.65833","1237146.96672","1237914.34202","1238680.574","1239447.79842","1240214.40358","1240963.98812","1241730.44982","1245613.62718","1246380.37857","1247146.93704","1247913.8863","1248680.64975","1234863.90258","1235631.02343","1236380.5347","1247923.76191","Mapping"
"Mixed","Both","done","38","F_greet.wav","None","722.988233174","108","1244863.65833","1237146.96672","1237914.34202","1238680.574","1239447.79842","1240214.40358","1240963.98812","1241730.44982","1245613.62718","1246380.37857","1247146.93704","1247913.8863","1248680.64975","1249447.58509","1235631.02343","1236380.5347","1248690.69416","Mapping"
"Mixed","Both","done","38","F_done.wav","None","719.665239623","108","1244863.65833","1237146.96672","1237914.34202","1238680.574","1239447.79842","1240214.40358","1240963.98812","1241730.44982","1245613.62718","1246380.37857","1247146.93704","1247913.8863","1248680.64975","1249447.58509","1250196.80513","1236380.5347","1249458.21601","Mapping"
"Mixed","Both","done","38","M_cave.wav","space","475.843524968","108","1244863.65833","1237146.96672","1237914.34202","1238680.574","1239447.79842","1240214.40358","1240963.98812","1241730.44982","1245613.62718","1246380.37857","1247146.93704","1247913.8863","1248680.64975","1249447.58509","1250196.80513","1250963.83477","1250206.46957","Mapping"
"Mixed","Both","done","38","F_greet.wav","None","732.00032278","108","1244863.65833","1251730.20093","1237914.34202","1238680.574","1239447.79842","1240214.40358","1240963.98812","1241730.44982","1245613.62718","1246380.37857","1247146.93704","1247913.8863","1248680.64975","1249447.58509","1250196.80513","1250963.83477","1250973.69678","Mapping"
"Mixed","Both","done","38","M_cad.wav","None","730.843705853","108","1244863.65833","1251730.20093","1252497.15607","1238680.574","1239447.79842","1240214.40358","1240963.98812","1241730.44982","1245613.62718","1246380.37857","1247146.93704","1247913.8863","1248680.64975","1249447.58509","1250196.80513","1250963.83477","1251739.78036","Mapping"
"Mixed","Both","done","38","M_gnash.wav","None","728.522742633","108","1244863.65833","1251730.20093","1252497.15607","1253263.76833","1239447.79842","1240214.40358","1240963.98812","1241730.44982","1245613.62718","1246380.37857","1247146.93704","1247913.8863","1248680.64975","1249447.58509","1250196.80513","1250963.83477","1252506.87771","Mapping"
"Mixed","Both","done","38","M_bluff.wav","None","726.337815606","108","1244863.65833","1251730.20093","1252497.15607","1253263.76833","1254030.58341","1240214.40358","1240963.98812","1241730.44982","1245613.62718","1246380.37857","1247146.93704","1247913.8863","1248680.64975","1249447.58509","1250196.80513","1250963.83477","1253273.16411","Mapping"
"Mixed","Both","done","38","M_cad.wav","None","723.185794835","108","1244863.65833","1251730.20093","1252497.15607","1253263.76833","1254030.58341","1254797.46898","1240963.98812","1241730.44982","1245613.62718","1246380.37857","1247146.93704","1247913.8863","1248680.64975","1249447.58509","1250196.80513","1250963.83477","1254040.54219","Mapping"
"Mixed","Both","done","38","F_done.wav","None","726.816415729","108","1244863.65833","1251730.20093","1252497.15607","1253263.76833","1254030.58341","1254797.46898","1255563.51732","1241730.44982","1245613.62718","1246380.37857","1247146.93704","1247913.8863","1248680.64975","1249447.58509","1250196.80513","1250963.83477","1254801.83791","Mapping"
"Mixed","Both","done","38","M_tile.wav","space","525.344318448","108","1244863.65833","1251730.20093","1252497.15607","1253263.76833","1254030.58341","1254797.46898","1255563.51732","1256313.73412","1245613.62718","1246380.37857","1247146.93704","1247913.8863","1248680.64975","1249447.58509","1250196.80513","1250963.83477","1255572.8729","Mapping"
"Mixed","Both","done","40","F_gnash.wav","None","733.169306652","108","1259447.22243","1251730.20093","1252497.15607","1253263.76833","1254030.58341","1254797.46898","1255563.51732","1256313.73412","1245613.62718","1246380.37857","1247146.93704","1247913.8863","1248680.64975","1249447.58509","1250196.80513","1250963.83477","1256323.34941","Mapping"
"Mixed","Both","done","40","M_cave.wav","None","718.662900093","108","1259447.22243","1251730.20093","1252497.15607","1253263.76833","1254030.58341","1254797.46898","1255563.51732","1256313.73412","1260196.90592","1246380.37857","1247146.93704","1247913.8863","1248680.64975","1249447.58509","1250196.80513","1250963.83477","1259458.03855","Mapping"
"Mixed","Both","done","40","F_romp.wav","None","734.299334697","108","1259447.22243","1251730.20093","1252497.15607","1253263.76833","1254030.58341","1254797.46898","1255563.51732","1256313.73412","1260196.90592","1260963.66195","1247146.93704","1247913.8863","1248680.64975","1249447.58509","1250196.80513","1250963.83477","1260206.70547","Mapping"
"Mixed","Both","done","40","M_bluff.wav","None","731.844808673","108","1259447.22243","1251730.20093","1252497.15607","1253263.76833","1254030.58341","1254797.46898","1255563.51732","1256313.73412","1260196.90592","1260963.66195","1261730.20774","1247913.8863","1248680.64975","1249447.58509","1250196.80513","1250963.83477","1260973.6974","Mapping"
"Mixed","Both","done","40","F_done.wav","None","729.93659167","108","1259447.22243","1251730.20093","1252497.15607","1253263.76833","1254030.58341","1254797.46898","1255563.51732","1256313.73412","1260196.90592","1260963.66195","1261730.20774","1262497.03364","1248680.64975","1249447.58509","1250196.80513","1250963.83477","1261740.00018","Mapping"
"Mixed","Both","done","40","F_romp.wav","space","399.034699425","108","1259447.22243","1251730.20093","1252497.15607","1253263.76833","1254030.58341","1254797.46898","1255563.51732","1256313.73412","1260196.90592","1260963.66195","1261730.20774","1262497.03364","1263263.62426","1249447.58509","1250196.80513","1250963.83477","1262507.06476","Mapping"
"Mixed","Both","done","40","M_done.wav","None","724.286451441","108","1259447.22243","1251730.20093","1252497.15607","1253263.76833","1254030.58341","1254797.46898","1255563.51732","1256313.73412","1260196.90592","1260963.66195","1261730.20774","1262497.03364","1263263.62426","1264030.0436","1250196.80513","1250963.83477","1263273.44298","Mapping"
"Mixed","Both","done","40","F_priest.wav","space","466.631709482","108","1259447.22243","1251730.20093","1252497.15607","1253263.76833","1254030.58341","1254797.46898","1255563.51732","1256313.73412","1260196.90592","1260963.66195","1261730.20774","1262497.03364","1263263.62426","1264030.0436","1264797.42415","1250963.83477","1264039.44772","Mapping"
"Mixed","Both","done","40","F_greet.wav","None","718.038370251","108","1259447.22243","1251730.20093","1252497.15607","1253263.76833","1254030.58341","1254797.46898","1255563.51732","1256313.73412","1260196.90592","1260963.66195","1261730.20774","1262497.03364","1263263.62426","1264030.0436","1264797.42415","1265547.04426","1264807.52175","Mapping"
"Mixed","Both","done","40","M_bluff.wav","None","732.896615868","108","1259447.22243","1266313.58541","1252497.15607","1253263.76833","1254030.58341","1254797.46898","1255563.51732","1256313.73412","1260196.90592","1260963.66195","1261730.20774","1262497.03364","1263263.62426","1264030.0436","1264797.42415","1265547.04426","1265557.12269","Mapping"
"Mixed","Both","done","40","M_done.wav","None","730.811242654","108","1259447.22243","1266313.58541","1267079.97476","1253263.76833","1254030.58341","1254797.46898","1255563.51732","1256313.73412","1260196.90592","1260963.66195","1261730.20774","1262497.03364","1263263.62426","1264030.0436","1264797.42415","1265547.04426","1266323.39888","Mapping"
"Mixed","Both","done","40","F_dime.wav","space","512.72634184","108","1259447.22243","1266313.58541","1267079.97476","1267846.94535","1254030.58341","1254797.46898","1255563.51732","1256313.73412","1260196.90592","1260963.66195","1261730.20774","1262497.03364","1263263.62426","1264030.0436","1264797.42415","1265547.04426","1267089.31334","Mapping"
"Mixed","Both","done","40","M_knife.wav","None","725.280134095","108","1259447.22243","1266313.58541","1267079.97476","1267846.94535","1268614.05198","1254797.46898","1255563.51732","1256313.73412","1260196.90592","1260963.66195","1261730.20774","1262497.03364","1263263.62426","1264030.0436","1264797.42415","1265547.04426","1267856.62711","Mapping"
"Mixed","Both","done","40","M_dime.wav","None","721.718768036","108","1259447.22243","1266313.58541","1267079.97476","1267846.94535","1268614.05198","1269380.3359","1255563.51732","1256313.73412","1260196.90592","1260963.66195","1261730.20774","1262497.03364","1263263.62426","1264030.0436","1264797.42415","1265547.04426","1268624.49122","Mapping"
"Mixed","Both","done","40","F_done.wav","None","720.035010774","108","1259447.22243","1266313.58541","1267079.97476","1267846.94535","1268614.05198","1269380.3359","1270129.5649","1256313.73412","1260196.90592","1260963.66195","1261730.20774","1262497.03364","1263263.62426","1264030.0436","1264797.42415","1265547.04426","1269390.31354","Mapping"
"Mixed","Both","done","40","M_romp.wav","space","414.926511061","108","1259447.22243","1266313.58541","1267079.97476","1267846.94535","1268614.05198","1269380.3359","1270129.5649","1270896.90156","1260196.90592","1260963.66195","1261730.20774","1262497.03364","1263263.62426","1264030.0436","1264797.42415","1265547.04426","1270139.05126","Mapping"
"Mixed","Both","done","44","M_gnash.wav","None","731.178231246","108","1274030.23621","1266313.58541","1267079.97476","1267846.94535","1268614.05198","1269380.3359","1270129.5649","1270896.90156","1260196.90592","1260963.66195","1261730.20774","1262497.03364","1263263.62426","1264030.0436","1264797.42415","1265547.04426","1270906.97226","Mapping"
"Mixed","Both","done","44","M_done.wav","None","720.024189708","108","1274030.23621","1266313.58541","1267079.97476","1267846.94535","1268614.05198","1269380.3359","1270129.5649","1270896.90156","1274779.53168","1260963.66195","1261730.20774","1262497.03364","1263263.62426","1264030.0436","1264797.42415","1265547.04426","1274040.24198","Mapping"
"Mixed","Both","done","44","F_dime.wav","space","516.780530015","108","1274030.23621","1266313.58541","1267079.97476","1267846.94535","1268614.05198","1269380.3359","1270129.5649","1270896.90156","1274779.53168","1275546.7762","1261730.20774","1262497.03364","1263263.62426","1264030.0436","1264797.42415","1265547.04426","1274789.08699","Mapping"
"Mixed","Both","done","44","F_jolt.wav","None","731.499771355","108","1274030.23621","1266313.58541","1267079.97476","1267846.94535","1268614.05198","1269380.3359","1270129.5649","1270896.90156","1274779.53168","1275546.7762","1276313.39187","1262497.03364","1263263.62426","1264030.0436","1264797.42415","1265547.04426","1275556.70097","Mapping"
"Mixed","Both","done","44","F_done.wav","None","729.24713543","108","1274030.23621","1266313.58541","1267079.97476","1267846.94535","1268614.05198","1269380.3359","1270129.5649","1270896.90156","1274779.53168","1275546.7762","1276313.39187","1277079.81399","1263263.62426","1264030.0436","1264797.42415","1265547.04426","1276323.25758","Mapping"
"Mixed","Both","done","44","F_reek.wav","space","456.495466118","108","1274030.23621","1266313.58541","1267079.97476","1267846.94535","1268614.05198","1269380.3359","1270129.5649","1270896.90156","1274779.53168","1275546.7762","1276313.39187","1277079.81399","1277846.54405","1264030.0436","1264797.42415","1265547.04426","1277089.3322","Mapping"
"Mixed","Both","done","44","M_cling.wav","None","724.4045556","108","1274030.23621","1266313.58541","1267079.97476","1267846.94535","1268614.05198","1269380.3359","1270129.5649","1270896.90156","1274779.53168","1275546.7762","1276313.39187","1277079.81399","1277846.54405","1278613.09107","1264797.42415","1265547.04426","1277856.24559","Mapping"
"Mixed","Both","done","44","F_bluff.wav","None","722.512724809","108","1274030.23621","1266313.58541","1267079.97476","1267846.94535","1268614.05198","1269380.3359","1270129.5649","1270896.90156","1274779.53168","1275546.7762","1276313.39187","1277079.81399","1277846.54405","1278613.09107","1279379.68077","1265547.04426","1278622.42687","Mapping"
"Mixed","Both","done","44","M_romp.wav","None","720.287605276","108","1274030.23621","1266313.58541","1267079.97476","1267846.94535","1268614.05198","1269380.3359","1270129.5649","1270896.90156","1274779.53168","1275546.7762","1276313.39187","1277079.81399","1277846.54405","1278613.09107","1279379.68077","1280129.41217","1279388.84775","Mapping"
"Mixed","Both","done","44","F_tile.wav","None","734.852445545","108","1274030.23621","1280896.32742","1267079.97476","1267846.94535","1268614.05198","1269380.3359","1270129.5649","1270896.90156","1274779.53168","1275546.7762","1276313.39187","1277079.81399","1277846.54405","1278613.09107","1279379.68077","1280129.41217","1280138.81691","Mapping"
"Mixed","Both","done","44","M_dime.wav","None","732.205613778","108","1274030.23621","1280896.32742","1281663.29678","1267846.94535","1268614.05198","1269380.3359","1270129.5649","1270896.90156","1274779.53168","1275546.7762","1276313.39187","1277079.81399","1277846.54405","1278613.09107","1279379.68077","1280129.41217","1280905.67899","Mapping"
"Mixed","Both","done","44","F_done.wav","None","728.324871801","108","1274030.23621","1280896.32742","1281663.29678","1282429.59771","1268614.05198","1269380.3359","1270129.5649","1270896.90156","1274779.53168","1275546.7762","1276313.39187","1277079.81399","1277846.54405","1278613.09107","1279379.68077","1280129.41217","1281673.78394","Mapping"
"Mixed","Both","done","44","F_knife.wav","space","434.50243058","108","1274030.23621","1280896.32742","1281663.29678","1282429.59771","1283196.93653","1269380.3359","1270129.5649","1270896.90156","1274779.53168","1275546.7762","1276313.39187","1277079.81399","1277846.54405","1278613.09107","1279379.68077","1280129.41217","1282439.19382","Mapping"
"Mixed","Both","done","44","M_done.wav","None","723.530832154","108","1274030.23621","1280896.32742","1281663.29678","1282429.59771","1283196.93653","1283963.97205","1270129.5649","1270896.90156","1274779.53168","1275546.7762","1276313.39187","1277079.81399","1277846.54405","1278613.09107","1279379.68077","1280129.41217","1283206.78246","Mapping"
"Mixed","Both","done","44","M_cling.wav","space","611.634867673","108","1274030.23621","1280896.32742","1281663.29678","1282429.59771","1283196.93653","1283963.97205","1284712.82076","1270896.90156","1274779.53168","1275546.7762","1276313.39187","1277079.81399","1277846.54405","1278613.09107","1279379.68077","1280129.41217","1283974.06284","Mapping"
"Mixed","Both","done","44","M_depth.wav","None","736.316071474","108","1274030.23621","1280896.32742","1281663.29678","1282429.59771","1283196.93653","1283963.97205","1284712.82076","1285479.64079","1274779.53168","1275546.7762","1276313.39187","1277079.81399","1277846.54405","1278613.09107","1279379.68077","1280129.41217","1284721.84769","Mapping"
"Mixed","Both","tile","36","M_cling.wav","None","733.165287413","108","1288613.56936","1280896.32742","1281663.29678","1282429.59771","1283196.93653","1283963.97205","1284712.82076","1285479.64079","1274779.53168","1275546.7762","1276313.39187","1277079.81399","1277846.54405","1278613.09107","1279379.68077","1280129.41217","1285489.55412","Mapping"
"Mixed","Both","tile","36","F_jaw.wav","None","719.641124131","108","1288613.56936","1280896.32742","1281663.29678","1282429.59771","1283196.93653","1283963.97205","1284712.82076","1285479.64079","1289362.83237","1275546.7762","1276313.39187","1277079.81399","1277846.54405","1278613.09107","1279379.68077","1280129.41217","1288623.66387","Mapping"
"Mixed","Both","tile","36","M_gnash.wav","None","734.629222512","108","1288613.56936","1280896.32742","1281663.29678","1282429.59771","1283196.93653","1283963.97205","1284712.82076","1285479.64079","1289362.83237","1290129.61313","1276313.39187","1277079.81399","1277846.54405","1278613.09107","1279379.68077","1280129.41217","1289373.07312","Mapping"
"Mixed","Both","tile","36","M_jaw.wav","None","732.682977192","108","1288613.56936","1280896.32742","1281663.29678","1282429.59771","1283196.93653","1283963.97205","1284712.82076","1285479.64079","1289362.83237","1290129.61313","1290896.58837","1277079.81399","1277846.54405","1278613.09107","1279379.68077","1280129.41217","1290139.50575","Mapping"
"Mixed","Both","tile","36","F_jolt.wav","None","730.147756956","108","1288613.56936","1280896.32742","1281663.29678","1282429.59771","1283196.93653","1283963.97205","1284712.82076","1285479.64079","1289362.83237","1290129.61313","1290896.58837","1291663.10262","1277846.54405","1278613.09107","1279379.68077","1280129.41217","1290906.48809","Mapping"
"Mixed","Both","tile","36","M_priest.wav","None","728.275404079","108","1288613.56936","1280896.32742","1281663.29678","1282429.59771","1283196.93653","1283963.97205","1284712.82076","1285479.64079","1289362.83237","1290129.61313","1290896.58837","1291663.10262","1292429.57792","1278613.09107","1279379.68077","1280129.41217","1291672.9368","Mapping"
"Mixed","Both","tile","36","F_tile.wav","None","726.23795268","108","1288613.56936","1280896.32742","1281663.29678","1282429.59771","1283196.93653","1283963.97205","1284712.82076","1285479.64079","1289362.83237","1290129.61313","1290896.58837","1291663.10262","1292429.57792","1293196.8008","1279379.68077","1280129.41217","1292439.37562","Mapping"
"Mixed","Both","tile","36","F_cling.wav","space","475.189623656","108","1288613.56936","1280896.32742","1281663.29678","1282429.59771","1283196.93653","1283963.97205","1284712.82076","1285479.64079","1289362.83237","1290129.61313","1290896.58837","1291663.10262","1292429.57792","1293196.8008","1293962.79472","1280129.41217","1293206.32797","Mapping"
"Mixed","Both","tile","36","F_jolt.wav","None","721.945082798","108","1288613.56936","1280896.32742","1281663.29678","1282429.59771","1283196.93653","1283963.97205","1284712.82076","1285479.64079","1289362.83237","1290129.61313","1290896.58837","1291663.10262","1292429.57792","1293196.8008","1293962.79472","1294729.91526","1293972.08073","Mapping"
"Mixed","Both","tile","36","M_tile.wav","None","718.745449354","108","1288613.56936","1295479.46611","1281663.29678","1282429.59771","1283196.93653","1283963.97205","1284712.82076","1285479.64079","1289362.83237","1290129.61313","1290896.58837","1291663.10262","1292429.57792","1293196.8008","1293962.79472","1294729.91526","1294739.78283","Mapping"
"Mixed","Both","tile","36","F_done.wav","space","552.359254303","108","1288613.56936","1295479.46611","1296246.50194","1282429.59771","1283196.93653","1283963.97205","1284712.82076","1285479.64079","1289362.83237","1290129.61313","1290896.58837","1291663.10262","1292429.57792","1293196.8008","1293962.79472","1294729.91526","1295489.10427","Mapping"
"Mixed","Both","tile","36","M_priest.wav","None","730.411172553","108","1288613.56936","1295479.46611","1296246.50194","1297013.03845","1283196.93653","1283963.97205","1284712.82076","1285479.64079","1289362.83237","1290129.61313","1290896.58837","1291663.10262","1292429.57792","1293196.8008","1293962.79472","1294729.91526","1296256.33241","Mapping"
"Mixed","Both","tile","36","F_tile.wav","None","728.547476494","108","1288613.56936","1295479.46611","1296246.50194","1297013.03845","1297779.44295","1283963.97205","1284712.82076","1285479.64079","1289362.83237","1290129.61313","1290896.58837","1291663.10262","1292429.57792","1293196.8008","1293962.79472","1294729.91526","1297022.83275","Mapping"
"Mixed","Both","tile","36","M_jolt.wav","space","516.664590046","108","1288613.56936","1295479.46611","1296246.50194","1297013.03845","1297779.44295","1298546.79352","1284712.82076","1285479.64079","1289362.83237","1290129.61313","1290896.58837","1291663.10262","1292429.57792","1293196.8008","1293962.79472","1294729.91526","1297788.81863","Mapping"
"Mixed","Both","tile","36","M_tile.wav","None","722.766555991","108","1288613.56936","1295479.46611","1296246.50194","1297013.03845","1297779.44295","1298546.79352","1299313.30901","1285479.64079","1289362.83237","1290129.61313","1290896.58837","1291663.10262","1292429.57792","1293196.8008","1293962.79472","1294729.91526","1298556.88957","Mapping"
"Mixed","Both","tile","36","F_park.wav","space","597.552028456","108","1288613.56936","1295479.46611","1296246.50194","1297013.03845","1297779.44295","1298546.79352","1299313.30901","1300062.76742","1289362.83237","1290129.61313","1290896.58837","1291663.10262","1292429.57792","1293196.8008","1293962.79472","1294729.91526","1299323.86264","Mapping"
"Mixed","Both","ball","5","M_tile.wav","None","735.493361572","108","1303196.51698","1295479.46611","1296246.50194","1297013.03845","1297779.44295","1298546.79352","1299313.30901","1300062.76742","1289362.83237","1290129.61313","1290896.58837","1291663.10262","1292429.57792","1293196.8008","1293962.79472","1294729.91526","1300072.37806","Mapping"
"Mixed","Both","ball","5","M_ball.wav","space","594.539444777","108","1303196.51698","1295479.46611","1296246.50194","1297013.03845","1297779.44295","1298546.79352","1299313.30901","1300062.76742","1303946.07525","1290129.61313","1290896.58837","1291663.10262","1292429.57792","1293196.8008","1293962.79472","1294729.91526","1303206.77442","Mapping"
"Mixed","Both","ball","5","M_knife.wav","None","734.605416161","108","1303196.51698","1295479.46611","1296246.50194","1297013.03845","1297779.44295","1298546.79352","1299313.30901","1300062.76742","1303946.07525","1304712.91166","1290896.58837","1291663.10262","1292429.57792","1293196.8008","1293962.79472","1294729.91526","1303955.68528","Mapping"
"Mixed","Both","ball","5","F_ball.wav","space","0.0343182182405","108","1303196.51698","1295479.46611","1296246.50194","1297013.03845","1297779.44295","1298546.79352","1299313.30901","1300062.76742","1303946.07525","1304712.91166","1305479.52609","1291663.10262","1292429.57792","1293196.8008","1293962.79472","1294729.91526","1304723.21949","Mapping"
"Mixed","Both","ball","5","F_done.wav","None","728.901170631","108","1303196.51698","1295479.46611","1296246.50194","1297013.03845","1297779.44295","1298546.79352","1299313.30901","1300062.76742","1303946.07525","1304712.91166","1305479.52609","1306246.27748","1292429.57792","1293196.8008","1293962.79472","1294729.91526","1305489.4354","Mapping"
"Mixed","Both","ball","5","F_jaw.wav","space","9.39206345356","108","1303196.51698","1295479.46611","1296246.50194","1297013.03845","1297779.44295","1298546.79352","1299313.30901","1300062.76742","1303946.07525","1304712.91166","1305479.52609","1306246.27748","1307012.35796","1293196.8008","1293962.79472","1294729.91526","1306255.92214","Mapping"
"Mixed","Both","ball","5","M_jaw.wav","None","724.978999409","108","1303196.51698","1295479.46611","1296246.50194","1297013.03845","1297779.44295","1298546.79352","1299313.30901","1300062.76742","1303946.07525","1304712.91166","1305479.52609","1306246.27748","1307012.35796","1307779.21045","1293962.79472","1294729.91526","1307021.35119","Mapping"
"Mixed","Both","ball","5","M_ball.wav","None","725.546950562","108","1303196.51698","1295479.46611","1296246.50194","1297013.03845","1297779.44295","1298546.79352","1299313.30901","1300062.76742","1303946.07525","1304712.91166","1305479.52609","1306246.27748","1307012.35796","1307779.21045","1308545.85054","1294729.91526","1307785.27087","Mapping"
"Mixed","Both","ball","5","M_cave.wav","space","468.980498292","108","1303196.51698","1295479.46611","1296246.50194","1297013.03845","1297779.44295","1298546.79352","1299313.30901","1300062.76742","1303946.07525","1304712.91166","1305479.52609","1306246.27748","1307012.35796","1307779.21045","1308545.85054","1309295.56896","1308556.27153","Mapping"
"Mixed","Both","ball","5","F_gnash.wav","None","734.365806944","108","1303196.51698","1310062.80575","1296246.50194","1297013.03845","1297779.44295","1298546.79352","1299313.30901","1300062.76742","1303946.07525","1304712.91166","1305479.52609","1306246.27748","1307012.35796","1307779.21045","1308545.85054","1309295.56896","1309304.46604","Mapping"
"Mixed","Both","ball","5","M_depth.wav","None","728.726487752","108","1303196.51698","1310062.80575","1310829.24179","1297013.03845","1297779.44295","1298546.79352","1299313.30901","1300062.76742","1303946.07525","1304712.91166","1305479.52609","1306246.27748","1307012.35796","1307779.21045","1308545.85054","1309295.56896","1310074.50425","Mapping"
"Mixed","Both","ball","5","F_ball.wav","None","728.634972475","108","1303196.51698","1310062.80575","1310829.24179","1311596.11592","1297779.44295","1298546.79352","1299313.30901","1300062.76742","1303946.07525","1304712.91166","1305479.52609","1306246.27748","1307012.35796","1307779.21045","1308545.85054","1309295.56896","1310839.0466","Mapping"
"Mixed","Both","ball","5","F_jolt.wav","space","419.437657227","108","1303196.51698","1310062.80575","1310829.24179","1311596.11592","1312363.13011","1298546.79352","1299313.30901","1300062.76742","1303946.07525","1304712.91166","1305479.52609","1306246.27748","1307012.35796","1307779.21045","1308545.85054","1309295.56896","1311605.8085","Mapping"
"Mixed","Both","ball","5","M_lash.wav","None","721.963014832","108","1303196.51698","1310062.80575","1310829.24179","1311596.11592","1312363.13011","1313129.58005","1299313.30901","1300062.76742","1303946.07525","1304712.91166","1305479.52609","1306246.27748","1307012.35796","1307779.21045","1308545.85054","1309295.56896","1312373.64354","Mapping"
"Mixed","Both","ball","5","F_bluff.wav","None","721.177714906","108","1303196.51698","1310062.80575","1310829.24179","1311596.11592","1312363.13011","1313129.58005","1313895.97589","1300062.76742","1303946.07525","1304712.91166","1305479.52609","1306246.27748","1307012.35796","1307779.21045","1308545.85054","1309295.56896","1313139.7163","Mapping"
"Mixed","Both","ball","5","F_knife.wav","None","718.593026977","108","1303196.51698","1310062.80575","1310829.24179","1311596.11592","1312363.13011","1313129.58005","1313895.97589","1314645.58301","1303946.07525","1304712.91166","1305479.52609","1306246.27748","1307012.35796","1307779.21045","1308545.85054","1309295.56896","1313906.96917","Mapping"
"Mixed","Both","cave","22","M_depth.wav","None","735.315896163","108","1317779.50664","1310062.80575","1310829.24179","1311596.11592","1312363.13011","1313129.58005","1313895.97589","1314645.58301","1303946.07525","1304712.91166","1305479.52609","1306246.27748","1307012.35796","1307779.21045","1308545.85054","1309295.56896","1314654.91633","Mapping"
"Mixed","Both","cave","22","M_done.wav","None","713.201046368","108","1317779.50664","1310062.80575","1310829.24179","1311596.11592","1312363.13011","1313129.58005","1313895.97589","1314645.58301","1318528.60919","1304712.91166","1305479.52609","1306246.27748","1307012.35796","1307779.21045","1308545.85054","1309295.56896","1317796.3405","Mapping"
"Mixed","Both","cave","22","F_lash.wav","None","735.862205212","108","1317779.50664","1310062.80575","1310829.24179","1311596.11592","1312363.13011","1313129.58005","1313895.97589","1314645.58301","1318528.60919","1319295.7186","1305479.52609","1306246.27748","1307012.35796","1307779.21045","1308545.85054","1309295.56896","1318538.27394","Mapping"
"Mixed","Both","cave","22","M_park.wav","None","733.475388115","108","1317779.50664","1310062.80575","1310829.24179","1311596.11592","1312363.13011","1313129.58005","1313895.97589","1314645.58301","1318528.60919","1319295.7186","1320062.55594","1306246.27748","1307012.35796","1307779.21045","1308545.85054","1309295.56896","1319305.15828","Mapping"
"Mixed","Both","cave","22","M_cave.wav","None","730.980051216","108","1317779.50664","1310062.80575","1310829.24179","1311596.11592","1312363.13011","1313129.58005","1313895.97589","1314645.58301","1318528.60919","1319295.7186","1320062.55594","1320829.06803","1307012.35796","1307779.21045","1308545.85054","1309295.56896","1320072.17679","Mapping"
"Mixed","Both","cave","22","M_gnash.wav","space","562.361625663","108","1317779.50664","1310062.80575","1310829.24179","1311596.11592","1312363.13011","1313129.58005","1313895.97589","1314645.58301","1318528.60919","1319295.7186","1320062.55594","1320829.06803","1321595.9131","1307779.21045","1308545.85054","1309295.56896","1320838.66693","Mapping"
"Mixed","Both","cave","22","F_dime.wav","None","725.123692479","108","1317779.50664","1310062.80575","1310829.24179","1311596.11592","1312363.13011","1313129.58005","1313895.97589","1314645.58301","1318528.60919","1319295.7186","1320062.55594","1320829.06803","1321595.9131","1322363.06023","1308545.85054","1309295.56896","1321605.94515","Mapping"
"Mixed","Both","cave","22","M_gnash.wav","None","722.593419021","108","1317779.50664","1310062.80575","1310829.24179","1311596.11592","1312363.13011","1313129.58005","1313895.97589","1314645.58301","1318528.60919","1319295.7186","1320062.55594","1320829.06803","1321595.9131","1322363.06023","1323129.46411","1309295.56896","1322373.00881","Mapping"
"Mixed","Both","cave","22","M_dime.wav","None","721.321480465","108","1317779.50664","1310062.80575","1310829.24179","1311596.11592","1312363.13011","1313129.58005","1313895.97589","1314645.58301","1318528.60919","1319295.7186","1320062.55594","1320829.06803","1321595.9131","1322363.06023","1323129.46411","1323878.98003","1323138.89451","Mapping"
"Mixed","Both","cave","22","M_cave.wav","None","736.38687213","108","1317779.50664","1324645.32362","1310829.24179","1311596.11592","1312363.13011","1313129.58005","1313895.97589","1314645.58301","1318528.60919","1319295.7186","1320062.55594","1320829.06803","1321595.9131","1322363.06023","1323129.46411","1323878.98003","1323888.28985","Mapping"
"Mixed","Both","cave","22","F_cad.wav","space","474.442661187","108","1317779.50664","1324645.32362","1325412.13993","1311596.11592","1312363.13011","1313129.58005","1313895.97589","1314645.58301","1318528.60919","1319295.7186","1320062.55594","1320829.06803","1321595.9131","1322363.06023","1323129.46411","1323878.98003","1324654.49709","Mapping"
"Mixed","Both","cave","22","F_cave.wav","None","731.159062503","108","1317779.50664","1324645.32362","1325412.13993","1326178.92471","1312363.13011","1313129.58005","1313895.97589","1314645.58301","1318528.60919","1319295.7186","1320062.55594","1320829.06803","1321595.9131","1322363.06023","1323129.46411","1323878.98003","1325421.51716","Mapping"
"Mixed","Both","cave","22","F_greet.wav","space","652.391933923","108","1317779.50664","1324645.32362","1325412.13993","1326178.92471","1326945.52368","1313129.58005","1313895.97589","1314645.58301","1318528.60919","1319295.7186","1320062.55594","1320829.06803","1321595.9131","1322363.06023","1323129.46411","1323878.98003","1326188.55886","Mapping"
"Mixed","Both","cave","22","F_cave.wav","None","725.210260949","108","1317779.50664","1324645.32362","1325412.13993","1326178.92471","1326945.52368","1327712.77562","1313895.97589","1314645.58301","1318528.60919","1319295.7186","1320062.55594","1320829.06803","1321595.9131","1322363.06023","1323129.46411","1323878.98003","1326955.34828","Mapping"
"Mixed","Both","cave","22","F_jolt.wav","space","549.830217555","108","1317779.50664","1324645.32362","1325412.13993","1326178.92471","1326945.52368","1327712.77562","1328478.8425","1314645.58301","1318528.60919","1319295.7186","1320062.55594","1320829.06803","1321595.9131","1322363.06023","1323129.46411","1323878.98003","1327723.07078","Mapping"
"Mixed","Both","cave","22","F_cling.wav","None","720.780736534","108","1317779.50664","1324645.32362","1325412.13993","1326178.92471","1326945.52368","1327712.77562","1328478.8425","1329228.51331","1318528.60919","1319295.7186","1320062.55594","1320829.06803","1321595.9131","1322363.06023","1323129.46411","1323878.98003","1328487.80173","Mapping"
"Mixed","Both","tile","31","F_done.wav","None","735.584567679","108","1332362.7761","1324645.32362","1325412.13993","1326178.92471","1326945.52368","1327712.77562","1328478.8425","1329228.51331","1318528.60919","1319295.7186","1320062.55594","1320829.06803","1321595.9131","1322363.06023","1323129.46411","1323878.98003","1329237.63763","Mapping"
"Mixed","Both","tile","31","F_depth.wav","None","719.293304282","108","1332362.7761","1324645.32362","1325412.13993","1326178.92471","1326945.52368","1327712.77562","1328478.8425","1329228.51331","1333111.95842","1319295.7186","1320062.55594","1320829.06803","1321595.9131","1322363.06023","1323129.46411","1323878.98003","1332373.25058","Mapping"
"Mixed","Both","tile","31","F_tile.wav","None","736.325655831","108","1332362.7761","1324645.32362","1325412.13993","1326178.92471","1326945.52368","1327712.77562","1328478.8425","1329228.51331","1333111.95842","1333878.48195","1320062.55594","1320829.06803","1321595.9131","1322363.06023","1323129.46411","1323878.98003","1333120.95505","Mapping"
"Mixed","Both","tile","31","M_cling.wav","space","528.871057148","108","1332362.7761","1324645.32362","1325412.13993","1326178.92471","1326945.52368","1327712.77562","1328478.8425","1329228.51331","1333111.95842","1333878.48195","1334645.56261","1320829.06803","1321595.9131","1322363.06023","1323129.46411","1323878.98003","1333887.91853","Mapping"
"Mixed","Both","tile","31","F_jaw.wav","None","730.582145305","108","1332362.7761","1324645.32362","1325412.13993","1326178.92471","1326945.52368","1327712.77562","1328478.8425","1329228.51331","1333111.95842","1333878.48195","1334645.56261","1335411.85951","1321595.9131","1322363.06023","1323129.46411","1323878.98003","1334655.41008","Mapping"
"Mixed","Both","tile","31","M_reek.wav","None","729.475305241","108","1332362.7761","1324645.32362","1325412.13993","1326178.92471","1326945.52368","1327712.77562","1328478.8425","1329228.51331","1333111.95842","1333878.48195","1334645.56261","1335411.85951","1336178.81125","1322363.06023","1323129.46411","1323878.98003","1335421.30692","Mapping"
"Mixed","Both","tile","31","M_tile.wav","None","727.459805144","108","1332362.7761","1324645.32362","1325412.13993","1326178.92471","1326945.52368","1327712.77562","1328478.8425","1329228.51331","1333111.95842","1333878.48195","1334645.56261","1335411.85951","1336178.81125","1336945.15917","1323129.46411","1323878.98003","1336188.46611","Mapping"
"Mixed","Both","tile","31","M_romp.wav","space","582.272070576","108","1332362.7761","1324645.32362","1325412.13993","1326178.92471","1326945.52368","1327712.77562","1328478.8425","1329228.51331","1333111.95842","1333878.48195","1334645.56261","1335411.85951","1336178.81125","1336945.15917","1337712.70668","1323878.98003","1336954.48105","Mapping"
"Mixed","Both","tile","31","M_lash.wav","None","721.298292483","108","1332362.7761","1324645.32362","1325412.13993","1326178.92471","1326945.52368","1327712.77562","1328478.8425","1329228.51331","1333111.95842","1333878.48195","1334645.56261","1335411.85951","1336178.81125","1336945.15917","1337712.70668","1338479.25401","1337723.09521","Mapping"
"Mixed","Both","tile","31","F_tile.wav","None","719.8179712","108","1332362.7761","1339245.28318","1325412.13993","1326178.92471","1326945.52368","1327712.77562","1328478.8425","1329228.51331","1333111.95842","1333878.48195","1334645.56261","1335411.85951","1336178.81125","1336945.15917","1337712.70668","1338479.25401","1338489.41376","Mapping"
"Mixed","Both","tile","31","F_cling.wav","space","538.38060642","108","1332362.7761","1339245.28318","1339995.43753","1326178.92471","1326945.52368","1327712.77562","1328478.8425","1329228.51331","1333111.95842","1333878.48195","1334645.56261","1335411.85951","1336178.81125","1336945.15917","1337712.70668","1338479.25401","1339254.31443","Mapping"
"Mixed","Both","tile","31","F_reek.wav","None","733.766938443","108","1332362.7761","1339245.28318","1339995.43753","1340762.20747","1326945.52368","1327712.77562","1328478.8425","1329228.51331","1333111.95842","1333878.48195","1334645.56261","1335411.85951","1336178.81125","1336945.15917","1337712.70668","1338479.25401","1340005.30541","Mapping"
"Mixed","Both","tile","31","M_depth.wav","None","731.814818864","108","1332362.7761","1339245.28318","1339995.43753","1340762.20747","1341528.68153","1327712.77562","1328478.8425","1329228.51331","1333111.95842","1333878.48195","1334645.56261","1335411.85951","1336178.81125","1336945.15917","1337712.70668","1338479.25401","1340772.07937","Mapping"
"Mixed","Both","tile","31","F_gnash.wav","None","730.303889432","108","1332362.7761","1339245.28318","1339995.43753","1340762.20747","1341528.68153","1342295.55319","1328478.8425","1329228.51331","1333111.95842","1333878.48195","1334645.56261","1335411.85951","1336178.81125","1336945.15917","1337712.70668","1338479.25401","1341538.687","Mapping"
"Mixed","Both","tile","31","M_tile.wav","None","728.733907919","108","1332362.7761","1339245.28318","1339995.43753","1340762.20747","1341528.68153","1342295.55319","1343062.14072","1329228.51331","1333111.95842","1333878.48195","1334645.56261","1335411.85951","1336178.81125","1336945.15917","1337712.70668","1338479.25401","1342305.24268","Mapping"
"Mixed","Both","tile","31","M_priest.wav","space","464.623629552","108","1332362.7761","1339245.28318","1339995.43753","1340762.20747","1341528.68153","1342295.55319","1343062.14072","1343828.66023","1333111.95842","1333878.48195","1334645.56261","1335411.85951","1336178.81125","1336945.15917","1337712.70668","1338479.25401","1343072.02808","Mapping"
"Mixed","Both","cave","21","M_ball.wav","None","725.254781893","108","1346945.79545","1339245.28318","1339995.43753","1340762.20747","1341528.68153","1342295.55319","1343062.14072","1343828.66023","1333111.95842","1333878.48195","1334645.56261","1335411.85951","1336178.81125","1336945.15917","1337712.70668","1338479.25401","1343837.64604","Mapping"
"Mixed","Both","cave","21","M_cling.wav","None","720.094372024","108","1346945.79545","1339245.28318","1339995.43753","1340762.20747","1341528.68153","1342295.55319","1343062.14072","1343828.66023","1347695.64619","1333878.48195","1334645.56261","1335411.85951","1336178.81125","1336945.15917","1337712.70668","1338479.25401","1346956.10112","Mapping"
"Mixed","Both","cave","21","F_cave.wav","None","735.536645836","108","1346945.79545","1339245.28318","1339995.43753","1340762.20747","1341528.68153","1342295.55319","1343062.14072","1343828.66023","1347695.64619","1348461.69236","1334645.56261","1335411.85951","1336178.81125","1336945.15917","1337712.70668","1338479.25401","1347705.35609","Mapping"
"Mixed","Both","cave","21","M_jaw.wav","space","457.476781856","108","1346945.79545","1339245.28318","1339995.43753","1340762.20747","1341528.68153","1342295.55319","1343062.14072","1343828.66023","1347695.64619","1348461.69236","1349228.58071","1335411.85951","1336178.81125","1336945.15917","1337712.70668","1338479.25401","1348471.06371","Mapping"
"Mixed","Both","cave","21","M_cave.wav","None","730.244528182","108","1346945.79545","1339245.28318","1339995.43753","1340762.20747","1341528.68153","1342295.55319","1343062.14072","1343828.66023","1347695.64619","1348461.69236","1349228.58071","1349994.86185","1336178.81125","1336945.15917","1337712.70668","1338479.25401","1349238.54753","Mapping"
"Mixed","Both","cave","21","M_jolt.wav","space","524.490691285","108","1346945.79545","1339245.28318","1339995.43753","1340762.20747","1341528.68153","1342295.55319","1343062.14072","1343828.66023","1347695.64619","1348461.69236","1349228.58071","1349994.86185","1350761.66735","1336945.15917","1337712.70668","1338479.25401","1350004.031","Mapping"
"Mixed","Both","cave","21","F_bluff.wav","None","726.406761241","108","1346945.79545","1339245.28318","1339995.43753","1340762.20747","1341528.68153","1342295.55319","1343062.14072","1343828.66023","1347695.64619","1348461.69236","1349228.58071","1349994.86185","1350761.66735","1351528.93011","1337712.70668","1338479.25401","1350770.67604","Mapping"
"Mixed","Both","cave","21","F_greet.wav","None","722.612278565","108","1346945.79545","1339245.28318","1339995.43753","1340762.20747","1341528.68153","1342295.55319","1343062.14072","1343828.66023","1347695.64619","1348461.69236","1349228.58071","1349994.86185","1350761.66735","1351528.93011","1352295.65182","1338479.25401","1351539.07594","Mapping"
"Mixed","Both","cave","21","F_cave.wav","None","720.936869009","108","1346945.79545","1339245.28318","1339995.43753","1340762.20747","1341528.68153","1342295.55319","1343062.14072","1343828.66023","1347695.64619","1348461.69236","1349228.58071","1349994.86185","1350761.66735","1351528.93011","1352295.65182","1353062.3287","1352305.58184","Mapping"
"Mixed","Both","cave","21","F_lash.wav","space","543.99828348","108","1346945.79545","1353812.01218","1339995.43753","1340762.20747","1341528.68153","1342295.55319","1343062.14072","1343828.66023","1347695.64619","1348461.69236","1349228.58071","1349994.86185","1350761.66735","1351528.93011","1352295.65182","1353062.3287","1353072.46401","Mapping"
"Mixed","Both","cave","21","F_reek.wav","None","733.237015578","108","1346945.79545","1353812.01218","1354578.5048","1340762.20747","1341528.68153","1342295.55319","1343062.14072","1343828.66023","1347695.64619","1348461.69236","1349228.58071","1349994.86185","1350761.66735","1351528.93011","1352295.65182","1353062.3287","1353821.57398","Mapping"
"Mixed","Both","cave","21","F_romp.wav","None","731.769988721","108","1346945.79545","1353812.01218","1354578.5048","1355345.19744","1341528.68153","1342295.55319","1343062.14072","1343828.66023","1347695.64619","1348461.69236","1349228.58071","1349994.86185","1350761.66735","1351528.93011","1352295.65182","1353062.3287","1354588.29322","Mapping"
"Mixed","Both","cave","21","F_jolt.wav","None","729.798082059","108","1346945.79545","1353812.01218","1354578.5048","1355345.19744","1356111.91853","1342295.55319","1343062.14072","1343828.66023","1347695.64619","1348461.69236","1349228.58071","1349994.86185","1350761.66735","1351528.93011","1352295.65182","1353062.3287","1355355.00132","Mapping"
"Mixed","Both","cave","21","M_bluff.wav","None","727.64252653","108","1346945.79545","1353812.01218","1354578.5048","1355345.19744","1356111.91853","1356878.45165","1343062.14072","1343828.66023","1347695.64619","1348461.69236","1349228.58071","1349994.86185","1350761.66735","1351528.93011","1352295.65182","1353062.3287","1356121.99449","Mapping"
"Mixed","Both","cave","21","M_cave.wav","None","725.646195177","108","1346945.79545","1353812.01218","1354578.5048","1355345.19744","1356111.91853","1356878.45165","1357645.76728","1343828.66023","1347695.64619","1348461.69236","1349228.58071","1349994.86185","1350761.66735","1351528.93011","1352295.65182","1353062.3287","1356888.52327","Mapping"
"Mixed","Both","cave","21","M_dime.wav","space","552.639983594","108","1346945.79545","1353812.01218","1354578.5048","1355345.19744","1356111.91853","1356878.45165","1357645.76728","1358412.2333","1347695.64619","1348461.69236","1349228.58071","1349994.86185","1350761.66735","1351528.93011","1352295.65182","1353062.3287","1357655.73348","Mapping"
"Mixed","Both","tile","26","M_greet.wav","None","720.042121771","108","1361528.82344","1353812.01218","1354578.5048","1355345.19744","1356111.91853","1356878.45165","1357645.76728","1358412.2333","1347695.64619","1348461.69236","1349228.58071","1349994.86185","1350761.66735","1351528.93011","1352295.65182","1353062.3287","1358422.34821","Mapping"
"Mixed","Both","tile","26","M_romp.wav","None","720.16269929","108","1361528.82344","1353812.01218","1354578.5048","1355345.19744","1356111.91853","1356878.45165","1357645.76728","1358412.2333","1362278.51466","1348461.69236","1349228.58071","1349994.86185","1350761.66735","1351528.93011","1352295.65182","1353062.3287","1361538.70771","Mapping"
"Mixed","Both","tile","26","M_park.wav","None","735.655677534","108","1361528.82344","1353812.01218","1354578.5048","1355345.19744","1356111.91853","1356878.45165","1357645.76728","1358412.2333","1362278.51466","1363045.04932","1349228.58071","1349994.86185","1350761.66735","1351528.93011","1352295.65182","1353062.3287","1362288.20136","Mapping"
"Mixed","Both","tile","26","F_romp.wav","None","734.186177287","108","1361528.82344","1353812.01218","1354578.5048","1355345.19744","1356111.91853","1356878.45165","1357645.76728","1358412.2333","1362278.51466","1363045.04932","1363811.30078","1349994.86185","1350761.66735","1351528.93011","1352295.65182","1353062.3287","1363054.79384","Mapping"
"Mixed","Both","tile","26","M_tile.wav","None","733.648215915","108","1361528.82344","1353812.01218","1354578.5048","1355345.19744","1356111.91853","1356878.45165","1357645.76728","1358412.2333","1362278.51466","1363045.04932","1363811.30078","1364578.21077","1350761.66735","1351528.93011","1352295.65182","1353062.3287","1363820.40469","Mapping"
"Mixed","Both","tile","26","M_depth.wav","space","492.60318579","108","1361528.82344","1353812.01218","1354578.5048","1355345.19744","1356111.91853","1356878.45165","1357645.76728","1358412.2333","1362278.51466","1363045.04932","1363811.30078","1364578.21077","1365345.01534","1351528.93011","1352295.65182","1353062.3287","1364587.64705","Mapping"
"Mixed","Both","tile","26","F_greet.wav","None","728.443285101","108","1361528.82344","1353812.01218","1354578.5048","1355345.19744","1356111.91853","1356878.45165","1357645.76728","1358412.2333","1362278.51466","1363045.04932","1363811.30078","1364578.21077","1365345.01534","1366112.08363","1352295.65182","1353062.3287","1365355.09129","Mapping"
"Mixed","Both","tile","26","M_tile.wav","None","690.601722163","108","1361528.82344","1353812.01218","1354578.5048","1355345.19744","1356111.91853","1356878.45165","1357645.76728","1358412.2333","1362278.51466","1363045.04932","1363811.30078","1364578.21077","1365345.01534","1366112.08363","1366878.1703","1353062.3287","1366157.86569","Mapping"
"Mixed","Both","tile","26","F_dime.wav","space","536.486920581","108","1361528.82344","1353812.01218","1354578.5048","1355345.19744","1356111.91853","1356878.45165","1357645.76728","1358412.2333","1362278.51466","1363045.04932","1363811.30078","1364578.21077","1365345.01534","1366112.08363","1366878.1703","1367644.83172","1366887.73055","Mapping"
"Mixed","Both","tile","26","F_tile.wav","None","722.939692991","108","1361528.82344","1368412.14735","1354578.5048","1355345.19744","1356111.91853","1356878.45165","1357645.76728","1358412.2333","1362278.51466","1363045.04932","1363811.30078","1364578.21077","1365345.01534","1366112.08363","1366878.1703","1367644.83172","1367653.9749","Mapping"
"Mixed","Both","tile","26","F_ball.wav","space","545.966480073","108","1361528.82344","1368412.14735","1369161.2666","1355345.19744","1356111.91853","1356878.45165","1357645.76728","1358412.2333","1362278.51466","1363045.04932","1363811.30078","1364578.21077","1365345.01534","1366112.08363","1366878.1703","1367644.83172","1368422.2196","Mapping"
"Mixed","Both","tile","26","F_tile.wav","None","735.562925547","108","1361528.82344","1368412.14735","1369161.2666","1369928.11445","1356111.91853","1356878.45165","1357645.76728","1358412.2333","1362278.51466","1363045.04932","1363811.30078","1364578.21077","1365345.01534","1366112.08363","1366878.1703","1367644.83172","1369169.9927","Mapping"
"Mixed","Both","tile","26","M_done.wav","space","478.647725889","108","1361528.82344","1368412.14735","1369161.2666","1369928.11445","1370694.39682","1356878.45165","1357645.76728","1358412.2333","1362278.51466","1363045.04932","1363811.30078","1364578.21077","1365345.01534","1366112.08363","1366878.1703","1367644.83172","1369937.50095","Mapping"
"Mixed","Both","tile","26","F_lash.wav","None","734.730322118","108","1361528.82344","1368412.14735","1369161.2666","1369928.11445","1370694.39682","1371461.20572","1357645.76728","1358412.2333","1362278.51466","1363045.04932","1363811.30078","1364578.21077","1365345.01534","1366112.08363","1366878.1703","1367644.83172","1370703.28246","Mapping"
"Mixed","Both","tile","26","F_dime.wav","None","733.115201321","108","1361528.82344","1368412.14735","1369161.2666","1369928.11445","1370694.39682","1371461.20572","1372228.0746","1358412.2333","1362278.51466","1363045.04932","1363811.30078","1364578.21077","1365345.01534","1366112.08363","1366878.1703","1367644.83172","1371469.93986","Mapping"
"Mixed","Both","tile","26","M_dime.wav","None","730.53793353","108","1361528.82344","1368412.14735","1369161.2666","1369928.11445","1370694.39682","1371461.20572","1372228.0746","1372995.02448","1362278.51466","1363045.04932","1363811.30078","1364578.21077","1365345.01534","1366112.08363","1366878.1703","1367644.83172","1372237.4917","Mapping"
"Mixed","Both","cave","19","F_depth.wav","None","728.693406214","108","1376128.2738","1368412.14735","1369161.2666","1369928.11445","1370694.39682","1371461.20572","1372228.0746","1372995.02448","1362278.51466","1363045.04932","1363811.30078","1364578.21077","1365345.01534","1366112.08363","1366878.1703","1367644.83172","1373004.32842","Mapping"
"Mixed","Both","cave","19","F_lash.wav","None","720.755075163","108","1376128.2738","1368412.14735","1369161.2666","1369928.11445","1370694.39682","1371461.20572","1372228.0746","1372995.02448","1376895.06631","1363045.04932","1363811.30078","1364578.21077","1365345.01534","1366112.08363","1366878.1703","1367644.83172","1376138.12313","Mapping"
"Mixed","Both","cave","19","M_cave.wav","None","718.788424419","108","1376128.2738","1368412.14735","1369161.2666","1369928.11445","1370694.39682","1371461.20572","1372228.0746","1372995.02448","1376895.06631","1377644.69816","1363811.30078","1364578.21077","1365345.01534","1366112.08363","1366878.1703","1367644.83172","1376905.00468","Mapping"
"Mixed","Both","cave","19","F_cad.wav","space","617.954367888","108","1376128.2738","1368412.14735","1369161.2666","1369928.11445","1370694.39682","1371461.20572","1372228.0746","1372995.02448","1376895.06631","1377644.69816","1378411.49283","1364578.21077","1365345.01534","1366112.08363","1366878.1703","1367644.83172","1377654.0423","Mapping"
"Mixed","Both","cave","19","F_cave.wav","None","731.278403371","108","1376128.2738","1368412.14735","1369161.2666","1369928.11445","1370694.39682","1371461.20572","1372228.0746","1372995.02448","1376895.06631","1377644.69816","1378411.49283","1379177.62742","1365345.01534","1366112.08363","1366878.1703","1367644.83172","1378421.08431","Mapping"
"Mixed","Both","cave","19","F_depth.wav","space","541.382987372","108","1376128.2738","1368412.14735","1369161.2666","1369928.11445","1370694.39682","1371461.20572","1372228.0746","1372995.02448","1376895.06631","1377644.69816","1378411.49283","1379177.62742","1379944.82402","1366112.08363","1366878.1703","1367644.83172","1379186.62004","Mapping"
"Mixed","Both","cave","19","M_gnash.wav","None","727.24214723","108","1376128.2738","1368412.14735","1369161.2666","1369928.11445","1370694.39682","1371461.20572","1372228.0746","1372995.02448","1376895.06631","1377644.69816","1378411.49283","1379177.62742","1379944.82402","1380711.43876","1366878.1703","1367644.83172","1379954.00214","Mapping"
"Mixed","Both","cave","19","F_cad.wav","None","725.287863432","108","1376128.2738","1368412.14735","1369161.2666","1369928.11445","1370694.39682","1371461.20572","1372228.0746","1372995.02448","1376895.06631","1377644.69816","1378411.49283","1379177.62742","1379944.82402","1380711.43876","1381478.96092","1367644.83172","1380720.88647","Mapping"
"Mixed","Both","cave","19","F_cave.wav","None","721.404957207","108","1376128.2738","1368412.14735","1369161.2666","1369928.11445","1370694.39682","1371461.20572","1372228.0746","1372995.02448","1376895.06631","1377644.69816","1378411.49283","1379177.62742","1379944.82402","1380711.43876","1381478.96092","1382245.21578","1381489.55814","Mapping"
"Mixed","Both","cave","19","M_tile.wav","space","464.907141373","108","1376128.2738","1382994.3681","1369161.2666","1369928.11445","1370694.39682","1371461.20572","1372228.0746","1372995.02448","1376895.06631","1377644.69816","1378411.49283","1379177.62742","1379944.82402","1380711.43876","1381478.96092","1382245.21578","1382255.01842","Mapping"
"Mixed","Both","cave","19","M_cave.wav","None","735.564162227","108","1376128.2738","1382994.3681","1383761.05487","1369928.11445","1370694.39682","1371461.20572","1372228.0746","1372995.02448","1376895.06631","1377644.69816","1378411.49283","1379177.62742","1379944.82402","1380711.43876","1381478.96092","1382245.21578","1383003.52365","Mapping"
"Mixed","Both","cave","19","F_tile.wav","space","638.177696062","108","1376128.2738","1382994.3681","1383761.05487","1384527.86779","1370694.39682","1371461.20572","1372228.0746","1372995.02448","1376895.06631","1377644.69816","1378411.49283","1379177.62742","1379944.82402","1380711.43876","1381478.96092","1382245.21578","1383769.74357","Mapping"
"Mixed","Both","cave","19","M_jolt.wav","None","729.682760459","108","1376128.2738","1382994.3681","1383761.05487","1384527.86779","1385294.76109","1371461.20572","1372228.0746","1372995.02448","1376895.06631","1377644.69816","1378411.49283","1379177.62742","1379944.82402","1380711.43876","1381478.96092","1382245.21578","1384537.61633","Mapping"
"Mixed","Both","cave","19","M_lash.wav","None","728.070113051","108","1376128.2738","1382994.3681","1383761.05487","1384527.86779","1385294.76109","1386061.4086","1372228.0746","1372995.02448","1376895.06631","1377644.69816","1378411.49283","1379177.62742","1379944.82402","1380711.43876","1381478.96092","1382245.21578","1385304.0839","Mapping"
"Mixed","Both","cave","19","M_done.wav","None","726.034825871","108","1376128.2738","1382994.3681","1383761.05487","1384527.86779","1385294.76109","1386061.4086","1386828.84295","1372995.02448","1376895.06631","1377644.69816","1378411.49283","1379177.62742","1379944.82402","1380711.43876","1381478.96092","1382245.21578","1386070.90887","Mapping"
"Mixed","Both","cave","19","M_jaw.wav","None","722.841375886","108","1376128.2738","1382994.3681","1383761.05487","1384527.86779","1385294.76109","1386061.4086","1386828.84295","1387595.28919","1376895.06631","1377644.69816","1378411.49283","1379177.62742","1379944.82402","1380711.43876","1381478.96092","1382245.21578","1386838.99929","Mapping"
"Mixed","Both","tile","30","M_park.wav","None","722.187474603","108","1390711.66476","1382994.3681","1383761.05487","1384527.86779","1385294.76109","1386061.4086","1386828.84295","1387595.28919","1376895.06631","1377644.69816","1378411.49283","1379177.62742","1379944.82402","1380711.43876","1381478.96092","1382245.21578","1387605.22385","Mapping"
"Mixed","Both","tile","30","F_tile.wav","None","719.983688003","108","1390711.66476","1382994.3681","1383761.05487","1384527.86779","1385294.76109","1386061.4086","1386828.84295","1387595.28919","1391461.41812","1377644.69816","1378411.49283","1379177.62742","1379944.82402","1380711.43876","1381478.96092","1382245.21578","1390721.4705","Mapping"
"Mixed","Both","tile","30","F_dime.wav","space","528.568067413","108","1390711.66476","1382994.3681","1383761.05487","1384527.86779","1385294.76109","1386061.4086","1386828.84295","1387595.28919","1391461.41812","1392227.72554","1378411.49283","1379177.62742","1379944.82402","1380711.43876","1381478.96092","1382245.21578","1391471.20778","Mapping"
"Mixed","Both","tile","30","F_cave.wav","None","732.943301031","108","1390711.66476","1382994.3681","1383761.05487","1384527.86779","1385294.76109","1386061.4086","1386828.84295","1387595.28919","1391461.41812","1392227.72554","1392994.57525","1379177.62742","1379944.82402","1380711.43876","1381478.96092","1382245.21578","1392237.22149","Mapping"
"Mixed","Both","tile","30","F_tile.wav","None","730.953771505","108","1390711.66476","1382994.3681","1383761.05487","1384527.86779","1385294.76109","1386061.4086","1386828.84295","1387595.28919","1391461.41812","1392227.72554","1392994.57525","1393761.25893","1379944.82402","1380711.43876","1381478.96092","1382245.21578","1393004.34512","Mapping"
"Mixed","Both","tile","30","M_romp.wav","space","500.961992395","108","1390711.66476","1382994.3681","1383761.05487","1384527.86779","1385294.76109","1386061.4086","1386828.84295","1387595.28919","1391461.41812","1392227.72554","1392994.57525","1393761.25893","1394527.74938","1380711.43876","1381478.96092","1382245.21578","1393770.77652","Mapping"
"Mixed","Both","tile","30","F_jolt.wav","None","726.804976322","108","1390711.66476","1382994.3681","1383761.05487","1384527.86779","1385294.76109","1386061.4086","1386828.84295","1387595.28919","1391461.41812","1392227.72554","1392994.57525","1393761.25893","1394527.74938","1395294.53323","1381478.96092","1382245.21578","1394536.9918","Mapping"
"Mixed","Both","tile","30","F_gnash.wav","None","724.285523902","108","1390711.66476","1382994.3681","1383761.05487","1384527.86779","1385294.76109","1386061.4086","1386828.84295","1387595.28919","1391461.41812","1392227.72554","1392994.57525","1393761.25893","1394527.74938","1395294.53323","1396061.66521","1382245.21578","1395304.66916","Mapping"
"Mixed","Both","tile","30","M_knife.wav","None","722.238178976","108","1390711.66476","1382994.3681","1383761.05487","1384527.86779","1385294.76109","1386061.4086","1386828.84295","1387595.28919","1391461.41812","1392227.72554","1392994.57525","1393761.25893","1394527.74938","1395294.53323","1396061.66521","1396828.05858","1396071.86515","Mapping"
"Mixed","Both","tile","30","M_bluff.wav","None","721.408358135","108","1390711.66476","1397594.27912","1383761.05487","1384527.86779","1385294.76109","1386061.4086","1386828.84295","1387595.28919","1391461.41812","1392227.72554","1392994.57525","1393761.25893","1394527.74938","1395294.53323","1396061.66521","1396828.05858","1396837.89802","Mapping"
"Mixed","Both","tile","30","M_tile.wav","None","721.590461151","108","1390711.66476","1397594.27912","1398361.42965","1384527.86779","1385294.76109","1386061.4086","1386828.84295","1387595.28919","1391461.41812","1392227.72554","1392994.57525","1393761.25893","1394527.74938","1395294.53323","1396061.66521","1396828.05858","1397603.44271","Mapping"
"Mixed","Both","tile","30","F_greet.wav","space","492.070789536","108","1390711.66476","1397594.27912","1398361.42965","1399111.14004","1385294.76109","1386061.4086","1386828.84295","1387595.28919","1391461.41812","1392227.72554","1392994.57525","1393761.25893","1394527.74938","1395294.53323","1396061.66521","1396828.05858","1398371.57826","Mapping"
"Mixed","Both","tile","30","M_bluff.wav","None","732.609084807","108","1390711.66476","1397594.27912","1398361.42965","1399111.14004","1399877.2737","1386061.4086","1386828.84295","1387595.28919","1391461.41812","1392227.72554","1392994.57525","1393761.25893","1394527.74938","1395294.53323","1396061.66521","1396828.05858","1399121.08552","Mapping"
"Mixed","Both","tile","30","M_depth.wav","None","732.358345325","108","1390711.66476","1397594.27912","1398361.42965","1399111.14004","1399877.2737","1400644.393","1386828.84295","1387595.28919","1391461.41812","1392227.72554","1392994.57525","1393761.25893","1394527.74938","1395294.53323","1396061.66521","1396828.05858","1399886.51334","Mapping"
"Mixed","Both","tile","30","M_tile.wav","None","730.325222365","108","1390711.66476","1397594.27912","1398361.42965","1399111.14004","1399877.2737","1400644.393","1401411.12554","1387595.28919","1391461.41812","1392227.72554","1392994.57525","1393761.25893","1394527.74938","1395294.53323","1396061.66521","1396828.05858","1400653.64192","Mapping"
"Mixed","Both","tile","30","F_priest.wav","space","482.958218636","108","1390711.66476","1397594.27912","1398361.42965","1399111.14004","1399877.2737","1400644.393","1401411.12554","1402177.56559","1391461.41812","1392227.72554","1392994.57525","1393761.25893","1394527.74938","1395294.53323","1396061.66521","1396828.05858","1401420.63972","Mapping"
"Mixed","Both","ball","12","M_gnash.wav","None","725.543858833","108","1405311.49695","1397594.27912","1398361.42965","1399111.14004","1399877.2737","1400644.393","1401411.12554","1402177.56559","1391461.41812","1392227.72554","1392994.57525","1393761.25893","1394527.74938","1395294.53323","1396061.66521","1396828.05858","1402187.03618","Mapping"
"Mixed","Both","ball","12","M_dime.wav","None","719.637414033","108","1405311.49695","1397594.27912","1398361.42965","1399111.14004","1399877.2737","1400644.393","1401411.12554","1402177.56559","1406061.12973","1392227.72554","1392994.57525","1393761.25893","1394527.74938","1395294.53323","1396061.66521","1396828.05858","1405321.52189","Mapping"
"Mixed","Both","ball","12","F_lash.wav","None","735.636508762","108","1405311.49695","1397594.27912","1398361.42965","1399111.14004","1399877.2737","1400644.393","1401411.12554","1402177.56559","1406061.12973","1406827.56236","1392994.57525","1393761.25893","1394527.74938","1395294.53323","1396061.66521","1396828.05858","1406070.53261","Mapping"
"Mixed","Both","ball","12","F_cling.wav","None","733.974702831","108","1405311.49695","1397594.27912","1398361.42965","1399111.14004","1399877.2737","1400644.393","1401411.12554","1402177.56559","1406061.12973","1406827.56236","1407594.37373","1393761.25893","1394527.74938","1395294.53323","1396061.66521","1396828.05858","1406837.34831","Mapping"
"Mixed","Both","ball","12","F_ball.wav","None","732.771709911","108","1405311.49695","1397594.27912","1398361.42965","1399111.14004","1399877.2737","1400644.393","1401411.12554","1402177.56559","1406061.12973","1406827.56236","1407594.37373","1408360.97764","1394527.74938","1395294.53323","1396061.66521","1396828.05858","1407603.64398","Mapping"
"Mixed","Both","ball","12","M_greet.wav","space","509.018118464","108","1405311.49695","1397594.27912","1398361.42965","1399111.14004","1399877.2737","1400644.393","1401411.12554","1402177.56559","1406061.12973","1406827.56236","1407594.37373","1408360.97764","1409127.40966","1395294.53323","1396061.66521","1396828.05858","1408370.45071","Mapping"
"Mixed","Both","ball","12","F_park.wav","None","728.939198947","108","1405311.49695","1397594.27912","1398361.42965","1399111.14004","1399877.2737","1400644.393","1401411.12554","1402177.56559","1406061.12973","1406827.56236","1407594.37373","1408360.97764","1409127.40966","1409893.82529","1396061.66521","1396828.05858","1409136.65239","Mapping"
"Mixed","Both","ball","12","M_cad.wav","None","727.978597803","108","1405311.49695","1397594.27912","1398361.42965","1399111.14004","1399877.2737","1400644.393","1401411.12554","1402177.56559","1406061.12973","1406827.56236","1407594.37373","1408360.97764","1409127.40966","1409893.82529","1410660.96252","1396828.05858","1409902.64105","Mapping"
"Mixed","Both","ball","12","M_ball.wav","None","725.111016363","108","1405311.49695","1397594.27912","1398361.42965","1399111.14004","1399877.2737","1400644.393","1401411.12554","1402177.56559","1406061.12973","1406827.56236","1407594.37373","1408360.97764","1409127.40966","1409893.82529","1410660.96252","1411427.92106","1410670.95438","Mapping"
"Mixed","Both","ball","12","F_cave.wav","space","473.925105267","108","1405311.49695","1412194.09863","1398361.42965","1399111.14004","1399877.2737","1400644.393","1401411.12554","1402177.56559","1406061.12973","1406827.56236","1407594.37373","1408360.97764","1409127.40966","1409893.82529","1410660.96252","1411427.92106","1411437.48997","Mapping"
"Mixed","Both","ball","12","M_jaw.wav","None","718.925388181","108","1405311.49695","1412194.09863","1412960.60886","1399111.14004","1399877.2737","1400644.393","1401411.12554","1402177.56559","1406061.12973","1406827.56236","1407594.37373","1408360.97764","1409127.40966","1409893.82529","1410660.96252","1411427.92106","1412205.88214","Mapping"
"Mixed","Both","ball","12","M_ball.wav","None","719.96359175","108","1405311.49695","1412194.09863","1412960.60886","1413710.62532","1399877.2737","1400644.393","1401411.12554","1402177.56559","1406061.12973","1406827.56236","1407594.37373","1408360.97764","1409127.40966","1409893.82529","1410660.96252","1411427.92106","1412969.96413","Mapping"
"Mixed","Both","ball","12","M_greet.wav","space","503.378180962","108","1405311.49695","1412194.09863","1412960.60886","1413710.62532","1414477.3863","1400644.393","1401411.12554","1402177.56559","1406061.12973","1406827.56236","1407594.37373","1408360.97764","1409127.40966","1409893.82529","1410660.96252","1411427.92106","1413719.97998","Mapping"
"Mixed","Both","ball","12","F_greet.wav","None","731.728559535","108","1405311.49695","1412194.09863","1412960.60886","1413710.62532","1414477.3863","1415243.71041","1401411.12554","1402177.56559","1406061.12973","1406827.56236","1407594.37373","1408360.97764","1409127.40966","1409893.82529","1410660.96252","1411427.92106","1414486.84205","Mapping"
"Mixed","Both","ball","12","F_ball.wav","None","731.11144983","108","1405311.49695","1412194.09863","1412960.60886","1413710.62532","1414477.3863","1415243.71041","1416010.84549","1402177.56559","1406061.12973","1406827.56236","1407594.37373","1408360.97764","1409127.40966","1409893.82529","1410660.96252","1411427.92106","1415252.64583","Mapping"
"Mixed","Both","ball","12","F_jaw.wav","space","458.930514258","108","1405311.49695","1412194.09863","1412960.60886","1413710.62532","1414477.3863","1415243.71041","1416010.84549","1416777.28987","1406061.12973","1406827.56236","1407594.37373","1408360.97764","1409127.40966","1409893.82529","1410660.96252","1411427.92106","1416020.3875","Mapping"
