"Condition","Talker","Target","Trial","current_stimulus","response_response","response_time_response","subject_nr","time_Audio1","time_Audio10","time_Audio11","time_Audio12","time_Audio13","time_Audio14","time_Audio15","time_Audio16","time_Audio2","time_Audio3","time_Audio4","time_Audio5","time_Audio6","time_Audio7","time_Audio8","time_Audio9","time_response"
"Mixed","Both","cave","24","F_ball.wav","NA","NA","132","132452.792913","NA","NA","NA","NA","NA","NA","NA","NA","NA","NA","NA","NA","NA","NA","NA","NA"
"Mixed","Both","cave","24","M_jolt.wav","None","716.0120724","132","132452.792913","NA","NA","NA","NA","NA","NA","NA","133202.26918","NA","NA","NA","NA","NA","NA","NA","132467.819168"
"Mixed","Both","cave","24","M_cave.wav","None","737.044562469","132","132452.792913","NA","NA","NA","NA","NA","NA","NA","133202.26918","133969.063266","NA","NA","NA","NA","NA","NA","133211.496034"
"Mixed","Both","cave","24","F_done.wav","space","456.435857224","132","132452.792913","NA","NA","NA","NA","NA","NA","NA","133202.26918","133969.063266","134735.928152","NA","NA","NA","NA","NA","133978.324438"
"Mixed","Both","cave","24","M_cave.wav","None","733.638751553","132","132452.792913","NA","NA","NA","NA","NA","NA","NA","133202.26918","133969.063266","134735.928152","135502.782834","NA","NA","NA","NA","134745.637619"
"Mixed","Both","cave","24","F_knife.wav","space","569.696692342","132","132452.792913","NA","NA","NA","NA","NA","NA","NA","133202.26918","133969.063266","134735.928152","135502.782834","136269.230032","NA","NA","NA","135513.08127"
"Mixed","Both","cave","24","F_cave.wav","None","729.461253621","132","132452.792913","NA","NA","NA","NA","NA","NA","NA","133202.26918","133969.063266","134735.928152","135502.782834","136269.230032","137035.820375","NA","NA","136279.029468"
"Mixed","Both","cave","24","M_lash.wav","space","533.100920322","132","132452.792913","NA","NA","NA","NA","NA","NA","NA","133202.26918","133969.063266","134735.928152","135502.782834","136269.230032","137035.820375","137802.604258","NA","137045.626922"
"Mixed","Both","cave","24","F_bluff.wav","None","725.557061553","132","132452.792913","NA","NA","NA","NA","NA","NA","NA","133202.26918","133969.063266","134735.928152","135502.782834","136269.230032","137035.820375","137802.604258","138569.590647","137811.840387"
"Mixed","Both","cave","24","F_cave.wav","None","722.687041387","132","132452.792913","139336.36742","NA","NA","NA","NA","NA","NA","133202.26918","133969.063266","134735.928152","135502.782834","136269.230032","137035.820375","137802.604258","138569.590647","138579.374006"
"Mixed","Both","cave","24","F_cad.wav","space","559.811307699","132","132452.792913","139336.36742","140086.363709","NA","NA","NA","NA","NA","133202.26918","133969.063266","134735.928152","135502.782834","136269.230032","137035.820375","137802.604258","138569.590647","139346.831879"
"Mixed","Both","cave","24","M_done.wav","None","735.416476033","132","132452.792913","139336.36742","140086.363709","140852.711045","NA","NA","NA","NA","133202.26918","133969.063266","134735.928152","135502.782834","136269.230032","137035.820375","137802.604258","138569.590647","140095.917664"
"Mixed","Both","cave","24","M_ball.wav","None","733.819615678","132","132452.792913","139336.36742","140086.363709","140852.711045","141619.010769","NA","NA","NA","133202.26918","133969.063266","134735.928152","135502.782834","136269.230032","137035.820375","137802.604258","138569.590647","140862.488839"
"Mixed","Both","cave","24","M_lash.wav","None","733.04761952","132","132452.792913","139336.36742","140086.363709","140852.711045","141619.010769","142385.641304","NA","NA","133202.26918","133969.063266","134735.928152","135502.782834","136269.230032","137035.820375","137802.604258","138569.590647","141628.030788"
"Mixed","Both","cave","24","M_dime.wav","None","731.136333838","132","132452.792913","139336.36742","140086.363709","140852.711045","141619.010769","142385.641304","143152.729101","NA","133202.26918","133969.063266","134735.928152","135502.782834","136269.230032","137035.820375","137802.604258","138569.590647","142394.996463"
"Mixed","Both","cave","24","F_greet.wav","None","728.291047155","132","132452.792913","139336.36742","140086.363709","140852.711045","141619.010769","142385.641304","143152.729101","143919.394572","133202.26918","133969.063266","134735.928152","135502.782834","136269.230032","137035.820375","137802.604258","138569.590647","143162.43795"
"Mixed","Both","cave","19","F_bluff.wav","None","726.958217623","132","147069.678451","139336.36742","140086.363709","140852.711045","141619.010769","142385.641304","143152.729101","143919.394572","133202.26918","133969.063266","134735.928152","135502.782834","136269.230032","137035.820375","137802.604258","138569.590647","143928.841554"
"Mixed","Both","cave","19","F_priest.wav","None","721.43397748","132","147069.678451","139336.36742","140086.363709","140852.711045","141619.010769","142385.641304","143152.729101","143919.394572","147836.359072","133969.063266","134735.928152","135502.782834","136269.230032","137035.820375","137802.604258","138569.590647","147079.642984"
"Mixed","Both","cave","19","F_cave.wav","None","718.833553023","132","147069.678451","139336.36742","140086.363709","140852.711045","141619.010769","142385.641304","143152.729101","143919.394572","147836.359072","148585.494325","134735.928152","135502.782834","136269.230032","137035.820375","137802.604258","138569.590647","147846.623808"
"Mixed","Both","cave","19","F_tile.wav","space","647.337803559","132","147069.678451","139336.36742","140086.363709","140852.711045","141619.010769","142385.641304","143152.729101","143919.394572","147836.359072","148585.494325","149352.967965","135502.782834","136269.230032","137035.820375","137802.604258","138569.590647","148595.063429"
"Mixed","Both","cave","19","F_cave.wav","None","731.695003051","132","147069.678451","139336.36742","140086.363709","140852.711045","141619.010769","142385.641304","143152.729101","143919.394572","147836.359072","148585.494325","149352.967965","150118.571439","136269.230032","137035.820375","137802.604258","138569.590647","149362.500278"
"Mixed","Both","cave","19","M_done.wav","space","554.858103569","132","147069.678451","139336.36742","140086.363709","140852.711045","141619.010769","142385.641304","143152.729101","143919.394572","147836.359072","148585.494325","149352.967965","150118.571439","150885.379438","137035.820375","137802.604258","138569.590647","150127.488196"
"Mixed","Both","cave","19","M_reek.wav","None","729.89316337","132","147069.678451","139336.36742","140086.363709","140852.711045","141619.010769","142385.641304","143152.729101","143919.394572","147836.359072","148585.494325","149352.967965","150118.571439","150885.379438","151652.050474","137802.604258","138569.590647","150894.454489"
"Mixed","Both","cave","19","M_cave.wav","None","727.833167184","132","147069.678451","139336.36742","140086.363709","140852.711045","141619.010769","142385.641304","143152.729101","143919.394572","147836.359072","148585.494325","149352.967965","150118.571439","150885.379438","151652.050474","152419.415286","138569.590647","151661.39543"
"Mixed","Both","cave","19","M_priest.wav","space","709.950495802","132","147069.678451","139336.36742","140086.363709","140852.711045","141619.010769","142385.641304","143152.729101","143919.394572","147836.359072","148585.494325","149352.967965","150118.571439","150885.379438","151652.050474","152419.415286","153185.451289","152428.337917"
"Mixed","Both","cave","19","F_bluff.wav","None","723.813964054","132","147069.678451","153952.63771","140086.363709","140852.711045","141619.010769","142385.641304","143152.729101","143919.394572","147836.359072","148585.494325","149352.967965","150118.571439","150885.379438","151652.050474","152419.415286","153185.451289","153194.626202"
"Mixed","Both","cave","19","M_ball.wav","None","720.513270819","132","147069.678451","153952.63771","154719.410772","140852.711045","141619.010769","142385.641304","143152.729101","143919.394572","147836.359072","148585.494325","149352.967965","150118.571439","150885.379438","151652.050474","152419.415286","153185.451289","153962.974482"
"Mixed","Both","cave","19","F_done.wav","None","718.915173784","132","147069.678451","153952.63771","154719.410772","155468.713286","141619.010769","142385.641304","143152.729101","143919.394572","147836.359072","148585.494325","149352.967965","150118.571439","150885.379438","151652.050474","152419.415286","153185.451289","154729.512576"
"Mixed","Both","cave","19","M_cave.wav","None","734.932007443","132","147069.678451","153952.63771","154719.410772","155468.713286","156235.662884","142385.641304","143152.729101","143919.394572","147836.359072","148585.494325","149352.967965","150118.571439","150885.379438","151652.050474","152419.415286","153185.451289","155478.319491"
"Mixed","Both","cave","19","M_knife.wav","space","564.800684631","132","147069.678451","153952.63771","154719.410772","155468.713286","156235.662884","157002.2894","143152.729101","143919.394572","147836.359072","148585.494325","149352.967965","150118.571439","150885.379438","151652.050474","152419.415286","153185.451289","156245.38781"
"Mixed","Both","cave","19","M_tile.wav","None","730.331565661","132","147069.678451","153952.63771","154719.410772","155468.713286","156235.662884","157002.2894","157768.488334","143919.394572","147836.359072","148585.494325","149352.967965","150118.571439","150885.379438","151652.050474","152419.415286","153185.451289","157012.04246"
"Mixed","Both","cave","19","F_knife.wav","None","735.126475047","132","147069.678451","153952.63771","154719.410772","155468.713286","156235.662884","157002.2894","157768.488334","158535.563455","147836.359072","148585.494325","149352.967965","150118.571439","150885.379438","151652.050474","152419.415286","153185.451289","157772.08614"
"Mixed","Both","done","39","F_romp.wav","None","727.455980435","132","161669.248644","153952.63771","154719.410772","155468.713286","156235.662884","157002.2894","157768.488334","158535.563455","147836.359072","148585.494325","149352.967965","150118.571439","150885.379438","151652.050474","152419.415286","153185.451289","158544.647163"
"Mixed","Both","done","39","F_jaw.wav","None","720.645904483","132","161669.248644","153952.63771","154719.410772","155468.713286","156235.662884","157002.2894","157768.488334","158535.563455","162435.058334","148585.494325","149352.967965","150118.571439","150885.379438","151652.050474","152419.415286","153185.451289","161679.423411"
"Mixed","Both","done","39","M_done.wav","None","720.377854595","132","161669.248644","153952.63771","154719.410772","155468.713286","156235.662884","157002.2894","157768.488334","158535.563455","162435.058334","163185.137791","149352.967965","150118.571439","150885.379438","151652.050474","152419.415286","153185.451289","162444.53005"
"Mixed","Both","done","39","M_cave.wav","space","471.171492594","132","161669.248644","153952.63771","154719.410772","155468.713286","156235.662884","157002.2894","157768.488334","158535.563455","162435.058334","163185.137791","163951.698453","150118.571439","150885.379438","151652.050474","152419.415286","153185.451289","163194.788207"
"Mixed","Both","done","39","M_dime.wav","None","733.577226812","132","161669.248644","153952.63771","154719.410772","155468.713286","156235.662884","157002.2894","157768.488334","158535.563455","162435.058334","163185.137791","163951.698453","164718.632902","150885.379438","151652.050474","152419.415286","153185.451289","163960.756191"
"Mixed","Both","done","39","F_jolt.wav","None","730.948358832","132","161669.248644","153952.63771","154719.410772","155468.713286","156235.662884","157002.2894","157768.488334","158535.563455","162435.058334","163185.137791","163951.698453","164718.632902","165485.390815","151652.050474","152419.415286","153185.451289","164728.344534"
"Mixed","Both","done","39","F_tile.wav","None","728.998117731","132","161669.248644","153952.63771","154719.410772","155468.713286","156235.662884","157002.2894","157768.488334","158535.563455","162435.058334","163185.137791","163951.698453","164718.632902","165485.390815","166251.953024","152419.415286","153185.451289","165495.06751"
"Mixed","Both","done","39","F_done.wav","None","727.22874087","132","161669.248644","153952.63771","154719.410772","155468.713286","156235.662884","157002.2894","157768.488334","158535.563455","162435.058334","163185.137791","163951.698453","164718.632902","165485.390815","166251.953024","167018.134335","153185.451289","166262.007215"
"Mixed","Both","done","39","M_bluff.wav","space","542.694449075","132","161669.248644","153952.63771","154719.410772","155468.713286","156235.662884","157002.2894","157768.488334","158535.563455","162435.058334","163185.137791","163951.698453","164718.632902","165485.390815","166251.953024","167018.134335","167785.85191","167027.142606"
"Mixed","Both","done","39","F_romp.wav","None","722.693224729","132","161669.248644","168552.270973","154719.410772","155468.713286","156235.662884","157002.2894","157768.488334","158535.563455","162435.058334","163185.137791","163951.698453","164718.632902","165485.390815","166251.953024","167018.134335","167785.85191","167796.024204"
"Mixed","Both","done","39","F_done.wav","None","721.364105179","132","161669.248644","168552.270973","169318.969835","155468.713286","156235.662884","157002.2894","157768.488334","158535.563455","162435.058334","163185.137791","163951.698453","164718.632902","165485.390815","166251.953024","167018.134335","167785.85191","168562.227467"
"Mixed","Both","done","39","M_bluff.wav","space","544.753826922","132","161669.248644","168552.270973","169318.969835","170068.467744","156235.662884","157002.2894","157768.488334","158535.563455","162435.058334","163185.137791","163951.698453","164718.632902","165485.390815","166251.953024","167018.134335","167785.85191","169328.973013"
"Mixed","Both","done","39","F_greet.wav","None","734.862753481","132","161669.248644","168552.270973","169318.969835","170068.467744","170835.253173","157002.2894","157768.488334","158535.563455","162435.058334","163185.137791","163951.698453","164718.632902","165485.390815","166251.953024","167018.134335","167785.85191","170078.137019"
"Mixed","Both","done","39","M_done.wav","None","733.063077962","132","161669.248644","168552.270973","169318.969835","170068.467744","170835.253173","171601.944305","157768.488334","158535.563455","162435.058334","163185.137791","163951.698453","164718.632902","165485.390815","166251.953024","167018.134335","167785.85191","170844.89184"
"Mixed","Both","done","39","M_dime.wav","space","526.149553945","132","161669.248644","168552.270973","169318.969835","170068.467744","170835.253173","171601.944305","172368.520426","158535.563455","162435.058334","163185.137791","163951.698453","164718.632902","165485.390815","166251.953024","167018.134335","167785.85191","171611.565659"
"Mixed","Both","done","39","M_dime.wav","None","729.001209489","132","161669.248644","168552.270973","169318.969835","170068.467744","170835.253173","171601.944305","172368.520426","173134.726781","162435.058334","163185.137791","163951.698453","164718.632902","165485.390815","166251.953024","167018.134335","167785.85191","172378.303785"
"Mixed","Both","ball","3","F_tile.wav","None","728.753564763","132","176268.764114","168552.270973","169318.969835","170068.467744","170835.253173","171601.944305","172368.520426","173134.726781","162435.058334","163185.137791","163951.698453","164718.632902","165485.390815","166251.953024","167018.134335","167785.85191","173143.555115"
"Mixed","Both","ball","3","F_cling.wav","None","720.715467585","132","176268.764114","168552.270973","169318.969835","170068.467744","170835.253173","171601.944305","172368.520426","173134.726781","177035.034466","163185.137791","163951.698453","164718.632902","165485.390815","166251.953024","167018.134335","167785.85191","176279.094393"
"Mixed","Both","ball","3","M_ball.wav","None","719.940998068","132","176268.764114","168552.270973","169318.969835","170068.467744","170835.253173","171601.944305","172368.520426","173134.726781","177035.034466","177784.872771","163951.698453","164718.632902","165485.390815","166251.953024","167018.134335","167785.85191","177044.751044"
"Mixed","Both","ball","3","M_depth.wav","space","374.775233795","132","176268.764114","168552.270973","169318.969835","170068.467744","170835.253173","171601.944305","172368.520426","173134.726781","177035.034466","177784.872771","178551.092419","164718.632902","165485.390815","166251.953024","167018.134335","167785.85191","177794.739296"
"Mixed","Both","ball","3","F_knife.wav","None","734.487421752","132","176268.764114","168552.270973","169318.969835","170068.467744","170835.253173","171601.944305","172368.520426","173134.726781","177035.034466","177784.872771","178551.092419","179318.264619","165485.390815","166251.953024","167018.134335","167785.85191","178560.086469"
"Mixed","Both","ball","3","M_lash.wav","None","731.444266625","132","176268.764114","168552.270973","169318.969835","170068.467744","170835.253173","171601.944305","172368.520426","173134.726781","177035.034466","177784.872771","178551.092419","179318.264619","180084.954515","166251.953024","167018.134335","167785.85191","179328.104865"
"Mixed","Both","ball","3","F_done.wav","None","731.103561877","132","176268.764114","168552.270973","169318.969835","170068.467744","170835.253173","171601.944305","172368.520426","173134.726781","177035.034466","177784.872771","178551.092419","179318.264619","180084.954515","180851.260422","167018.134335","167785.85191","180094.156944"
"Mixed","Both","ball","3","M_romp.wav","None","729.725593526","132","176268.764114","168552.270973","169318.969835","170068.467744","170835.253173","171601.944305","172368.520426","173134.726781","177035.034466","177784.872771","178551.092419","179318.264619","180084.954515","180851.260422","181618.246811","167785.85191","180860.498097"
"Mixed","Both","ball","3","F_ball.wav","None","727.466492215","132","176268.764114","168552.270973","169318.969835","170068.467744","170835.253173","171601.944305","172368.520426","173134.726781","177035.034466","177784.872771","178551.092419","179318.264619","180084.954515","180851.260422","181618.246811","182384.907336","181627.536426"
"Mixed","Both","ball","3","F_jaw.wav","space","510.746421642","132","176268.764114","183152.053256","169318.969835","170068.467744","170835.253173","171601.944305","172368.520426","173134.726781","177035.034466","177784.872771","178551.092419","179318.264619","180084.954515","180851.260422","181618.246811","182384.907336","182394.615566"
"Mixed","Both","ball","3","M_jolt.wav","None","722.713629948","132","176268.764114","183152.053256","183918.597842","170068.467744","170835.253173","171601.944305","172368.520426","173134.726781","177035.034466","177784.872771","178551.092419","179318.264619","180084.954515","180851.260422","181618.246811","182384.907336","183161.84589"
"Mixed","Both","ball","3","F_park.wav","None","720.253568434","132","176268.764114","183152.053256","183918.597842","184685.392546","170835.253173","171601.944305","172368.520426","173134.726781","177035.034466","177784.872771","178551.092419","179318.264619","180084.954515","180851.260422","181618.246811","182384.907336","183929.394968"
"Mixed","Both","ball","3","F_ball.wav","None","719.487446477","132","176268.764114","183152.053256","183918.597842","184685.392546","185434.672491","171601.944305","172368.520426","173134.726781","177035.034466","177784.872771","178551.092419","179318.264619","180084.954515","180851.260422","181618.246811","182384.907336","184695.345948"
"Mixed","Both","ball","3","M_reek.wav","space","588.960733032","132","176268.764114","183152.053256","183918.597842","184685.392546","185434.672491","186200.960157","172368.520426","173134.726781","177035.034466","177784.872771","178551.092419","179318.264619","180084.954515","180851.260422","181618.246811","182384.907336","185444.29199"
"Mixed","Both","ball","3","M_ball.wav","None","734.286770748","132","176268.764114","183152.053256","183918.597842","184685.392546","185434.672491","186200.960157","186968.043007","173134.726781","177035.034466","177784.872771","178551.092419","179318.264619","180084.954515","180851.260422","181618.246811","182384.907336","186210.195049"
"Mixed","Both","ball","3","M_lash.wav","space","647.78579009","132","176268.764114","183152.053256","183918.597842","184685.392546","185434.672491","186200.960157","186968.043007","187734.809576","177035.034466","177784.872771","178551.092419","179318.264619","180084.954515","180851.260422","181618.246811","182384.907336","186977.483497"
"Mixed","Both","cave","15","F_gnash.wav","None","729.880796629","132","190868.092227","183152.053256","183918.597842","184685.392546","185434.672491","186200.960157","186968.043007","187734.809576","177035.034466","177784.872771","178551.092419","179318.264619","180084.954515","180851.260422","181618.246811","182384.907336","187744.381154"
"Mixed","Both","cave","15","M_cave.wav","None","720.5111066","132","190868.092227","183152.053256","183918.597842","184685.392546","185434.672491","186200.960157","186968.043007","187734.809576","191635.283904","177784.872771","178551.092419","179318.264619","180084.954515","180851.260422","181618.246811","182384.907336","190878.609863"
"Mixed","Both","cave","15","F_depth.wav","space","691.515338549","132","190868.092227","183152.053256","183918.597842","184685.392546","185434.672491","186200.960157","186968.043007","187734.809576","191635.283904","192384.890331","178551.092419","179318.264619","180084.954515","180851.260422","181618.246811","182384.907336","191645.624695"
"Mixed","Both","cave","15","M_gnash.wav","None","733.871246979","132","190868.092227","183152.053256","183918.597842","184685.392546","185434.672491","186200.960157","186968.043007","187734.809576","191635.283904","192384.890331","193151.191601","179318.264619","180084.954515","180851.260422","181618.246811","182384.907336","192394.757166"
"Mixed","Both","cave","15","M_cave.wav","None","717.178878025","132","190868.092227","183152.053256","183918.597842","184685.392546","185434.672491","186200.960157","186968.043007","187734.809576","191635.283904","192384.890331","193151.191601","193917.322209","180084.954515","180851.260422","181618.246811","182384.907336","193176.523711"
"Mixed","Both","cave","15","M_jolt.wav","space","530.434024462","132","190868.092227","183152.053256","183918.597842","184685.392546","185434.672491","186200.960157","186968.043007","187734.809576","191635.283904","192384.890331","193151.191601","193917.322209","194684.495336","180851.260422","181618.246811","182384.907336","193926.590801"
"Mixed","Both","cave","15","M_romp.wav","None","729.563897883","132","190868.092227","183152.053256","183918.597842","184685.392546","185434.672491","186200.960157","186968.043007","187734.809576","191635.283904","192384.890331","193151.191601","193917.322209","194684.495336","195451.145658","181618.246811","182384.907336","194693.843385"
"Mixed","Both","cave","15","F_cave.wav","None","727.579957398","132","190868.092227","183152.053256","183918.597842","184685.392546","185434.672491","186200.960157","186968.043007","187734.809576","191635.283904","192384.890331","193151.191601","193917.322209","194684.495336","195451.145658","196217.74775","182384.907336","195461.000435"
"Mixed","Both","cave","15","M_park.wav","space","589.484466065","132","190868.092227","183152.053256","183918.597842","184685.392546","185434.672491","186200.960157","186968.043007","187734.809576","191635.283904","192384.890331","193151.191601","193917.322209","194684.495336","195451.145658","196217.74775","196983.938646","196227.477313"
"Mixed","Both","cave","15","F_cave.wav","None","724.657996732","132","190868.092227","197751.676008","183918.597842","184685.392546","185434.672491","186200.960157","186968.043007","187734.809576","191635.283904","192384.890331","193151.191601","193917.322209","194684.495336","195451.145658","196217.74775","196983.938646","196993.325031"
"Mixed","Both","cave","15","M_knife.wav","space","543.060196564","132","190868.092227","197751.676008","198517.974495","184685.392546","185434.672491","186200.960157","186968.043007","187734.809576","191635.283904","192384.890331","193151.191601","193917.322209","194684.495336","195451.145658","196217.74775","196983.938646","197761.864069"
"Mixed","Both","cave","15","F_lash.wav","None","718.987828586","132","190868.092227","197751.676008","198517.974495","199266.977732","185434.672491","186200.960157","186968.043007","187734.809576","191635.283904","192384.890331","193151.191601","193917.322209","194684.495336","195451.145658","196217.74775","196983.938646","198528.496459"
"Mixed","Both","cave","15","M_jaw.wav","None","691.675179114","132","190868.092227","197751.676008","198517.974495","199266.977732","200033.952991","186200.960157","186968.043007","187734.809576","191635.283904","192384.890331","193151.191601","193917.322209","194684.495336","195451.145658","196217.74775","196983.938646","199320.843093"
"Mixed","Both","cave","15","F_jolt.wav","None","724.488262727","132","190868.092227","197751.676008","198517.974495","199266.977732","200033.952991","200800.987302","186968.043007","187734.809576","191635.283904","192384.890331","193151.191601","193917.322209","194684.495336","195451.145658","196217.74775","196983.938646","200052.965368"
"Mixed","Both","cave","15","F_priest.wav","None","732.325708843","132","190868.092227","197751.676008","198517.974495","199266.977732","200033.952991","200800.987302","201567.608871","187734.809576","191635.283904","192384.890331","193151.191601","193917.322209","194684.495336","195451.145658","196217.74775","196983.938646","200810.130061"
"Mixed","Both","cave","15","F_jaw.wav","None","730.389998702","132","190868.092227","197751.676008","198517.974495","199266.977732","200033.952991","200800.987302","201567.608871","202333.868093","191635.283904","192384.890331","193151.191601","193917.322209","194684.495336","195451.145658","196217.74775","196983.938646","201577.226824"
"Mixed","Both","ball","1","M_cad.wav","None","729.887598369","132","205467.766609","197751.676008","198517.974495","199266.977732","200033.952991","200800.987302","201567.608871","202333.868093","191635.283904","192384.890331","193151.191601","193917.322209","194684.495336","195451.145658","196217.74775","196983.938646","202342.879456"
"Mixed","Both","ball","1","F_dime.wav","None","721.088326012","132","205467.766609","197751.676008","198517.974495","199266.977732","200033.952991","200800.987302","201567.608871","202333.868093","206234.471963","192384.890331","193151.191601","193917.322209","194684.495336","195451.145658","196217.74775","196983.938646","205477.628497"
"Mixed","Both","ball","1","M_jolt.wav","None","719.338735973","132","205467.766609","197751.676008","198517.974495","199266.977732","200033.952991","200800.987302","201567.608871","202333.868093","206234.471963","206983.703986","193151.191601","193917.322209","194684.495336","195451.145658","196217.74775","196983.938646","206244.518734"
"Mixed","Both","ball","1","F_romp.wav","None","736.592556699","132","205467.766609","197751.676008","198517.974495","199266.977732","200033.952991","200800.987302","201567.608871","202333.868093","206234.471963","206983.703986","207750.68883","193917.322209","194684.495336","195451.145658","196217.74775","196983.938646","206992.466467"
"Mixed","Both","ball","1","F_greet.wav","None","734.502571053","132","205467.766609","197751.676008","198517.974495","199266.977732","200033.952991","200800.987302","201567.608871","202333.868093","206234.471963","206983.703986","207750.68883","208517.174055","194684.495336","195451.145658","196217.74775","196983.938646","207760.05079"
"Mixed","Both","ball","1","M_ball.wav","None","733.9003089","132","205467.766609","197751.676008","198517.974495","199266.977732","200033.952991","200800.987302","201567.608871","202333.868093","206234.471963","206983.703986","207750.68883","208517.174055","209284.058109","195451.145658","196217.74775","196983.938646","208526.152646"
"Mixed","Both","ball","1","M_lash.wav","space","482.883450517","132","205467.766609","197751.676008","198517.974495","199266.977732","200033.952991","200800.987302","201567.608871","202333.868093","206234.471963","206983.703986","207750.68883","208517.174055","209284.058109","210050.264464","196217.74775","196983.938646","209293.736969"
"Mixed","Both","ball","1","F_ball.wav","None","730.970000674","132","205467.766609","197751.676008","198517.974495","199266.977732","200033.952991","200800.987302","201567.608871","202333.868093","206234.471963","206983.703986","207750.68883","208517.174055","209284.058109","210050.264464","210817.241887","196983.938646","210059.015815"
"Mixed","Both","ball","1","F_lash.wav","space","510.041515285","132","205467.766609","197751.676008","198517.974495","199266.977732","200033.952991","200800.987302","201567.608871","202333.868093","206234.471963","206983.703986","207750.68883","208517.174055","209284.058109","210050.264464","210817.241887","211583.952806","210826.438751"
"Mixed","Both","ball","1","M_bluff.wav","None","726.704698638","132","205467.766609","212350.197497","198517.974495","199266.977732","200033.952991","200800.987302","201567.608871","202333.868093","206234.471963","206983.703986","207750.68883","208517.174055","209284.058109","210050.264464","210817.241887","211583.952806","211593.018582"
"Mixed","Both","ball","1","M_cling.wav","None","725.936103379","132","205467.766609","212350.197497","213116.875335","199266.977732","200033.952991","200800.987302","201567.608871","202333.868093","206234.471963","206983.703986","207750.68883","208517.174055","209284.058109","210050.264464","210817.241887","211583.952806","212359.066333"
"Mixed","Both","ball","1","M_ball.wav","None","724.470640009","132","205467.766609","212350.197497","213116.875335","213883.67344","200033.952991","200800.987302","201567.608871","202333.868093","206234.471963","206983.703986","207750.68883","208517.174055","209284.058109","210050.264464","210817.241887","211583.952806","213125.737369"
"Mixed","Both","ball","1","F_cling.wav","space","427.876327303","132","205467.766609","212350.197497","213116.875335","213883.67344","214651.008573","200800.987302","201567.608871","202333.868093","206234.471963","206983.703986","207750.68883","208517.174055","209284.058109","210050.264464","210817.241887","211583.952806","213892.574429"
"Mixed","Both","ball","1","M_romp.wav","None","719.271955371","132","205467.766609","212350.197497","213116.875335","213883.67344","214651.008573","215416.842069","201567.608871","202333.868093","206234.471963","206983.703986","207750.68883","208517.174055","209284.058109","210050.264464","210817.241887","211583.952806","214660.606739"
"Mixed","Both","ball","1","F_ball.wav","None","721.177985135","132","205467.766609","212350.197497","213116.875335","213883.67344","214651.008573","215416.842069","216166.890918","202333.868093","206234.471963","206983.703986","207750.68883","208517.174055","209284.058109","210050.264464","210817.241887","211583.952806","215425.627429"
"Mixed","Both","ball","1","F_cad.wav","space","504.138233373","132","205467.766609","212350.197497","213116.875335","213883.67344","214651.008573","215416.842069","216166.890918","216933.796613","206234.471963","206983.703986","207750.68883","208517.174055","209284.058109","210050.264464","210817.241887","211583.952806","216176.228763"
"Mixed","Both","ball","2","M_dime.wav","None","733.968635381","132","220067.329382","212350.197497","213116.875335","213883.67344","214651.008573","215416.842069","216166.890918","216933.796613","206234.471963","206983.703986","207750.68883","208517.174055","209284.058109","210050.264464","210817.241887","211583.952806","216942.978638"
"Mixed","Both","ball","2","M_ball.wav","None","720.892312529","132","220067.329382","212350.197497","213116.875335","213883.67344","214651.008573","215416.842069","216166.890918","216933.796613","220834.097188","206983.703986","207750.68883","208517.174055","209284.058109","210050.264464","210817.241887","211583.952806","220077.178903"
"Mixed","Both","ball","2","M_jolt.wav","space","556.180730637","132","220067.329382","212350.197497","213116.875335","213883.67344","214651.008573","215416.842069","216166.890918","216933.796613","220834.097188","221583.34807","207750.68883","208517.174055","209284.058109","210050.264464","210817.241887","211583.952806","220844.037296"
"Mixed","Both","ball","2","F_ball.wav","None","735.128639208","132","220067.329382","212350.197497","213116.875335","213883.67344","214651.008573","215416.842069","216166.890918","216933.796613","220834.097188","221583.34807","222350.315291","208517.174055","209284.058109","210050.264464","210817.241887","211583.952806","221592.634903"
"Mixed","Both","ball","2","M_dime.wav","space","512.217140873","132","220067.329382","212350.197497","213116.875335","213883.67344","214651.008573","215416.842069","216166.890918","216933.796613","220834.097188","221583.34807","222350.315291","223116.934078","209284.058109","210050.264464","210817.241887","211583.952806","222359.916858"
"Mixed","Both","ball","2","M_ball.wav","None","730.75265449","132","220067.329382","212350.197497","213116.875335","213883.67344","214651.008573","215416.842069","216166.890918","216933.796613","220834.097188","221583.34807","222350.315291","223116.934078","223883.621191","210050.264464","210817.241887","211583.952806","223126.400229"
"Mixed","Both","ball","2","M_cling.wav","space","531.513644266","132","220067.329382","212350.197497","213116.875335","213883.67344","214651.008573","215416.842069","216166.890918","216933.796613","220834.097188","221583.34807","222350.315291","223116.934078","223883.621191","224649.869902","210817.241887","211583.952806","223892.624515"
"Mixed","Both","ball","2","F_ball.wav","None","728.919279587","132","220067.329382","212350.197497","213116.875335","213883.67344","214651.008573","215416.842069","216166.890918","216933.796613","220834.097188","221583.34807","222350.315291","223116.934078","223883.621191","224649.869902","225416.945331","211583.952806","224658.648459"
"Mixed","Both","ball","2","F_cling.wav","space","493.603592797","132","220067.329382","212350.197497","213116.875335","213883.67344","214651.008573","215416.842069","216166.890918","216933.796613","220834.097188","221583.34807","222350.315291","223116.934078","223883.621191","224649.869902","225416.945331","226184.126497","225426.481664"
"Mixed","Both","ball","2","F_cling.wav","None","722.960037994","132","220067.329382","226949.931859","213116.875335","213883.67344","214651.008573","215416.842069","216166.890918","216933.796613","220834.097188","221583.34807","222350.315291","223116.934078","223883.621191","224649.869902","225416.945331","226184.126497","226194.342693"
"Mixed","Both","ball","2","F_cad.wav","None","723.904859915","132","220067.329382","226949.931859","227716.622991","213883.67344","214651.008573","215416.842069","216166.890918","216933.796613","220834.097188","221583.34807","222350.315291","223116.934078","223883.621191","224649.869902","225416.945331","226184.126497","226958.878605"
"Mixed","Both","ball","2","M_reek.wav","None","722.159289056","132","220067.329382","226949.931859","227716.622991","228483.277332","214651.008573","215416.842069","216166.890918","216933.796613","220834.097188","221583.34807","222350.315291","223116.934078","223883.621191","224649.869902","225416.945331","226184.126497","227725.935176"
"Mixed","Both","ball","2","M_depth.wav","None","721.268571855","132","220067.329382","226949.931859","227716.622991","228483.277332","229249.924872","215416.842069","216166.890918","216933.796613","220834.097188","221583.34807","222350.315291","223116.934078","223883.621191","224649.869902","225416.945331","226184.126497","228492.202128"
"Mixed","Both","ball","2","F_depth.wav","None","719.992011029","132","220067.329382","226949.931859","227716.622991","228483.277332","229249.924872","230000.174681","216166.890918","216933.796613","220834.097188","221583.34807","222350.315291","223116.934078","223883.621191","224649.869902","225416.945331","226184.126497","229258.95633"
"Mixed","Both","ball","2","F_gnash.wav","None","734.616654576","132","220067.329382","226949.931859","227716.622991","228483.277332","229249.924872","230000.174681","230766.30838","216933.796613","220834.097188","221583.34807","222350.315291","223116.934078","223883.621191","224649.869902","225416.945331","226184.126497","230009.478209"
"Mixed","Both","ball","2","F_lash.wav","None","734.38539583","132","220067.329382","226949.931859","227716.622991","228483.277332","229249.924872","230000.174681","230766.30838","231532.995803","220834.097188","221583.34807","222350.315291","223116.934078","223883.621191","224649.869902","225416.945331","226184.126497","230775.015211"
"Mixed","Both","cave","13","F_gnash.wav","None","732.978983899","132","234667.025097","226949.931859","227716.622991","228483.277332","229249.924872","230000.174681","230766.30838","231532.995803","220834.097188","221583.34807","222350.315291","223116.934078","223883.621191","224649.869902","225416.945331","226184.126497","231541.666151"
"Mixed","Both","cave","13","F_cave.wav","None","721.00825113","132","234667.025097","226949.931859","227716.622991","228483.277332","229249.924872","230000.174681","230766.30838","231532.995803","235433.671709","221583.34807","222350.315291","223116.934078","223883.621191","224649.869902","225416.945331","226184.126497","234676.943563"
"Mixed","Both","cave","13","M_depth.wav","space","476.184984727","132","234667.025097","226949.931859","227716.622991","228483.277332","229249.924872","230000.174681","230766.30838","231532.995803","235433.671709","236182.969585","222350.315291","223116.934078","223883.621191","224649.869902","225416.945331","226184.126497","235443.596049"
"Mixed","Both","cave","13","M_park.wav","None","734.556057374","132","234667.025097","226949.931859","227716.622991","228483.277332","229249.924872","230000.174681","230766.30838","231532.995803","235433.671709","236182.969585","236949.908053","223116.934078","223883.621191","224649.869902","225416.945331","226184.126497","236192.669159"
"Mixed","Both","cave","13","M_cave.wav","None","733.222609444","132","234667.025097","226949.931859","227716.622991","228483.277332","229249.924872","230000.174681","230766.30838","231532.995803","235433.671709","236182.969585","236949.908053","237716.681115","223883.621191","224649.869902","225416.945331","226184.126497","236959.2527"
"Mixed","Both","cave","13","M_jolt.wav","space","521.511702682","132","234667.025097","226949.931859","227716.622991","228483.277332","229249.924872","230000.174681","230766.30838","231532.995803","235433.671709","236182.969585","236949.908053","237716.681115","238483.209624","224649.869902","225416.945331","226184.126497","237726.212192"
"Mixed","Both","cave","13","F_done.wav","None","729.647373664","132","234667.025097","226949.931859","227716.622991","228483.277332","229249.924872","230000.174681","230766.30838","231532.995803","235433.671709","236182.969585","236949.908053","237716.681115","238483.209624","239249.822846","225416.945331","226184.126497","238492.59972"
"Mixed","Both","cave","13","F_lash.wav","None","728.497263277","132","234667.025097","226949.931859","227716.622991","228483.277332","229249.924872","230000.174681","230766.30838","231532.995803","235433.671709","236182.969585","236949.908053","237716.681115","238483.209624","239249.822846","240015.893784","226184.126497","239259.223762"
"Mixed","Both","cave","13","F_dime.wav","None","728.370194556","132","234667.025097","226949.931859","227716.622991","228483.277332","229249.924872","230000.174681","230766.30838","231532.995803","235433.671709","236182.969585","236949.908053","237716.681115","238483.209624","239249.822846","240015.893784","240782.719096","240024.694912"
"Mixed","Both","cave","13","M_cling.wav","None","726.864539203","132","234667.025097","241549.748151","227716.622991","228483.277332","229249.924872","230000.174681","230766.30838","231532.995803","235433.671709","236182.969585","236949.908053","237716.681115","238483.209624","239249.822846","240015.893784","240782.719096","240792.148456"
"Mixed","Both","cave","13","M_bluff.wav","None","725.877979421","132","234667.025097","241549.748151","242316.660339","228483.277332","229249.924872","230000.174681","230766.30838","231532.995803","235433.671709","236182.969585","236949.908053","237716.681115","238483.209624","239249.822846","240015.893784","240782.719096","241558.809908"
"Mixed","Both","cave","13","F_cave.wav","None","723.301979422","132","234667.025097","241549.748151","242316.660339","243083.557378","229249.924872","230000.174681","230766.30838","231532.995803","235433.671709","236182.969585","236949.908053","237716.681115","238483.209624","239249.822846","240015.893784","240782.719096","242326.519135"
"Mixed","Both","cave","13","F_lash.wav","space","601.837641501","132","234667.025097","241549.748151","242316.660339","243083.557378","243850.105674","230000.174681","230766.30838","231532.995803","235433.671709","236182.969585","236949.908053","237716.681115","238483.209624","239249.822846","240015.893784","240782.719096","243093.715141"
"Mixed","Both","cave","13","M_cave.wav","None","719.754259742","132","234667.025097","241549.748151","242316.660339","243083.557378","243850.105674","244599.610385","230766.30838","231532.995803","235433.671709","236182.969585","236949.908053","237716.681115","238483.209624","239249.822846","240015.893784","240782.719096","243860.008991"
"Mixed","Both","cave","13","F_romp.wav","space","582.813207235","132","234667.025097","241549.748151","242316.660339","243083.557378","243850.105674","244599.610385","245365.999458","231532.995803","235433.671709","236182.969585","236949.908053","237716.681115","238483.209624","239249.822846","240015.893784","240782.719096","244608.652355"
"Mixed","Both","cave","13","M_park.wav","None","734.280587349","132","234667.025097","241549.748151","242316.660339","243083.557378","243850.105674","244599.610385","245365.999458","246132.996359","235433.671709","236182.969585","236949.908053","237716.681115","238483.209624","239249.822846","240015.893784","240782.719096","245375.281035"
"Mixed","Both","ball","10","M_done.wav","None","732.470709248","132","249282.433733","241549.748151","242316.660339","243083.557378","243850.105674","244599.610385","245365.999458","246132.996359","235433.671709","236182.969585","236949.908053","237716.681115","238483.209624","239249.822846","240015.893784","240782.719096","246142.308853"
"Mixed","Both","ball","10","F_ball.wav","None","721.973787353","132","249282.433733","241549.748151","242316.660339","243083.557378","243850.105674","244599.610385","245365.999458","246132.996359","250049.870273","236182.969585","236949.908053","237716.681115","238483.209624","239249.822846","240015.893784","240782.719096","249291.353272"
"Mixed","Both","ball","10","F_reek.wav","None","718.981954386","132","249282.433733","241549.748151","242316.660339","243083.557378","243850.105674","244599.610385","245365.999458","246132.996359","250049.870273","250799.079417","236949.908053","237716.681115","238483.209624","239249.822846","240015.893784","240782.719096","250059.623951"
"Mixed","Both","ball","10","M_cave.wav","space","0.0194776803255","132","249282.433733","241549.748151","242316.660339","243083.557378","243850.105674","244599.610385","245365.999458","246132.996359","250049.870273","250799.079417","251565.592777","237716.681115","238483.209624","239249.822846","240015.893784","240782.719096","250808.120151"
"Mixed","Both","ball","10","F_tile.wav","None","734.236994525","132","249282.433733","241549.748151","242316.660339","243083.557378","243850.105674","244599.610385","245365.999458","246132.996359","250049.870273","250799.079417","251565.592777","252332.899775","238483.209624","239249.822846","240015.893784","240782.719096","251574.431314"
"Mixed","Both","ball","10","M_ball.wav","None","731.494970445","132","249282.433733","241549.748151","242316.660339","243083.557378","243850.105674","244599.610385","245365.999458","246132.996359","250049.870273","250799.079417","251565.592777","252332.899775","253099.513305","239249.822846","240015.893784","240782.719096","252342.562557"
"Mixed","Both","ball","10","F_depth.wav","space","394.435011316","132","249282.433733","241549.748151","242316.660339","243083.557378","243850.105674","244599.610385","245365.999458","246132.996359","250049.870273","250799.079417","251565.592777","252332.899775","253099.513305","253866.088808","240015.893784","240782.719096","253108.807867"
"Mixed","Both","ball","10","M_reek.wav","None","728.807360225","132","249282.433733","241549.748151","242316.660339","243083.557378","243850.105674","244599.610385","245365.999458","246132.996359","250049.870273","250799.079417","251565.592777","252332.899775","253099.513305","253866.088808","254632.685953","240782.719096","253875.638744"
"Mixed","Both","ball","10","F_greet.wav","None","727.342515253","132","249282.433733","241549.748151","242316.660339","243083.557378","243850.105674","244599.610385","245365.999458","246132.996359","250049.870273","250799.079417","251565.592777","252332.899775","253099.513305","253866.088808","254632.685953","255399.350497","254642.335132"
"Mixed","Both","ball","10","M_ball.wav","None","726.189931447","132","249282.433733","256166.044102","242316.660339","243083.557378","243850.105674","244599.610385","245365.999458","246132.996359","250049.870273","250799.079417","251565.592777","252332.899775","253099.513305","253866.088808","254632.685953","255399.350497","255409.02781"
"Mixed","Both","ball","10","M_cad.wav","space","375.492197752","132","249282.433733","256166.044102","256932.985971","243083.557378","243850.105674","244599.610385","245365.999458","246132.996359","250049.870273","250799.079417","251565.592777","252332.899775","253099.513305","253866.088808","254632.685953","255399.350497","256175.660201"
"Mixed","Both","ball","10","M_dime.wav","None","722.585324605","132","249282.433733","256166.044102","256932.985971","257699.580333","243850.105674","244599.610385","245365.999458","246132.996359","250049.870273","250799.079417","251565.592777","252332.899775","253099.513305","253866.088808","254632.685953","255399.350497","256942.577026"
"Mixed","Both","ball","10","F_cling.wav","None","720.94889055","132","249282.433733","256166.044102","256932.985971","257699.580333","258466.561467","244599.610385","245365.999458","246132.996359","250049.870273","250799.079417","251565.592777","252332.899775","253099.513305","253866.088808","254632.685953","255399.350497","257709.686465"
"Mixed","Both","ball","10","F_ball.wav","None","720.351575175","132","249282.433733","256166.044102","256932.985971","257699.580333","258466.561467","259232.917459","245365.999458","246132.996359","250049.870273","250799.079417","251565.592777","252332.899775","253099.513305","253866.088808","254632.685953","255399.350497","258475.980005"
"Mixed","Both","ball","10","F_priest.wav","space","435.920607764","132","249282.433733","256166.044102","256932.985971","257699.580333","258466.561467","259232.917459","259982.253672","246132.996359","250049.870273","250799.079417","251565.592777","252332.899775","253099.513305","253866.088808","254632.685953","255399.350497","259243.165809"
"Mixed","Both","ball","10","M_romp.wav","None","734.547091473","132","249282.433733","256166.044102","256932.985971","257699.580333","258466.561467","259232.917459","259982.253672","260749.121031","250049.870273","250799.079417","251565.592777","252332.899775","253099.513305","253866.088808","254632.685953","255399.350497","259991.594919"
"Mixed","Both","cave","18","F_bluff.wav","None","732.897363196","132","263882.810548","256166.044102","256932.985971","257699.580333","258466.561467","259232.917459","259982.253672","260749.121031","250049.870273","250799.079417","251565.592777","252332.899775","253099.513305","253866.088808","254632.685953","255399.350497","260758.306456"
"Mixed","Both","cave","18","M_gnash.wav","None","721.687496407","132","263882.810548","256166.044102","256932.985971","257699.580333","258466.561467","259232.917459","259982.253672","260749.121031","264648.883342","250799.079417","251565.592777","252332.899775","253099.513305","253866.088808","254632.685953","255399.350497","263892.34719"
"Mixed","Both","cave","18","M_cave.wav","None","721.959256451","132","263882.810548","256166.044102","256932.985971","257699.580333","258466.561467","259232.917459","259982.253672","260749.121031","264648.883342","265416.136235","251565.592777","252332.899775","253099.513305","253866.088808","254632.685953","255399.350497","264657.831325"
"Mixed","Both","cave","18","F_park.wav","space","492.7818203","132","263882.810548","256166.044102","256932.985971","257699.580333","258466.561467","259232.917459","259982.253672","260749.121031","264648.883342","265416.136235","266165.409068","252332.899775","253099.513305","253866.088808","254632.685953","255399.350497","265426.11468"
"Mixed","Both","cave","18","M_jaw.wav","None","735.225718468","132","263882.810548","256166.044102","256932.985971","257699.580333","258466.561467","259232.917459","259982.253672","260749.121031","264648.883342","265416.136235","266165.409068","266932.190169","253099.513305","253866.088808","254632.685953","255399.350497","266174.657564"
"Mixed","Both","cave","18","F_cave.wav","None","734.031396802","132","263882.810548","256166.044102","256932.985971","257699.580333","258466.561467","259232.917459","259982.253672","260749.121031","264648.883342","265416.136235","266165.409068","266932.190169","267699.035268","253866.088808","254632.685953","255399.350497","266941.505445"
"Mixed","Both","cave","18","F_reek.wav","space","418.420378934","132","263882.810548","256166.044102","256932.985971","257699.580333","258466.561467","259232.917459","259982.253672","260749.121031","264648.883342","265416.136235","266165.409068","266932.190169","267699.035268","268465.196174","254632.685953","255399.350497","267708.354872"
"Mixed","Both","cave","18","F_cave.wav","None","731.469927705","132","263882.810548","256166.044102","256932.985971","257699.580333","258466.561467","259232.917459","259982.253672","260749.121031","264648.883342","265416.136235","266165.409068","266932.190169","267699.035268","268465.196174","269232.282425","255399.350497","268474.273699"
"Mixed","Both","cave","18","M_dime.wav","space","557.512632688","132","263882.810548","256166.044102","256932.985971","257699.580333","258466.561467","259232.917459","259982.253672","260749.121031","264648.883342","265416.136235","266165.409068","266932.190169","267699.035268","268465.196174","269232.282425","269998.921308","269241.246485"
"Mixed","Both","cave","18","M_done.wav","None","726.883089403","132","263882.810548","270765.114986","256932.985971","257699.580333","258466.561467","259232.917459","259982.253672","260749.121031","264648.883342","265416.136235","266165.409068","266932.190169","267699.035268","268465.196174","269232.282425","269998.921308","270008.448983"
"Mixed","Both","cave","18","F_knife.wav","None","726.862993441","132","263882.810548","270765.114986","271532.600993","257699.580333","258466.561467","259232.917459","259982.253672","260749.121031","264648.883342","265416.136235","266165.409068","266932.190169","267699.035268","268465.196174","269232.282425","269998.921308","270773.817798"
"Mixed","Both","cave","18","F_park.wav","None","723.384836863","132","263882.810548","270765.114986","271532.600993","272298.509308","258466.561467","259232.917459","259982.253672","260749.121031","264648.883342","265416.136235","266165.409068","266932.190169","267699.035268","268465.196174","269232.282425","269998.921308","271542.311388"
"Mixed","Both","cave","18","M_cling.wav","None","724.05326122","132","263882.810548","270765.114986","271532.600993","272298.509308","273065.746434","259232.917459","259982.253672","260749.121031","264648.883342","265416.136235","266165.409068","266932.190169","267699.035268","268465.196174","269232.282425","269998.921308","272307.625789"
"Mixed","Both","cave","18","M_depth.wav","None","721.433668281","132","263882.810548","270765.114986","271532.600993","272298.509308","273065.746434","273832.348216","259982.253672","260749.121031","264648.883342","265416.136235","266165.409068","266932.190169","267699.035268","268465.196174","269232.282425","269998.921308","273075.856894"
"Mixed","Both","cave","18","M_cave.wav","None","720.603239082","132","263882.810548","270765.114986","271532.600993","272298.509308","273065.746434","273832.348216","274599.220213","260749.121031","264648.883342","265416.136235","266165.409068","266932.190169","267699.035268","268465.196174","269232.282425","269998.921308","273842.122918"
"Mixed","Both","cave","18","F_jolt.wav","space","445.479200338","132","263882.810548","270765.114986","271532.600993","272298.509308","273065.746434","273832.348216","274599.220213","275348.249111","264648.883342","265416.136235","266165.409068","266932.190169","267699.035268","268465.196174","269232.282425","269998.921308","274609.144862"
"Mixed","Both","tile","32","M_dime.wav","None","735.486348276","132","278482.307159","270765.114986","271532.600993","272298.509308","273065.746434","273832.348216","274599.220213","275348.249111","264648.883342","265416.136235","266165.409068","266932.190169","267699.035268","268465.196174","269232.282425","269998.921308","275357.267894"
"Mixed","Both","tile","32","F_gnash.wav","None","721.231780597","132","278482.307159","270765.114986","271532.600993","272298.509308","273065.746434","273832.348216","274599.220213","275348.249111","279249.045285","265416.136235","266165.409068","266932.190169","267699.035268","268465.196174","269232.282425","269998.921308","278492.504495"
"Mixed","Both","tile","32","M_cling.wav","None","720.932195429","132","278482.307159","270765.114986","271532.600993","272298.509308","273065.746434","273832.348216","274599.220213","275348.249111","279249.045285","280014.911553","266165.409068","266932.190169","267699.035268","268465.196174","269232.282425","269998.921308","279258.678387"
"Mixed","Both","tile","32","M_tile.wav","None","721.377399459","132","278482.307159","270765.114986","271532.600993","272298.509308","273065.746434","273832.348216","274599.220213","275348.249111","279249.045285","280014.911553","280781.550745","266932.190169","267699.035268","268465.196174","269232.282425","269998.921308","280024.096359"
"Mixed","Both","tile","32","F_jolt.wav","space","535.736899241","132","278482.307159","270765.114986","271532.600993","272298.509308","273065.746434","273832.348216","274599.220213","275348.249111","279249.045285","280014.911553","280781.550745","281531.66421","267699.035268","268465.196174","269232.282425","269998.921308","280790.684848"
"Mixed","Both","tile","32","F_cling.wav","None","736.070987827","132","278482.307159","270765.114986","271532.600993","272298.509308","273065.746434","273832.348216","274599.220213","275348.249111","279249.045285","280014.911553","280781.550745","281531.66421","282298.041226","268465.196174","269232.282425","269998.921308","281540.666916"
"Mixed","Both","tile","32","M_done.wav","None","735.377520672","132","278482.307159","270765.114986","271532.600993","272298.509308","273065.746434","273832.348216","274599.220213","275348.249111","279249.045285","280014.911553","280781.550745","281531.66421","282298.041226","283064.816452","269232.282425","269998.921308","282307.076395"
"Mixed","Both","tile","32","M_reek.wav","None","734.32603525","132","278482.307159","270765.114986","271532.600993","272298.509308","273065.746434","273832.348216","274599.220213","275348.249111","279249.045285","280014.911553","280781.550745","281531.66421","282298.041226","283064.816452","283831.864675","269998.921308","283073.87419"
"Mixed","Both","tile","32","F_tile.wav","None","732.573971909","132","278482.307159","270765.114986","271532.600993","272298.509308","273065.746434","273832.348216","274599.220213","275348.249111","279249.045285","280014.911553","280781.550745","281531.66421","282298.041226","283064.816452","283831.864675","284598.415135","283841.280432"
"Mixed","Both","tile","32","M_priest.wav","space","590.422177105","132","278482.307159","285365.063293","271532.600993","272298.509308","273065.746434","273832.348216","274599.220213","275348.249111","279249.045285","280014.911553","280781.550745","281531.66421","282298.041226","283064.816452","283831.864675","284598.415135","284607.879741"
"Mixed","Both","tile","32","F_priest.wav","None","730.230776477","132","278482.307159","285365.063293","286131.746078","272298.509308","273065.746434","273832.348216","274599.220213","275348.249111","279249.045285","280014.911553","280781.550745","281531.66421","282298.041226","283064.816452","283831.864675","284598.415135","285374.709072"
"Mixed","Both","tile","32","F_cad.wav","None","729.778152308","132","278482.307159","285365.063293","286131.746078","286898.354971","273065.746434","273832.348216","274599.220213","275348.249111","279249.045285","280014.911553","280781.550745","281531.66421","282298.041226","283064.816452","283831.864675","284598.415135","286140.960874"
"Mixed","Both","tile","32","M_tile.wav","None","728.525397659","132","278482.307159","285365.063293","286131.746078","286898.354971","287664.557925","273832.348216","274599.220213","275348.249111","279249.045285","280014.911553","280781.550745","281531.66421","282298.041226","283064.816452","283831.864675","284598.415135","286908.185633"
"Mixed","Both","tile","32","M_lash.wav","space","483.910511481","132","278482.307159","285365.063293","286131.746078","286898.354971","287664.557925","288431.826276","274599.220213","275348.249111","279249.045285","280014.911553","280781.550745","281531.66421","282298.041226","283064.816452","283831.864675","284598.415135","287673.365545"
"Mixed","Both","tile","32","F_tile.wav","None","725.566645793","132","278482.307159","285365.063293","286131.746078","286898.354971","287664.557925","288431.826276","289197.890104","275348.249111","279249.045285","280014.911553","280781.550745","281531.66421","282298.041226","283064.816452","283831.864675","284598.415135","288441.349005"
"Mixed","Both","tile","32","F_park.wav","space","615.153570659","132","278482.307159","285365.063293","286131.746078","286898.354971","287664.557925","288431.826276","289197.890104","289965.495759","279249.045285","280014.911553","280781.550745","281531.66421","282298.041226","283064.816452","283831.864675","284598.415135","289207.010603"
"Mixed","Both","tile","27","F_reek.wav","None","721.901441691","132","293098.542822","285365.063293","286131.746078","286898.354971","287664.557925","288431.826276","289197.890104","289965.495759","279249.045285","280014.911553","280781.550745","281531.66421","282298.041226","283064.816452","283831.864675","284598.415135","289975.588288"
"Mixed","Both","tile","27","M_dime.wav","None","720.877163229","132","293098.542822","285365.063293","286131.746078","286898.354971","287664.557925","288431.826276","289197.890104","289965.495759","293865.122963","280014.911553","280781.550745","281531.66421","282298.041226","283064.816452","283831.864675","284598.415135","293108.281352"
"Mixed","Both","tile","27","F_tile.wav","None","719.685005781","132","293098.542822","285365.063293","286131.746078","286898.354971","287664.557925","288431.826276","289197.890104","289965.495759","293865.122963","294631.878712","280781.550745","281531.66421","282298.041226","283064.816452","283831.864675","284598.415135","293875.248263"
"Mixed","Both","tile","27","F_ball.wav","space","468.283231428","132","293098.542822","285365.063293","286131.746078","286898.354971","287664.557925","288431.826276","289197.890104","289965.495759","293865.122963","294631.878712","295381.14598","281531.66421","282298.041226","283064.816452","283831.864675","284598.415135","294641.730088"
"Mixed","Both","tile","27","F_cave.wav","None","734.238849487","132","293098.542822","285365.063293","286131.746078","286898.354971","287664.557925","288431.826276","289197.890104","289965.495759","293865.122963","294631.878712","295381.14598","296148.043947","282298.041226","283064.816452","283831.864675","284598.415135","295391.112058"
"Mixed","Both","tile","27","M_tile.wav","None","733.615563833","132","293098.542822","285365.063293","286131.746078","286898.354971","287664.557925","288431.826276","289197.890104","289965.495759","293865.122963","294631.878712","295381.14598","296148.043947","296914.721785","283064.816452","283831.864675","284598.415135","296157.508552"
"Mixed","Both","tile","27","M_lash.wav","space","457.787236955","132","293098.542822","285365.063293","286131.746078","286898.354971","287664.557925","288431.826276","289197.890104","289965.495759","293865.122963","294631.878712","295381.14598","296148.043947","296914.721785","297681.388802","283831.864675","284598.415135","296924.108479"
"Mixed","Both","tile","27","M_jaw.wav","None","730.515212403","132","293098.542822","285365.063293","286131.746078","286898.354971","287664.557925","288431.826276","289197.890104","289965.495759","293865.122963","294631.878712","295381.14598","296148.043947","296914.721785","297681.388802","298448.039742","284598.415135","297690.376049"
"Mixed","Both","tile","27","F_depth.wav","None","729.148683313","132","293098.542822","285365.063293","286131.746078","286898.354971","287664.557925","288431.826276","289197.890104","289965.495759","293865.122963","294631.878712","295381.14598","296148.043947","296914.721785","297681.388802","298448.039742","299214.650799","298457.476831"
"Mixed","Both","tile","27","F_cad.wav","None","728.436047677","132","293098.542822","299981.332038","286131.746078","286898.354971","287664.557925","288431.826276","289197.890104","289965.495759","293865.122963","294631.878712","295381.14598","296148.043947","296914.721785","297681.388802","298448.039742","299214.650799","299223.916918"
"Mixed","Both","tile","27","M_gnash.wav","None","727.72557626","132","293098.542822","299981.332038","300747.960718","286898.354971","287664.557925","288431.826276","289197.890104","289965.495759","293865.122963","294631.878712","295381.14598","296148.043947","296914.721785","297681.388802","298448.039742","299214.650799","299990.337836"
"Mixed","Both","tile","27","F_cave.wav","None","726.665434078","132","293098.542822","299981.332038","300747.960718","301514.61846","287664.557925","288431.826276","289197.890104","289965.495759","293865.122963","294631.878712","295381.14598","296148.043947","296914.721785","297681.388802","298448.039742","299214.650799","300757.298255"
"Mixed","Both","tile","27","F_tile.wav","None","725.451016449","132","293098.542822","299981.332038","300747.960718","301514.61846","302281.26198","288431.826276","289197.890104","289965.495759","293865.122963","294631.878712","295381.14598","296148.043947","296914.721785","297681.388802","298448.039742","299214.650799","301524.456233"
"Mixed","Both","tile","27","M_cave.wav","space","467.577706615","132","293098.542822","299981.332038","300747.960718","301514.61846","302281.26198","303048.712742","289197.890104","289965.495759","293865.122963","294631.878712","295381.14598","296148.043947","296914.721785","297681.388802","298448.039742","299214.650799","302290.203161"
"Mixed","Both","tile","27","M_tile.wav","None","721.926175291","132","293098.542822","299981.332038","300747.960718","301514.61846","302281.26198","303048.712742","303814.962071","289965.495759","293865.122963","294631.878712","295381.14598","296148.043947","296914.721785","297681.388802","298448.039742","299214.650799","303058.386346"
"Mixed","Both","tile","27","M_priest.wav","space","524.853824638","132","293098.542822","299981.332038","300747.960718","301514.61846","302281.26198","303048.712742","303814.962071","304581.397211","293865.122963","294631.878712","295381.14598","296148.043947","296914.721785","297681.388802","298448.039742","299214.650799","303824.887957"
"Mixed","Both","ball","5","F_gnash.wav","None","719.790741743","132","307698.643241","299981.332038","300747.960718","301514.61846","302281.26198","303048.712742","303814.962071","304581.397211","293865.122963","294631.878712","295381.14598","296148.043947","296914.721785","297681.388802","298448.039742","299214.650799","304591.205613"
"Mixed","Both","ball","5","M_ball.wav","None","720.939306309","132","307698.643241","299981.332038","300747.960718","301514.61846","302281.26198","303048.712742","303814.962071","304581.397211","308464.793636","294631.878712","295381.14598","296148.043947","296914.721785","297681.388802","298448.039742","299214.650799","307707.825574"
"Mixed","Both","ball","5","F_cling.wav","None","719.433960156","132","307698.643241","299981.332038","300747.960718","301514.61846","302281.26198","303048.712742","303814.962071","304581.397211","308464.793636","309231.430972","295381.14598","296148.043947","296914.721785","297681.388802","298448.039742","299214.650799","308475.116495"
"Mixed","Both","ball","5","M_tile.wav","space","0.0401920406148","132","307698.643241","299981.332038","300747.960718","301514.61846","302281.26198","303048.712742","303814.962071","304581.397211","308464.793636","309231.430972","309980.730085","296148.043947","296914.721785","297681.388802","298448.039742","299214.650799","309241.187743"
"Mixed","Both","ball","5","F_knife.wav","None","734.925205703","132","307698.643241","299981.332038","300747.960718","301514.61846","302281.26198","303048.712742","303814.962071","304581.397211","308464.793636","309231.430972","309980.730085","310747.304351","296914.721785","297681.388802","298448.039742","299214.650799","309990.070095"
"Mixed","Both","ball","5","M_ball.wav","None","734.944992524","132","307698.643241","299981.332038","300747.960718","301514.61846","302281.26198","303048.712742","303814.962071","304581.397211","308464.793636","309231.430972","309980.730085","310747.304351","311513.785248","297681.388802","298448.039742","299214.650799","310756.144125"
"Mixed","Both","ball","5","M_tile.wav","space","458.518113592","132","307698.643241","299981.332038","300747.960718","301514.61846","302281.26198","303048.712742","303814.962071","304581.397211","308464.793636","309231.430972","309980.730085","310747.304351","311513.785248","312280.47298","298448.039742","299214.650799","311522.982731"
"Mixed","Both","ball","5","M_romp.wav","None","732.240687241","132","307698.643241","299981.332038","300747.960718","301514.61846","302281.26198","303048.712742","303814.962071","304581.397211","308464.793636","309231.430972","309980.730085","310747.304351","311513.785248","312280.47298","313047.607461","299214.650799","312289.35109"
"Mixed","Both","ball","5","F_jaw.wav","None","730.215317977","132","307698.643241","299981.332038","300747.960718","301514.61846","302281.26198","303048.712742","303814.962071","304581.397211","308464.793636","309231.430972","309980.730085","310747.304351","311513.785248","312280.47298","313047.607461","313814.174307","313057.025691"
"Mixed","Both","ball","5","F_ball.wav","None","729.498663102","132","307698.643241","314580.453935","300747.960718","301514.61846","302281.26198","303048.712742","303814.962071","304581.397211","308464.793636","309231.430972","309980.730085","310747.304351","311513.785248","312280.47298","313047.607461","313814.174307","313823.544307"
"Mixed","Both","ball","5","M_cave.wav","space","439.957742754","132","307698.643241","314580.453935","315347.538331","301514.61846","302281.26198","303048.712742","303814.962071","304581.397211","308464.793636","309231.430972","309980.730085","310747.304351","311513.785248","312280.47298","313047.607461","313814.174307","314589.463443"
"Mixed","Both","ball","5","M_gnash.wav","None","726.965946844","132","307698.643241","314580.453935","315347.538331","316114.060966","302281.26198","303048.712742","303814.962071","304581.397211","308464.793636","309231.430972","309980.730085","310747.304351","311513.785248","312280.47298","313047.607461","313814.174307","315356.802285"
"Mixed","Both","ball","5","M_greet.wav","None","725.977532042","132","307698.643241","314580.453935","315347.538331","316114.060966","316880.805584","303048.712742","303814.962071","304581.397211","308464.793636","309231.430972","309980.730085","310747.304351","311513.785248","312280.47298","313047.607461","313814.174307","316123.501456"
"Mixed","Both","ball","5","F_park.wav","None","724.98788056","132","307698.643241","314580.453935","315347.538331","316114.060966","316880.805584","317647.856281","303814.962071","304581.397211","308464.793636","309231.430972","309980.730085","310747.304351","311513.785248","312280.47298","313047.607461","313814.174307","316890.177439"
"Mixed","Both","ball","5","F_ball.wav","None","723.314655421","132","307698.643241","314580.453935","315347.538331","316114.060966","316880.805584","317647.856281","318413.677101","304581.397211","308464.793636","309231.430972","309980.730085","310747.304351","311513.785248","312280.47298","313047.607461","313814.174307","317657.765781"
"Mixed","Both","ball","5","F_depth.wav","space","534.522790695","132","307698.643241","314580.453935","315347.538331","316114.060966","316880.805584","317647.856281","318413.677101","319180.394203","308464.793636","309231.430972","309980.730085","310747.304351","311513.785248","312280.47298","313047.607461","313814.174307","318422.769157"
"Mixed","Both","done","45","M_gnash.wav","None","722.249257378","132","322297.76421","314580.453935","315347.538331","316114.060966","316880.805584","317647.856281","318413.677101","319180.394203","308464.793636","309231.430972","309980.730085","310747.304351","311513.785248","312280.47298","313047.607461","313814.174307","319189.406803"
"Mixed","Both","done","45","F_done.wav","None","720.438142598","132","322297.76421","314580.453935","315347.538331","316114.060966","316880.805584","317647.856281","318413.677101","319180.394203","323064.159467","309231.430972","309980.730085","310747.304351","311513.785248","312280.47298","313047.607461","313814.174307","322307.702463"
"Mixed","Both","done","45","F_reek.wav","space","410.994128266","132","322297.76421","314580.453935","315347.538331","316114.060966","316880.805584","317647.856281","318413.677101","319180.394203","323064.159467","323813.777334","309980.730085","310747.304351","311513.785248","312280.47298","313047.607461","313814.174307","323074.111942"
"Mixed","Both","done","45","F_depth.wav","None","735.137914307","132","322297.76421","314580.453935","315347.538331","316114.060966","316880.805584","317647.856281","318413.677101","319180.394203","323064.159467","323813.777334","324580.405705","310747.304351","311513.785248","312280.47298","313047.607461","313814.174307","323823.099412"
"Mixed","Both","done","45","F_cling.wav","None","734.313359309","132","322297.76421","314580.453935","315347.538331","316114.060966","316880.805584","317647.856281","318413.677101","319180.394203","323064.159467","323813.777334","324580.405705","325346.778392","311513.785248","312280.47298","313047.607461","313814.174307","324589.789926"
"Mixed","Both","done","45","M_cad.wav","None","734.251216229","132","322297.76421","314580.453935","315347.538331","316114.060966","316880.805584","317647.856281","318413.677101","319180.394203","323064.159467","323813.777334","324580.405705","325346.778392","326113.357914","312280.47298","313047.607461","313814.174307","325355.714627"
"Mixed","Both","done","45","M_priest.wav","None","733.705532155","132","322297.76421","314580.453935","315347.538331","316114.060966","316880.805584","317647.856281","318413.677101","319180.394203","323064.159467","323813.777334","324580.405705","325346.778392","326113.357914","326880.505072","313047.607461","313814.174307","326122.562508"
"Mixed","Both","done","45","M_done.wav","None","732.015920978","132","322297.76421","314580.453935","315347.538331","316114.060966","316880.805584","317647.856281","318413.677101","319180.394203","323064.159467","323813.777334","324580.405705","325346.778392","326113.357914","326880.505072","327647.117675","313814.174307","326890.137865"
"Mixed","Both","done","45","M_depth.wav","space","476.443450432","132","322297.76421","314580.453935","315347.538331","316114.060966","316880.805584","317647.856281","318413.677101","319180.394203","323064.159467","323813.777334","324580.405705","325346.778392","326113.357914","326880.505072","327647.117675","328413.3163","327656.588772"
"Mixed","Both","done","45","F_done.wav","None","730.225829757","132","322297.76421","329180.46624","315347.538331","316114.060966","316880.805584","317647.856281","318413.677101","319180.394203","323064.159467","323813.777334","324580.405705","325346.778392","326113.357914","326880.505072","327647.117675","328413.3163","328422.413921"
"Mixed","Both","done","45","F_bluff.wav","space","567.578881455","132","322297.76421","329180.46624","329947.11718","316114.060966","316880.805584","317647.856281","318413.677101","319180.394203","323064.159467","323813.777334","324580.405705","325346.778392","326113.357914","326880.505072","327647.117675","328413.3163","329189.408658"
"Mixed","Both","done","45","M_done.wav","None","726.310816768","132","322297.76421","329180.46624","329947.11718","330713.720818","316880.805584","317647.856281","318413.677101","319180.394203","323064.159467","323813.777334","324580.405705","325346.778392","326113.357914","326880.505072","327647.117675","328413.3163","329956.510676"
"Mixed","Both","done","45","M_gnash.wav","space","513.591399183","132","322297.76421","329180.46624","329947.11718","330713.720818","331480.728539","317647.856281","318413.677101","319180.394203","323064.159467","323813.777334","324580.405705","325346.778392","326113.357914","326880.505072","327647.117675","328413.3163","330723.348355"
"Mixed","Both","done","45","M_park.wav","None","722.772062989","132","322297.76421","329180.46624","329947.11718","330713.720818","331480.728539","332246.785565","318413.677101","319180.394203","323064.159467","323813.777334","324580.405705","325346.778392","326113.357914","326880.505072","327647.117675","328413.3163","331490.524883"
"Mixed","Both","done","45","F_reek.wav","None","723.368450883","132","322297.76421","329180.46624","329947.11718","330713.720818","331480.728539","332246.785565","333013.413936","319180.394203","323064.159467","323813.777334","324580.405705","325346.778392","326113.357914","326880.505072","327647.117675","328413.3163","332255.873602"
"Mixed","Both","done","45","F_cave.wav","None","722.908715834","132","322297.76421","329180.46624","329947.11718","330713.720818","331480.728539","332246.785565","333013.413936","333780.261817","323064.159467","323813.777334","324580.405705","325346.778392","326113.357914","326880.505072","327647.117675","328413.3163","333022.327292"
"Mixed","Both","tile","25","M_done.wav","None","721.980898234","132","336913.837251","329180.46624","329947.11718","330713.720818","331480.728539","332246.785565","333013.413936","333780.261817","323064.159467","323813.777334","324580.405705","325346.778392","326113.357914","326880.505072","327647.117675","328413.3163","333789.076857"
"Mixed","Both","tile","25","F_tile.wav","None","721.266098437","132","336913.837251","329180.46624","329947.11718","330713.720818","331480.728539","332246.785565","333013.413936","333780.261817","337679.941889","323813.777334","324580.405705","325346.778392","326113.357914","326880.505072","327647.117675","328413.3163","336923.855887"
"Mixed","Both","tile","25","F_done.wav","space","507.788288174","132","336913.837251","329180.46624","329947.11718","330713.720818","331480.728539","332246.785565","333013.413936","333780.261817","337679.941889","338447.237447","324580.405705","325346.778392","326113.357914","326880.505072","327647.117675","328413.3163","337688.941812"
"Mixed","Both","tile","25","M_tile.wav","None","718.644650478","132","336913.837251","329180.46624","329947.11718","330713.720818","331480.728539","332246.785565","333013.413936","333780.261817","337679.941889","338447.237447","339196.320141","325346.778392","326113.357914","326880.505072","327647.117675","328413.3163","338457.212182"
"Mixed","Both","tile","25","M_cling.wav","space","543.582074577","132","336913.837251","329180.46624","329947.11718","330713.720818","331480.728539","332246.785565","333013.413936","333780.261817","337679.941889","338447.237447","339196.320141","339962.989632","326113.357914","326880.505072","327647.117675","328413.3163","339205.098699"
"Mixed","Both","tile","25","F_ball.wav","None","734.831527341","132","336913.837251","329180.46624","329947.11718","330713.720818","331480.728539","332246.785565","333013.413936","333780.261817","337679.941889","338447.237447","339196.320141","339962.989632","340730.083303","326880.505072","327647.117675","328413.3163","339971.698627"
"Mixed","Both","tile","25","M_tile.wav","None","732.887469756","132","336913.837251","329180.46624","329947.11718","330713.720818","331480.728539","332246.785565","333013.413936","333780.261817","337679.941889","338447.237447","339196.320141","339962.989632","340730.083303","341496.772271","327647.117675","328413.3163","340739.687652"
"Mixed","Both","tile","25","F_cad.wav","space","426.324605651","132","336913.837251","329180.46624","329947.11718","330713.720818","331480.728539","332246.785565","333013.413936","333780.261817","337679.941889","338447.237447","339196.320141","339962.989632","340730.083303","341496.772271","342262.82806","328413.3163","341506.246769"
"Mixed","Both","tile","25","M_cad.wav","None","734.072207124","132","336913.837251","329180.46624","329947.11718","330713.720818","331480.728539","332246.785565","333013.413936","333780.261817","337679.941889","338447.237447","339196.320141","339962.989632","340730.083303","341496.772271","342262.82806","343029.850003","342271.581884"
"Mixed","Both","tile","25","F_ball.wav","None","733.154283022","132","336913.837251","343796.780742","329947.11718","330713.720818","331480.728539","332246.785565","333013.413936","333780.261817","337679.941889","338447.237447","339196.320141","339962.989632","340730.083303","341496.772271","342262.82806","343029.850003","343038.66999"
"Mixed","Both","tile","25","F_bluff.wav","None","731.591122167","132","336913.837251","343796.780742","344562.989879","330713.720818","331480.728539","332246.785565","333013.413936","333780.261817","337679.941889","338447.237447","339196.320141","339962.989632","340730.083303","341496.772271","342262.82806","343029.850003","343806.183822"
"Mixed","Both","tile","25","M_cave.wav","None","731.973255577","132","336913.837251","343796.780742","344562.989879","345330.058507","331480.728539","332246.785565","333013.413936","333780.261817","337679.941889","338447.237447","339196.320141","339962.989632","340730.083303","341496.772271","342262.82806","343029.850003","344571.652499"
"Mixed","Both","tile","25","M_cave.wav","None","730.233249837","132","336913.837251","343796.780742","344562.989879","345330.058507","346096.11646","332246.785565","333013.413936","333780.261817","337679.941889","338447.237447","339196.320141","339962.989632","340730.083303","341496.772271","342262.82806","343029.850003","345339.358325"
"Mixed","Both","tile","25","F_cad.wav","None","732.098160079","132","336913.837251","343796.780742","344562.989879","345330.058507","346096.11646","346863.191272","333013.413936","333780.261817","337679.941889","338447.237447","339196.320141","339962.989632","340730.083303","341496.772271","342262.82806","343029.850003","346105.08052"
"Mixed","Both","tile","25","F_tile.wav","None","730.736577767","132","336913.837251","343796.780742","344562.989879","345330.058507","346096.11646","346863.191272","347629.941147","333780.261817","337679.941889","338447.237447","339196.320141","339962.989632","340730.083303","341496.772271","342262.82806","343029.850003","346872.588787"
"Mixed","Both","tile","25","M_romp.wav","space","469.432723476","132","336913.837251","343796.780742","344562.989879","345330.058507","346096.11646","346863.191272","347629.941147","348396.56859","337679.941889","338447.237447","339196.320141","339962.989632","340730.083303","341496.772271","342262.82806","343029.850003","347638.944162"
"Mixed","Both","tile","34","F_reek.wav","None","728.392145596","132","351530.162574","343796.780742","344562.989879","345330.058507","346096.11646","346863.191272","347629.941147","348396.56859","337679.941889","338447.237447","339196.320141","339962.989632","340730.083303","341496.772271","342262.82806","343029.850003","348405.934261"
"Mixed","Both","tile","34","M_tile.wav","None","721.38945706","132","351530.162574","343796.780742","344562.989879","345330.058507","346096.11646","346863.191272","347629.941147","348396.56859","352296.928216","338447.237447","339196.320141","339962.989632","340730.083303","341496.772271","342262.82806","343029.850003","351540.195741"
"Mixed","Both","tile","34","M_jolt.wav","space","529.485183361","132","351530.162574","343796.780742","344562.989879","345330.058507","346096.11646","346863.191272","347629.941147","348396.56859","352296.928216","353062.962054","339196.320141","339962.989632","340730.083303","341496.772271","342262.82806","343029.850003","352306.764443"
"Mixed","Both","tile","34","F_romp.wav","None","719.907916966","132","351530.162574","343796.780742","344562.989879","345330.058507","346096.11646","346863.191272","347629.941147","348396.56859","352296.928216","353062.962054","353830.04614","339962.989632","340730.083303","341496.772271","342262.82806","343029.850003","353072.449847"
"Mixed","Both","tile","34","F_dime.wav","None","718.660418119","132","351530.162574","343796.780742","344562.989879","345330.058507","346096.11646","346863.191272","347629.941147","348396.56859","352296.928216","353062.962054","353830.04614","354579.678538","340730.083303","341496.772271","342262.82806","343029.850003","353839.779723"
"Mixed","Both","tile","34","M_tile.wav","None","735.674632539","132","351530.162574","343796.780742","344562.989879","345330.058507","346096.11646","346863.191272","347629.941147","348396.56859","352296.928216","353062.962054","353830.04614","354579.678538","355345.683005","341496.772271","342262.82806","343029.850003","354589.125211"
"Mixed","Both","tile","34","F_depth.wav","space","497.538701864","132","351530.162574","343796.780742","344562.989879","345330.058507","346096.11646","346863.191272","347629.941147","348396.56859","352296.928216","353062.962054","353830.04614","354579.678538","355345.683005","356112.837582","342262.82806","343029.850003","355354.654794"
"Mixed","Both","tile","34","M_gnash.wav","None","733.891033859","132","351530.162574","343796.780742","344562.989879","345330.058507","346096.11646","346863.191272","347629.941147","348396.56859","352296.928216","353062.962054","353830.04614","354579.678538","355345.683005","356112.837582","356879.286944","343029.850003","356123.048831"
"Mixed","Both","tile","34","F_done.wav","None","734.652827436","132","351530.162574","343796.780742","344562.989879","345330.058507","346096.11646","346863.191272","347629.941147","348396.56859","352296.928216","353062.962054","353830.04614","354579.678538","355345.683005","356112.837582","356879.286944","357645.793502","356888.68044"
"Mixed","Both","tile","34","F_tile.wav","None","735.26560131","132","351530.162574","358412.941896","344562.989879","345330.058507","346096.11646","346863.191272","347629.941147","348396.56859","352296.928216","353062.962054","353830.04614","354579.678538","355345.683005","356112.837582","356879.286944","357645.793502","357654.564022"
"Mixed","Both","tile","34","M_reek.wav","space","501.596241957","132","351530.162574","358412.941896","359179.59129","345330.058507","346096.11646","346863.191272","347629.941147","348396.56859","352296.928216","353062.962054","353830.04614","354579.678538","355345.683005","356112.837582","356879.286944","357645.793502","358422.50729"
"Mixed","Both","tile","34","F_ball.wav","None","731.578446168","132","351530.162574","358412.941896","359179.59129","359946.225226","346096.11646","346863.191272","347629.941147","348396.56859","352296.928216","353062.962054","353830.04614","354579.678538","355345.683005","356112.837582","356879.286944","357645.793502","359189.166269"
"Mixed","Both","tile","34","F_tile.wav","None","731.703659811","132","351530.162574","358412.941896","359179.59129","359946.225226","360712.820825","346863.191272","347629.941147","348396.56859","352296.928216","353062.962054","353830.04614","354579.678538","355345.683005","356112.837582","356879.286944","357645.793502","359955.542976"
"Mixed","Both","tile","34","M_done.wav","space","481.786826393","132","351530.162574","358412.941896","359179.59129","359946.225226","360712.820825","361479.018523","347629.941147","348396.56859","352296.928216","353062.962054","353830.04614","354579.678538","355345.683005","356112.837582","356879.286944","357645.793502","360722.193607"
"Mixed","Both","tile","34","M_reek.wav","None","730.056714034","132","351530.162574","358412.941896","359179.59129","359946.225226","360712.820825","361479.018523","362246.128889","348396.56859","352296.928216","353062.962054","353830.04614","354579.678538","355345.683005","356112.837582","356879.286944","357645.793502","361488.486838"
"Mixed","Both","tile","34","M_knife.wav","None","729.279152816","132","351530.162574","358412.941896","359179.59129","359946.225226","360712.820825","361479.018523","362246.128889","363012.987591","352296.928216","353062.962054","353830.04614","354579.678538","355345.683005","356112.837582","356879.286944","357645.793502","362255.274431"
"Mixed","Both","ball","11","F_cling.wav","None","727.983114426","132","366146.247054","358412.941896","359179.59129","359946.225226","360712.820825","361479.018523","362246.128889","363012.987591","352296.928216","353062.962054","353830.04614","354579.678538","355345.683005","356112.837582","356879.286944","357645.793502","363022.508156"
"Mixed","Both","ball","11","M_priest.wav","None","720.453601098","132","366146.247054","358412.941896","359179.59129","359946.225226","360712.820825","361479.018523","362246.128889","363012.987591","366912.406105","353062.962054","353830.04614","354579.678538","355345.683005","356112.837582","356879.286944","357645.793502","366156.707184"
"Mixed","Both","ball","11","M_gnash.wav","None","722.127444576","132","366146.247054","358412.941896","359179.59129","359946.225226","360712.820825","361479.018523","362246.128889","363012.987591","366912.406105","367679.701973","353830.04614","354579.678538","355345.683005","356112.837582","356879.286944","357645.793502","366921.257009"
"Mixed","Both","ball","11","F_ball.wav","None","720.198845433","132","366146.247054","358412.941896","359179.59129","359946.225226","360712.820825","361479.018523","362246.128889","363012.987591","366912.406105","367679.701973","368446.293862","354579.678538","355345.683005","356112.837582","356879.286944","357645.793502","367689.261802"
"Mixed","Both","ball","11","F_jaw.wav","space","427.800271544","132","366146.247054","358412.941896","359179.59129","359946.225226","360712.820825","361479.018523","362246.128889","363012.987591","366912.406105","367679.701973","368446.293862","369195.522175","355345.683005","356112.837582","356879.286944","357645.793502","368455.999619"
"Mixed","Both","ball","11","M_jaw.wav","None","735.254162049","132","366146.247054","358412.941896","359179.59129","359946.225226","360712.820825","361479.018523","362246.128889","363012.987591","366912.406105","367679.701973","368446.293862","369195.522175","369962.008019","356112.837582","356879.286944","357645.793502","369204.657514"
"Mixed","Both","ball","11","M_cad.wav","None","735.173159628","132","366146.247054","358412.941896","359179.59129","359946.225226","360712.820825","361479.018523","362246.128889","363012.987591","366912.406105","367679.701973","368446.293862","369195.522175","369962.008019","370729.187948","356879.286944","357645.793502","369970.846865"
"Mixed","Both","ball","11","M_ball.wav","None","733.959051082","132","366146.247054","358412.941896","359179.59129","359946.225226","360712.820825","361479.018523","362246.128889","363012.987591","366912.406105","367679.701973","368446.293862","369195.522175","369962.008019","370729.187948","371495.770871","357645.793502","370738.325452"
"Mixed","Both","ball","11","F_bluff.wav","space","466.543843911","132","366146.247054","358412.941896","359179.59129","359946.225226","360712.820825","361479.018523","362246.128889","363012.987591","366912.406105","367679.701973","368446.293862","369195.522175","369962.008019","370729.187948","371495.770871","372262.499722","371505.167149"
"Mixed","Both","ball","11","F_ball.wav","None","731.988095737","132","366146.247054","373029.258253","359179.59129","359946.225226","360712.820825","361479.018523","362246.128889","363012.987591","366912.406105","367679.701973","368446.293862","369195.522175","369962.008019","370729.187948","371495.770871","372262.499722","372271.993698"
"Mixed","Both","ball","11","M_gnash.wav","None","731.317197962","132","366146.247054","373029.258253","373795.312805","359946.225226","360712.820825","361479.018523","362246.128889","363012.987591","366912.406105","367679.701973","368446.293862","369195.522175","369962.008019","370729.187948","371495.770871","372262.499722","373038.814372"
"Mixed","Both","ball","11","F_tile.wav","space","95.4229932977","132","366146.247054","373029.258253","373795.312805","374561.976112","360712.820825","361479.018523","362246.128889","363012.987591","366912.406105","367679.701973","368446.293862","369195.522175","369962.008019","370729.187948","371495.770871","372262.499722","373804.18195"
"Mixed","Both","ball","11","M_ball.wav","None","732.138352119","132","366146.247054","373029.258253","373795.312805","374561.976112","375328.651786","361479.018523","362246.128889","363012.987591","366912.406105","367679.701973","368446.293862","369195.522175","369962.008019","370729.187948","371495.770871","372262.499722","374570.906782"
"Mixed","Both","ball","11","F_dime.wav","space","577.892156725","132","366146.247054","373029.258253","373795.312805","374561.976112","375328.651786","376095.745766","362246.128889","363012.987591","366912.406105","367679.701973","368446.293862","369195.522175","369962.008019","370729.187948","371495.770871","372262.499722","375337.685718"
"Mixed","Both","ball","11","M_lash.wav","None","728.57084556","132","366146.247054","373029.258253","373795.312805","374561.976112","375328.651786","376095.745766","376862.308593","363012.987591","366912.406105","367679.701973","368446.293862","369195.522175","369962.008019","370729.187948","371495.770871","372262.499722","376105.245307"
"Mixed","Both","ball","11","F_priest.wav","None","728.445631918","132","366146.247054","373029.258253","373795.312805","374561.976112","375328.651786","376095.745766","376862.308593","377629.100206","366912.406105","367679.701973","368446.293862","369195.522175","369962.008019","370729.187948","371495.770871","372262.499722","376871.644893"
"Mixed","Both","tile","35","F_dime.wav","None","727.481950657","132","380762.703464","373029.258253","373795.312805","374561.976112","375328.651786","376095.745766","376862.308593","377629.100206","366912.406105","367679.701973","368446.293862","369195.522175","369962.008019","370729.187948","371495.770871","372262.499722","377638.822967"
"Mixed","Both","tile","35","M_tile.wav","None","721.543423482","132","380762.703464","373029.258253","373795.312805","374561.976112","375328.651786","376095.745766","376862.308593","377629.100206","381528.609306","367679.701973","368446.293862","369195.522175","369962.008019","370729.187948","371495.770871","372262.499722","380772.421898"
"Mixed","Both","tile","35","M_done.wav","space","401.951230364","132","380762.703464","373029.258253","373795.312805","374561.976112","375328.651786","376095.745766","376862.308593","377629.100206","381528.609306","382295.938255","368446.293862","369195.522175","369962.008019","370729.187948","371495.770871","372262.499722","381537.471031"
"Mixed","Both","tile","35","F_done.wav","None","719.384493073","132","380762.703464","373029.258253","373795.312805","374561.976112","375328.651786","376095.745766","376862.308593","377629.100206","381528.609306","382295.938255","383061.760003","369195.522175","369962.008019","370729.187948","371495.770871","372262.499722","382305.754386"
"Mixed","Both","tile","35","F_jaw.wav","None","720.976097451","132","380762.703464","373029.258253","373795.312805","374561.976112","375328.651786","376095.745766","376862.308593","377629.100206","381528.609306","382295.938255","383061.760003","383829.02248","369962.008019","370729.187948","371495.770871","372262.499722","383070.6579"
"Mixed","Both","tile","35","F_park.wav","None","719.393768173","132","380762.703464","373029.258253","373795.312805","374561.976112","375328.651786","376095.745766","376862.308593","377629.100206","381528.609306","382295.938255","383061.760003","383829.02248","384595.160818","370729.187948","371495.770871","372262.499722","383838.614154"
"Mixed","Both","tile","35","F_tile.wav","None","720.413718198","132","380762.703464","373029.258253","373795.312805","374561.976112","375328.651786","376095.745766","376862.308593","377629.100206","381528.609306","382295.938255","383061.760003","383829.02248","384595.160818","385345.149069","371495.770871","372262.499722","384604.076029"
"Mixed","Both","tile","35","F_done.wav","space","529.072751291","132","380762.703464","373029.258253","373795.312805","374561.976112","375328.651786","376095.745766","376862.308593","377629.100206","381528.609306","382295.938255","383061.760003","383829.02248","384595.160818","385345.149069","386112.030341","372262.499722","385354.207426"
"Mixed","Both","tile","35","M_bluff.wav","None","734.045309422","132","380762.703464","373029.258253","373795.312805","374561.976112","375328.651786","376095.745766","376862.308593","377629.100206","381528.609306","382295.938255","383061.760003","383829.02248","384595.160818","385345.149069","386112.030341","386878.714671","386121.22164"
"Mixed","Both","tile","35","M_cling.wav","None","733.490350191","132","380762.703464","387645.370867","373795.312805","374561.976112","375328.651786","376095.745766","376862.308593","377629.100206","381528.609306","382295.938255","383061.760003","383829.02248","384595.160818","385345.149069","386112.030341","386878.714671","386887.767463"
"Mixed","Both","tile","35","M_romp.wav","None","732.13989794","132","380762.703464","387645.370867","388411.616486","374561.976112","375328.651786","376095.745766","376862.308593","377629.100206","381528.609306","382295.938255","383061.760003","383829.02248","384595.160818","385345.149069","386112.030341","386878.714671","387655.499259"
"Mixed","Both","tile","35","M_jaw.wav","None","733.588666131","132","380762.703464","387645.370867","388411.616486","389178.666564","375328.651786","376095.745766","376862.308593","377629.100206","381528.609306","382295.938255","383061.760003","383829.02248","384595.160818","385345.149069","386112.030341","386878.714671","388420.476665"
"Mixed","Both","tile","35","F_tile.wav","None","732.608908031","132","380762.703464","387645.370867","388411.616486","389178.666564","389945.256598","376095.745766","376862.308593","377629.100206","381528.609306","382295.938255","383061.760003","383829.02248","384595.160818","385345.149069","386112.030341","386878.714671","389187.648865"
"Mixed","Both","tile","35","M_jolt.wav","space","544.607898919","132","380762.703464","387645.370867","388411.616486","389178.666564","389945.256598","390711.539318","376862.308593","377629.100206","381528.609306","382295.938255","383061.760003","383829.02248","384595.160818","385345.149069","386112.030341","386878.714671","389954.579604"
"Mixed","Both","tile","35","M_tile.wav","None","731.591122167","132","380762.703464","387645.370867","388411.616486","389178.666564","389945.256598","390711.539318","391477.971675","377629.100206","381528.609306","382295.938255","383061.760003","383829.02248","384595.160818","385345.149069","386112.030341","386878.714671","390720.220178"
"Mixed","Both","tile","35","F_park.wav","space","483.991204761","132","380762.703464","387645.370867","388411.616486","389178.666564","389945.256598","390711.539318","391477.971675","392245.242191","381528.609306","382295.938255","383061.760003","383829.02248","384595.160818","385345.149069","386112.030341","386878.714671","391487.066204"
"Mixed","Both","done","47","F_bluff.wav","None","728.979258449","132","395378.848851","387645.370867","388411.616486","389178.666564","389945.256598","390711.539318","391477.971675","392245.242191","381528.609306","382295.938255","383061.760003","383829.02248","384595.160818","385345.149069","386112.030341","386878.714671","392254.558704"
"Mixed","Both","done","47","M_dime.wav","None","721.625662525","132","395378.848851","387645.370867","388411.616486","389178.666564","389945.256598","390711.539318","391477.971675","392245.242191","396145.461145","382295.938255","383061.760003","383829.02248","384595.160818","385345.149069","386112.030341","386878.714671","395388.44207"
"Mixed","Both","done","47","M_done.wav","None","721.140575653","132","395378.848851","387645.370867","388411.616486","389178.666564","389945.256598","390711.539318","391477.971675","392245.242191","396145.461145","396912.387555","383061.760003","383829.02248","384595.160818","385345.149069","386112.030341","386878.714671","396155.391359"
"Mixed","Both","done","47","M_dime.wav","space","560.474785394","132","395378.848851","387645.370867","388411.616486","389178.666564","389945.256598","390711.539318","391477.971675","392245.242191","396145.461145","396912.387555","397678.697481","383829.02248","384595.160818","385345.149069","386112.030341","386878.714671","396922.478228"
"Mixed","Both","done","47","F_dime.wav","None","719.169311109","132","395378.848851","387645.370867","388411.616486","389178.666564","389945.256598","390711.539318","391477.971675","392245.242191","396145.461145","396912.387555","397678.697481","398444.999678","384595.160818","385345.149069","386112.030341","386878.714671","397688.535563"
"Mixed","Both","done","47","M_reek.wav","None","719.563502178","132","395378.848851","387645.370867","388411.616486","389178.666564","389945.256598","390711.539318","391477.971675","392245.242191","396145.461145","396912.387555","397678.697481","398444.999678","399212.053776","385345.149069","386112.030341","386878.714671","398454.44326"
"Mixed","Both","done","47","M_jolt.wav","None","718.284777249","132","395378.848851","387645.370867","388411.616486","389178.666564","389945.256598","390711.539318","391477.971675","392245.242191","396145.461145","396912.387555","397678.697481","398444.999678","399212.053776","399978.632061","386112.030341","386878.714671","399222.078596"
"Mixed","Both","done","47","M_ball.wav","None","718.949182483","132","395378.848851","387645.370867","388411.616486","389178.666564","389945.256598","390711.539318","391477.971675","392245.242191","396145.461145","396912.387555","397678.697481","398444.999678","399212.053776","399978.632061","400728.537146","386878.714671","399988.315867"
