"Condition","Talker","Target","Trial","current_stimulus","response_response","response_time_response","subject_nr","time_Audio1","time_Audio10","time_Audio11","time_Audio12","time_Audio13","time_Audio14","time_Audio15","time_Audio16","time_Audio2","time_Audio3","time_Audio4","time_Audio5","time_Audio6","time_Audio7","time_Audio8","time_Audio9","time_response","title"
"Mixed","Both","ball","4","F_dime.wav","NA","NA","107","278107.190922","NA","NA","NA","NA","NA","NA","NA","NA","NA","NA","NA","NA","NA","NA","NA","NA","Mapping"
"Mixed","Both","ball","4","M_dime.wav","None","718.494904693","107","278107.190922","NA","NA","NA","NA","NA","NA","NA","278875.26268","NA","NA","NA","NA","NA","NA","NA","278122.261168","Mapping"
"Mixed","Both","ball","4","F_cad.wav","None","722.925329115","107","278107.190922","NA","NA","NA","NA","NA","NA","NA","278875.26268","279642.742683","NA","NA","NA","NA","NA","NA","278885.832937","Mapping"
"Mixed","Both","ball","4","M_done.wav","None","725.494851824","107","278107.190922","NA","NA","NA","NA","NA","NA","NA","278875.26268","279642.742683","280408.82616","NA","NA","NA","NA","NA","279651.890444","Mapping"
"Mixed","Both","ball","4","M_cave.wav","None","726.432877127","107","278107.190922","NA","NA","NA","NA","NA","NA","NA","278875.26268","279642.742683","280408.82616","281176.642233","NA","NA","NA","NA","280418.82105","Mapping"
"Mixed","Both","ball","4","M_cave.wav","None","726.212747861","107","278107.190922","NA","NA","NA","NA","NA","NA","NA","278875.26268","279642.742683","280408.82616","281176.642233","281943.651678","NA","NA","NA","281186.581471","Mapping"
"Mixed","Both","ball","4","M_ball.wav","None","724.54724228","107","278107.190922","NA","NA","NA","NA","NA","NA","NA","278875.26268","279642.742683","280408.82616","281176.642233","281943.651678","282710.63979","NA","NA","281952.936091","Mapping"
"Mixed","Both","ball","4","M_reek.wav","space","475.274489727","107","278107.190922","NA","NA","NA","NA","NA","NA","NA","278875.26268","279642.742683","280408.82616","281176.642233","281943.651678","282710.63979","283478.052703","NA","282720.739488","Mapping"
"Mixed","Both","ball","4","M_ball.wav","None","725.440128706","107","278107.190922","NA","NA","NA","NA","NA","NA","NA","278875.26268","279642.742683","280408.82616","281176.642233","281943.651678","282710.63979","283478.052703","284245.043907","283487.69792","Mapping"
"Mixed","Both","ball","4","F_jolt.wav","space","629.451409448","107","278107.190922","285012.530712","NA","NA","NA","NA","NA","NA","278875.26268","279642.742683","280408.82616","281176.642233","281943.651678","282710.63979","283478.052703","284245.043907","284254.520935","Mapping"
"Mixed","Both","ball","4","F_ball.wav","None","724.390801042","107","278107.190922","285012.530712","285779.625488","NA","NA","NA","NA","NA","278875.26268","279642.742683","280408.82616","281176.642233","281943.651678","282710.63979","283478.052703","284245.043907","285022.259096","Mapping"
"Mixed","Both","ball","4","F_lash.wav","space","518.524461426","107","278107.190922","285012.530712","285779.625488","286546.954307","NA","NA","NA","NA","278875.26268","279642.742683","280408.82616","281176.642233","281943.651678","282710.63979","283478.052703","284245.043907","285789.437348","Mapping"
"Mixed","Both","ball","4","F_lash.wav","None","726.411235519","107","278107.190922","285012.530712","285779.625488","286546.954307","287313.934381","NA","NA","NA","278875.26268","279642.742683","280408.82616","281176.642233","281943.651678","282710.63979","283478.052703","284245.043907","286556.933738","Mapping"
"Mixed","Both","ball","4","F_ball.wav","None","724.89536833","107","278107.190922","285012.530712","285779.625488","286546.954307","287313.934381","288081.946159","NA","NA","278875.26268","279642.742683","280408.82616","281176.642233","281943.651678","282710.63979","283478.052703","284245.043907","287323.535077","Mapping"
"Mixed","Both","ball","4","M_jolt.wav","space","368.818158749","107","278107.190922","285012.530712","285779.625488","286546.954307","287313.934381","288081.946159","288848.364469","NA","278875.26268","279642.742683","280408.82616","281176.642233","281943.651678","282710.63979","283478.052703","284245.043907","288091.076297","Mapping"
"Mixed","Both","ball","4","F_dime.wav","None","723.065074533","107","278107.190922","285012.530712","285779.625488","286546.954307","287313.934381","288081.946159","288848.364469","289615.985145","278875.26268","279642.742683","280408.82616","281176.642233","281943.651678","282710.63979","283478.052703","284245.043907","288858.052351","Mapping"
"Mixed","Both","cave","15","M_ball.wav","None","720.498953015","107","292768.363924","285012.530712","285779.625488","286546.954307","287313.934381","288081.946159","288848.364469","289615.985145","278875.26268","279642.742683","280408.82616","281176.642233","281943.651678","282710.63979","283478.052703","284245.043907","289625.466192","Mapping"
"Mixed","Both","cave","15","M_cave.wav","None","720.968275331","107","292768.363924","285012.530712","285779.625488","286546.954307","287313.934381","288081.946159","288848.364469","289615.985145","293518.765306","279642.742683","280408.82616","281176.642233","281943.651678","282710.63979","283478.052703","284245.043907","292777.440575","Mapping"
"Mixed","Both","cave","15","M_lash.wav","space","411.821720656","107","292768.363924","285012.530712","285779.625488","286546.954307","287313.934381","288081.946159","288848.364469","289615.985145","293518.765306","294302.857701","280408.82616","281176.642233","281943.651678","282710.63979","283478.052703","284245.043907","293527.955113","Mapping"
"Mixed","Both","cave","15","F_cave.wav","None","719.499093015","107","292768.363924","285012.530712","285779.625488","286546.954307","287313.934381","288081.946159","288848.364469","289615.985145","293518.765306","294302.857701","295070.290402","281176.642233","281943.651678","282710.63979","283478.052703","284245.043907","294312.31556","Mapping"
"Mixed","Both","cave","15","F_priest.wav","space","476.340203546","107","292768.363924","285012.530712","285779.625488","286546.954307","287313.934381","288081.946159","288848.364469","289615.985145","293518.765306","294302.857701","295070.290402","295837.23492","281943.651678","282710.63979","283478.052703","284245.043907","295079.385912","Mapping"
"Mixed","Both","cave","15","M_jaw.wav","None","721.402042545","107","292768.363924","285012.530712","285779.625488","286546.954307","287313.934381","288081.946159","288848.364469","289615.985145","293518.765306","294302.857701","295070.290402","295837.23492","296604.396478","282710.63979","283478.052703","284245.043907","295846.373715","Mapping"
"Mixed","Both","cave","15","M_jolt.wav","None","721.101218835","107","292768.363924","285012.530712","285779.625488","286546.954307","287313.934381","288081.946159","288848.364469","289615.985145","293518.765306","294302.857701","295070.290402","295837.23492","296604.396478","297354.832796","283478.052703","284245.043907","296614.385802","Mapping"
"Mixed","Both","cave","15","M_done.wav","None","735.688538291","107","292768.363924","285012.530712","285779.625488","286546.954307","287313.934381","288081.946159","288848.364469","289615.985145","293518.765306","294302.857701","295070.290402","295837.23492","296604.396478","297354.832796","298122.235816","284245.043907","297364.707727","Mapping"
"Mixed","Both","cave","15","F_cave.wav","None","734.029834624","107","292768.363924","285012.530712","285779.625488","286546.954307","287313.934381","288081.946159","288848.364469","289615.985145","293518.765306","294302.857701","295070.290402","295837.23492","296604.396478","297354.832796","298122.235816","298889.326263","298131.404599","Mapping"
"Mixed","Both","cave","15","F_lash.wav","space","408.849347848","107","292768.363924","299656.626948","285779.625488","286546.954307","287313.934381","288081.946159","288848.364469","289615.985145","293518.765306","294302.857701","295070.290402","295837.23492","296604.396478","297354.832796","298122.235816","298889.326263","298898.791233","Mapping"
"Mixed","Both","cave","15","M_cave.wav","None","729.540049098","107","292768.363924","299656.626948","300423.476551","286546.954307","287313.934381","288081.946159","288848.364469","289615.985145","293518.765306","294302.857701","295070.290402","295837.23492","296604.396478","297354.832796","298122.235816","298889.326263","299665.768215","Mapping"
"Mixed","Both","cave","15","F_jolt.wav","space","466.379013378","107","292768.363924","299656.626948","300423.476551","301191.257687","287313.934381","288081.946159","288848.364469","289615.985145","293518.765306","294302.857701","295070.290402","295837.23492","296604.396478","297354.832796","298122.235816","298889.326263","300433.193186","Mapping"
"Mixed","Both","cave","15","F_park.wav","None","724.206225481","107","292768.363924","299656.626948","300423.476551","301191.257687","301957.881595","288081.946159","288848.364469","289615.985145","293518.765306","294302.857701","295070.290402","295837.23492","296604.396478","297354.832796","298122.235816","298889.326263","301200.683702","Mapping"
"Mixed","Both","cave","15","F_priest.wav","None","728.311093524","107","292768.363924","299656.626948","300423.476551","301191.257687","301957.881595","302725.603371","288848.364469","289615.985145","293518.765306","294302.857701","295070.290402","295837.23492","296604.396478","297354.832796","298122.235816","298889.326263","301967.391704","Mapping"
"Mixed","Both","cave","15","F_cling.wav","None","726.006221026","107","292768.363924","299656.626948","300423.476551","301191.257687","301957.881595","302725.603371","303492.54789","289615.985145","293518.765306","294302.857701","295070.290402","295837.23492","296604.396478","297354.832796","298122.235816","298889.326263","302734.729489","Mapping"
"Mixed","Both","cave","15","M_greet.wav","None","727.502919268","107","292768.363924","299656.626948","300423.476551","301191.257687","301957.881595","302725.603371","303492.54789","304259.942253","293518.765306","294302.857701","295070.290402","295837.23492","296604.396478","297354.832796","298122.235816","298889.326263","303502.250922","Mapping"
"Mixed","Both","tile","36","M_romp.wav","None","728.988178074","107","307395.513244","299656.626948","300423.476551","301191.257687","301957.881595","302725.603371","303492.54789","304259.942253","293518.765306","294302.857701","295070.290402","295837.23492","296604.396478","297354.832796","298122.235816","298889.326263","304269.320037","Mapping"
"Mixed","Both","tile","36","M_tile.wav","None","724.226322025","107","307395.513244","299656.626948","300423.476551","301191.257687","301957.881595","302725.603371","303492.54789","304259.942253","308162.968514","294302.857701","295070.290402","295837.23492","296604.396478","297354.832796","298122.235816","298889.326263","307404.582166","Mapping"
"Mixed","Both","tile","36","M_cling.wav","space","359.366174322","107","307395.513244","299656.626948","300423.476551","301191.257687","301957.881595","302725.603371","303492.54789","304259.942253","308162.968514","308929.999292","295070.290402","295837.23492","296604.396478","297354.832796","298122.235816","298889.326263","308172.995867","Mapping"
"Mixed","Both","tile","36","F_tile.wav","None","725.118899252","107","307395.513244","299656.626948","300423.476551","301191.257687","301957.881595","302725.603371","303492.54789","304259.942253","308162.968514","308929.999292","309697.173834","295837.23492","296604.396478","297354.832796","298122.235816","298889.326263","308940.0993","Mapping"
"Mixed","Both","tile","36","M_greet.wav","space","345.856934786","107","307395.513244","299656.626948","300423.476551","301191.257687","301957.881595","302725.603371","303492.54789","304259.942253","308162.968514","308929.999292","309697.173834","310464.273558","296604.396478","297354.832796","298122.235816","298889.326263","309706.457939","Mapping"
"Mixed","Both","tile","36","M_tile.wav","None","724.287847057","107","307395.513244","299656.626948","300423.476551","301191.257687","301957.881595","302725.603371","303492.54789","304259.942253","308162.968514","308929.999292","309697.173834","310464.273558","311231.857443","297354.832796","298122.235816","298889.326263","310473.973188","Mapping"
"Mixed","Both","tile","36","M_knife.wav","space","329.915444832","107","307395.513244","299656.626948","300423.476551","301191.257687","301957.881595","302725.603371","303492.54789","304259.942253","308162.968514","308929.999292","309697.173834","310464.273558","311231.857443","311998.896568","298122.235816","298889.326263","311241.418565","Mapping"
"Mixed","Both","tile","36","F_depth.wav","None","722.935840953","107","307395.513244","299656.626948","300423.476551","301191.257687","301957.881595","302725.603371","303492.54789","304259.942253","308162.968514","308929.999292","309697.173834","310464.273558","311231.857443","311998.896568","312766.350292","298889.326263","312008.466037","Mapping"
"Mixed","Both","tile","36","F_romp.wav","None","723.676306196","107","307395.513244","299656.626948","300423.476551","301191.257687","301957.881595","302725.603371","303492.54789","304259.942253","308162.968514","308929.999292","309697.173834","310464.273558","311231.857443","311998.896568","312766.350292","313533.002025","312775.823919","Mapping"
"Mixed","Both","tile","36","M_done.wav","None","725.844215136","107","307395.513244","314300.845305","300423.476551","301191.257687","301957.881595","302725.603371","303492.54789","304259.942253","308162.968514","308929.999292","309697.173834","310464.273558","311231.857443","311998.896568","312766.350292","313533.002025","313541.993654","Mapping"
"Mixed","Both","tile","36","F_jolt.wav","None","722.978506703","107","307395.513244","314300.845305","315067.784877","301191.257687","301957.881595","302725.603371","303492.54789","304259.942253","308162.968514","308929.999292","309697.173834","310464.273558","311231.857443","311998.896568","312766.350292","313533.002025","314310.141777","Mapping"
"Mixed","Both","tile","36","F_lash.wav","None","721.140792593","107","307395.513244","314300.845305","315067.784877","315818.736893","301957.881595","302725.603371","303492.54789","304259.942253","308162.968514","308929.999292","309697.173834","310464.273558","311231.857443","311998.896568","312766.350292","313533.002025","315077.702474","Mapping"
"Mixed","Both","tile","36","F_greet.wav","None","735.887026414","107","307395.513244","314300.845305","315067.784877","315818.736893","316602.300915","302725.603371","303492.54789","304259.942253","308162.968514","308929.999292","309697.173834","310464.273558","311231.857443","311998.896568","312766.350292","313533.002025","315828.353357","Mapping"
"Mixed","Both","tile","36","F_tile.wav","None","720.378066879","107","307395.513244","314300.845305","315067.784877","315818.736893","316602.300915","317352.848844","303492.54789","304259.942253","308162.968514","308929.999292","309697.173834","310464.273558","311231.857443","311998.896568","312766.350292","313533.002025","316611.782889","Mapping"
"Mixed","Both","tile","36","F_lash.wav","space","480.942836031","107","307395.513244","314300.845305","315067.784877","315818.736893","316602.300915","317352.848844","318120.245371","304259.942253","308162.968514","308929.999292","309697.173834","310464.273558","311231.857443","311998.896568","312766.350292","313533.002025","317362.272385","Mapping"
"Mixed","Both","tile","36","M_priest.wav","None","732.798095793","107","307395.513244","314300.845305","315067.784877","315818.736893","316602.300915","317352.848844","318120.245371","318887.223898","308162.968514","308929.999292","309697.173834","310464.273558","311231.857443","311998.896568","312766.350292","313533.002025","318129.36747","Mapping"
"Mixed","Both","done","43","M_jaw.wav","None","734.174217097","107","322023.131269","314300.845305","315067.784877","315818.736893","316602.300915","317352.848844","318120.245371","318887.223898","308162.968514","308929.999292","309697.173834","310464.273558","311231.857443","311998.896568","312766.350292","313533.002025","318896.448952","Mapping"
"Mixed","Both","done","43","F_reek.wav","None","720.597269479","107","322023.131269","314300.845305","315067.784877","315818.736893","316602.300915","317352.848844","318120.245371","318887.223898","322790.222025","308929.999292","309697.173834","310464.273558","311231.857443","311998.896568","312766.350292","313533.002025","322032.655599","Mapping"
"Mixed","Both","done","43","M_cling.wav","None","721.526329406","107","322023.131269","314300.845305","315067.784877","315818.736893","316602.300915","317352.848844","318120.245371","318887.223898","322790.222025","323541.103241","309697.173834","310464.273558","311231.857443","311998.896568","312766.350292","313533.002025","322799.756559","Mapping"
"Mixed","Both","done","43","M_done.wav","None","736.65438965","107","322023.131269","314300.845305","315067.784877","315818.736893","316602.300915","317352.848844","318120.245371","318887.223898","322790.222025","323541.103241","324308.090426","310464.273558","311231.857443","311998.896568","312766.350292","313533.002025","323550.181437","Mapping"
"Mixed","Both","done","43","M_priest.wav","space","613.284843042","107","322023.131269","314300.845305","315067.784877","315818.736893","316602.300915","317352.848844","318120.245371","318887.223898","322790.222025","323541.103241","324308.090426","325075.643084","311231.857443","311998.896568","312766.350292","313533.002025","324317.744917","Mapping"
"Mixed","Both","done","43","F_knife.wav","None","731.594492216","107","322023.131269","314300.845305","315067.784877","315818.736893","316602.300915","317352.848844","318120.245371","318887.223898","322790.222025","323541.103241","324308.090426","325075.643084","325842.589767","311998.896568","312766.350292","313533.002025","325084.965835","Mapping"
"Mixed","Both","done","43","M_done.wav","None","733.250413556","107","322023.131269","314300.845305","315067.784877","315818.736893","316602.300915","317352.848844","318120.245371","318887.223898","322790.222025","323541.103241","324308.090426","325075.643084","325842.589767","326609.642496","312766.350292","313533.002025","325851.712794","Mapping"
"Mixed","Both","done","43","F_reek.wav","space","496.359662618","107","322023.131269","314300.845305","315067.784877","315818.736893","316602.300915","317352.848844","318120.245371","318887.223898","322790.222025","323541.103241","324308.090426","325075.643084","325842.589767","326609.642496","327376.987701","313533.002025","326618.622067","Mapping"
"Mixed","Both","done","43","F_done.wav","None","728.454239666","107","322023.131269","314300.845305","315067.784877","315818.736893","316602.300915","317352.848844","318120.245371","318887.223898","322790.222025","323541.103241","324308.090426","325075.643084","325842.589767","326609.642496","327376.987701","328144.426894","327386.586851","Mapping"
"Mixed","Both","done","43","M_knife.wav","space","656.841203105","107","322023.131269","328911.523525","315067.784877","315818.736893","316602.300915","317352.848844","318120.245371","318887.223898","322790.222025","323541.103241","324308.090426","325075.643084","325842.589767","326609.642496","327376.987701","328144.426894","328154.082622","Mapping"
"Mixed","Both","done","43","M_ball.wav","None","727.621022612","107","322023.131269","328911.523525","329678.754337","315818.736893","316602.300915","317352.848844","318120.245371","318887.223898","322790.222025","323541.103241","324308.090426","325075.643084","325842.589767","326609.642496","327376.987701","328144.426894","328921.101961","Mapping"
"Mixed","Both","done","43","F_tile.wav","None","725.575854536","107","322023.131269","328911.523525","329678.754337","330445.569313","316602.300915","317352.848844","318120.245371","318887.223898","322790.222025","323541.103241","324308.090426","325075.643084","325842.589767","326609.642496","327376.987701","328144.426894","329688.41192","Mapping"
"Mixed","Both","done","43","F_jaw.wav","None","723.750507459","107","322023.131269","328911.523525","329678.754337","330445.569313","331213.350758","317352.848844","318120.245371","318887.223898","322790.222025","323541.103241","324308.090426","325075.643084","325842.589767","326609.642496","327376.987701","328144.426894","330455.459084","Mapping"
"Mixed","Both","done","43","F_cave.wav","None","725.169912912","107","322023.131269","328911.523525","329678.754337","330445.569313","331213.350758","331980.382463","318120.245371","318887.223898","322790.222025","323541.103241","324308.090426","325075.643084","325842.589767","326609.642496","327376.987701","328144.426894","331222.929194","Mapping"
"Mixed","Both","done","43","F_done.wav","None","723.877885845","107","322023.131269","328911.523525","329678.754337","330445.569313","331213.350758","331980.382463","332747.826603","318887.223898","322790.222025","323541.103241","324308.090426","325075.643084","325842.589767","326609.642496","327376.987701","328144.426894","331990.565639","Mapping"
"Mixed","Both","done","43","M_depth.wav","space","469.498861115","107","322023.131269","328911.523525","329678.754337","330445.569313","331213.350758","331980.382463","332747.826603","333514.233782","322790.222025","323541.103241","324308.090426","325075.643084","325842.589767","326609.642496","327376.987701","328144.426894","332757.335476","Mapping"
"Mixed","Both","ball","6","F_lash.wav","None","724.737382028","107","336633.821855","328911.523525","329678.754337","330445.569313","331213.350758","331980.382463","332747.826603","333514.233782","322790.222025","323541.103241","324308.090426","325075.643084","325842.589767","326609.642496","327376.987701","328144.426894","333523.181509","Mapping"
"Mixed","Both","ball","6","M_bluff.wav","None","720.839350484","107","336633.821855","328911.523525","329678.754337","330445.569313","331213.350758","331980.382463","332747.826603","333514.233782","337401.313607","323541.103241","324308.090426","325075.643084","325842.589767","326609.642496","327376.987701","328144.426894","336643.351751","Mapping"
"Mixed","Both","ball","6","M_ball.wav","space","423.84570092","107","336633.821855","328911.523525","329678.754337","330445.569313","331213.350758","331980.382463","332747.826603","333514.233782","337401.313607","338168.412094","324308.090426","325075.643084","325842.589767","326609.642496","327376.987701","328144.426894","337410.858034","Mapping"
"Mixed","Both","ball","6","M_tile.wav","space","568.443567026","107","336633.821855","328911.523525","329678.754337","330445.569313","331213.350758","331980.382463","332747.826603","333514.233782","337401.313607","338168.412094","338918.771737","325075.643084","325842.589767","326609.642496","327376.987701","328144.426894","338178.235702","Mapping"
"Mixed","Both","ball","6","M_jolt.wav","None","733.911112417","107","336633.821855","328911.523525","329678.754337","330445.569313","331213.350758","331980.382463","332747.826603","333514.233782","337401.313607","338168.412094","338918.771737","339686.133637","325842.589767","326609.642496","327376.987701","328144.426894","338928.398403","Mapping"
"Mixed","Both","ball","6","F_ball.wav","None","732.292600907","107","336633.821855","328911.523525","329678.754337","330445.569313","331213.350758","331980.382463","332747.826603","333514.233782","337401.313607","338168.412094","338918.771737","339686.133637","340453.408042","326609.642496","327376.987701","328144.426894","339695.350961","Mapping"
"Mixed","Both","ball","6","F_cave.wav","space","506.980005652","107","336633.821855","328911.523525","329678.754337","330445.569313","331213.350758","331980.382463","332747.826603","333514.233782","337401.313607","338168.412094","338918.771737","339686.133637","340453.408042","341221.120542","327376.987701","328144.426894","340463.628008","Mapping"
"Mixed","Both","ball","6","M_park.wav","None","726.725353394","107","336633.821855","328911.523525","329678.754337","330445.569313","331213.350758","331980.382463","332747.826603","333514.233782","337401.313607","338168.412094","338918.771737","339686.133637","340453.408042","341221.120542","341987.676433","328144.426894","341230.707016","Mapping"
"Mixed","Both","ball","6","M_ball.wav","None","729.163478129","107","336633.821855","328911.523525","329678.754337","330445.569313","331213.350758","331980.382463","332747.826603","333514.233782","337401.313607","338168.412094","338918.771737","339686.133637","340453.408042","341221.120542","341987.676433","342755.145306","341996.880462","Mapping"
"Mixed","Both","ball","6","M_knife.wav","space","542.217493989","107","336633.821855","343522.215039","329678.754337","330445.569313","331213.350758","331980.382463","332747.826603","333514.233782","337401.313607","338168.412094","338918.771737","339686.133637","340453.408042","341221.120542","341987.676433","342755.145306","342764.361084","Mapping"
"Mixed","Both","ball","6","F_jolt.wav","None","725.346758962","107","336633.821855","343522.215039","344289.574466","330445.569313","331213.350758","331980.382463","332747.826603","333514.233782","337401.313607","338168.412094","338918.771737","339686.133637","340453.408042","341221.120542","341987.676433","342755.145306","343531.117317","Mapping"
"Mixed","Both","ball","6","F_bluff.wav","None","722.696542274","107","336633.821855","343522.215039","344289.574466","345056.612664","331213.350758","331980.382463","332747.826603","333514.233782","337401.313607","338168.412094","338918.771737","339686.133637","340453.408042","341221.120542","341987.676433","342755.145306","344299.257711","Mapping"
"Mixed","Both","ball","6","F_ball.wav","None","724.700281862","107","336633.821855","343522.215039","344289.574466","345056.612664","345823.798955","331980.382463","332747.826603","333514.233782","337401.313607","338168.412094","338918.771737","339686.133637","340453.408042","341221.120542","341987.676433","342755.145306","345065.822567","Mapping"
"Mixed","Both","ball","6","M_lash.wav","space","441.317898221","107","336633.821855","343522.215039","344289.574466","345056.612664","345823.798955","346591.152817","332747.826603","333514.233782","337401.313607","338168.412094","338918.771737","339686.133637","340453.408042","341221.120542","341987.676433","342755.145306","345833.208892","Mapping"
"Mixed","Both","ball","6","F_priest.wav","None","719.438186381","107","336633.821855","343522.215039","344289.574466","345056.612664","345823.798955","346591.152817","347341.812665","333514.233782","337401.313607","338168.412094","338918.771737","339686.133637","340453.408042","341221.120542","341987.676433","342755.145306","346601.074432","Mapping"
"Mixed","Both","ball","6","F_jolt.wav","None","734.195241239","107","336633.821855","343522.215039","344289.574466","345056.612664","345823.798955","346591.152817","347341.812665","348109.047187","337401.313607","338168.412094","338918.771737","339686.133637","340453.408042","341221.120542","341987.676433","342755.145306","347351.615559","Mapping"
"Mixed","Both","ball","1","M_jaw.wav","None","733.057491016","107","351244.872626","343522.215039","344289.574466","345056.612664","345823.798955","346591.152817","347341.812665","348109.047187","337401.313607","338168.412094","338918.771737","339686.133637","340453.408042","341221.120542","341987.676433","342755.145306","348118.176396","Mapping"
"Mixed","Both","ball","1","M_bluff.wav","None","720.367555507","107","351244.872626","343522.215039","344289.574466","345056.612664","345823.798955","346591.152817","347341.812665","348109.047187","351995.19486","338168.412094","338918.771737","339686.133637","340453.408042","341221.120542","341987.676433","342755.145306","351254.566073","Mapping"
"Mixed","Both","ball","1","M_knife.wav","None","735.192009248","107","351244.872626","343522.215039","344289.574466","345056.612664","345823.798955","346591.152817","347341.812665","348109.047187","351995.19486","352762.380223","338918.771737","339686.133637","340453.408042","341221.120542","341987.676433","342755.145306","352004.987861","Mapping"
"Mixed","Both","ball","1","F_jolt.wav","None","733.931208961","107","351244.872626","343522.215039","344289.574466","345056.612664","345823.798955","346591.152817","347341.812665","348109.047187","351995.19486","352762.380223","353529.1986","339686.133637","340453.408042","341221.120542","341987.676433","342755.145306","352771.678859","Mapping"
"Mixed","Both","ball","1","F_cad.wav","None","736.08149495","107","351244.872626","343522.215039","344289.574466","345056.612664","345823.798955","346591.152817","347341.812665","348109.047187","351995.19486","352762.380223","353529.1986","354296.902753","340453.408042","341221.120542","341987.676433","342755.145306","353534.99278","Mapping"
"Mixed","Both","ball","1","F_ball.wav","None","730.042761657","107","351244.872626","343522.215039","344289.574466","345056.612664","345823.798955","346591.152817","347341.812665","348109.047187","351995.19486","352762.380223","353529.1986","354296.902753","355063.967539","341221.120542","341987.676433","342755.145306","354306.3838","Mapping"
"Mixed","Both","ball","1","F_gnash.wav","space","481.194810942","107","351244.872626","343522.215039","344289.574466","345056.612664","345823.798955","346591.152817","347341.812665","348109.047187","351995.19486","352762.380223","353529.1986","354296.902753","355063.967539","355831.315836","341987.676433","342755.145306","355073.113136","Mapping"
"Mixed","Both","ball","1","F_done.wav","None","729.438640643","107","351244.872626","343522.215039","344289.574466","345056.612664","345823.798955","346591.152817","347341.812665","348109.047187","351995.19486","352762.380223","353529.1986","354296.902753","355063.967539","355831.315836","356598.533663","342755.145306","355840.956725","Mapping"
"Mixed","Both","ball","1","M_jolt.wav","None","727.49395296","107","351244.872626","343522.215039","344289.574466","345056.612664","345823.798955","346591.152817","347341.812665","348109.047187","351995.19486","352762.380223","353529.1986","354296.902753","355063.967539","355831.315836","356598.533663","357365.840839","356608.30162","Mapping"
"Mixed","Both","ball","1","M_ball.wav","None","725.989526138","107","351244.872626","358133.326717","344289.574466","345056.612664","345823.798955","346591.152817","347341.812665","348109.047187","351995.19486","352762.380223","353529.1986","354296.902753","355063.967539","355831.315836","356598.533663","357365.840839","357375.310756","Mapping"
"Mixed","Both","ball","1","F_tile.wav","space","683.277203236","107","351244.872626","358133.326717","358900.234136","345056.612664","345823.798955","346591.152817","347341.812665","348109.047187","351995.19486","352762.380223","353529.1986","354296.902753","355063.967539","355831.315836","356598.533663","357365.840839","358142.926486","Mapping"
"Mixed","Both","ball","1","M_bluff.wav","None","722.223819233","107","351244.872626","358133.326717","358900.234136","359667.630354","345823.798955","346591.152817","347341.812665","348109.047187","351995.19486","352762.380223","353529.1986","354296.902753","355063.967539","355831.315836","356598.533663","357365.840839","358909.33552","Mapping"
"Mixed","Both","ball","1","F_ball.wav","None","719.853093848","107","351244.872626","358133.326717","358900.234136","359667.630354","360417.932491","346591.152817","347341.812665","348109.047187","351995.19486","352762.380223","353529.1986","354296.902753","355063.967539","355831.315836","356598.533663","357365.840839","359677.171689","Mapping"
"Mixed","Both","ball","1","M_done.wav","space","518.606082536","107","351244.872626","358133.326717","358900.234136","359667.630354","360417.932491","361185.171342","347341.812665","348109.047187","351995.19486","352762.380223","353529.1986","354296.902753","355063.967539","355831.315836","356598.533663","357365.840839","360427.534424","Mapping"
"Mixed","Both","ball","1","M_ball.wav","None","732.483978383","107","351244.872626","358133.326717","358900.234136","359667.630354","360417.932491","361185.171342","361952.724928","348109.047187","351995.19486","352762.380223","353529.1986","354296.902753","355063.967539","355831.315836","356598.533663","357365.840839","361194.838509","Mapping"
"Mixed","Both","ball","1","F_jaw.wav","space","688.43016075","107","351244.872626","358133.326717","358900.234136","359667.630354","360417.932491","361185.171342","361952.724928","362719.647496","351995.19486","352762.380223","353529.1986","354296.902753","355063.967539","355831.315836","356598.533663","357365.840839","361962.612535","Mapping"
"Mixed","Both","cave","17","M_jaw.wav","None","728.266263381","107","365855.608661","358133.326717","358900.234136","359667.630354","360417.932491","361185.171342","361952.724928","362719.647496","351995.19486","352762.380223","353529.1986","354296.902753","355063.967539","355831.315836","356598.533663","357365.840839","362729.421637","Mapping"
"Mixed","Both","cave","17","M_tile.wav","None","720.721865539","107","365855.608661","358133.326717","358900.234136","359667.630354","360417.932491","361185.171342","361952.724928","362719.647496","366606.087645","352762.380223","353529.1986","354296.902753","355063.967539","355831.315836","356598.533663","357365.840839","365865.579126","Mapping"
"Mixed","Both","cave","17","M_cad.wav","None","736.067582387","107","365855.608661","358133.326717","358900.234136","359667.630354","360417.932491","361185.171342","361952.724928","362719.647496","366606.087645","367389.886945","353529.1986","354296.902753","355063.967539","355831.315836","356598.533663","357365.840839","366615.653095","Mapping"
"Mixed","Both","cave","17","F_knife.wav","None","720.617674757","107","365855.608661","358133.326717","358900.234136","359667.630354","360417.932491","361185.171342","361952.724928","362719.647496","366606.087645","367389.886945","368140.156002","354296.902753","355063.967539","355831.315836","356598.533663","357365.840839","367399.578229","Mapping"
"Mixed","Both","cave","17","F_cave.wav","None","735.67060614","107","365855.608661","358133.326717","358900.234136","359667.630354","360417.932491","361185.171342","361952.724928","362719.647496","366606.087645","367389.886945","368140.156002","368907.601378","355063.967539","355831.315836","356598.533663","357365.840839","368149.943437","Mapping"
"Mixed","Both","cave","17","F_knife.wav","space","460.79383418","107","365855.608661","358133.326717","358900.234136","359667.630354","360417.932491","361185.171342","361952.724928","362719.647496","366606.087645","367389.886945","368140.156002","368907.601378","369674.968225","355831.315836","356598.533663","357365.840839","368917.1625","Mapping"
"Mixed","Both","cave","17","M_gnash.wav","None","731.041075662","107","365855.608661","358133.326717","358900.234136","359667.630354","360417.932491","361185.171342","361952.724928","362719.647496","366606.087645","367389.886945","368140.156002","368907.601378","369674.968225","370442.103812","356598.533663","357365.840839","369684.668474","Mapping"
"Mixed","Both","cave","17","M_cave.wav","None","732.671335805","107","365855.608661","358133.326717","358900.234136","359667.630354","360417.932491","361185.171342","361952.724928","362719.647496","366606.087645","367389.886945","368140.156002","368907.601378","369674.968225","370442.103812","371209.308344","357365.840839","370451.787056","Mapping"
"Mixed","Both","cave","17","M_bluff.wav","space","639.780204277","107","365855.608661","358133.326717","358900.234136","359667.630354","360417.932491","361185.171342","361952.724928","362719.647496","366606.087645","367389.886945","368140.156002","368907.601378","369674.968225","370442.103812","371209.308344","371976.573473","371219.085267","Mapping"
"Mixed","Both","cave","17","M_priest.wav","None","729.042592458","107","365855.608661","372743.916514","358900.234136","359667.630354","360417.932491","361185.171342","361952.724928","362719.647496","366606.087645","367389.886945","368140.156002","368907.601378","369674.968225","370442.103812","371209.308344","371976.573473","371985.86036","Mapping"
"Mixed","Both","cave","17","F_park.wav","None","726.780695375","107","365855.608661","372743.916514","373511.010981","359667.630354","360417.932491","361185.171342","361952.724928","362719.647496","366606.087645","367389.886945","368140.156002","368907.601378","369674.968225","370442.103812","371209.308344","371976.573473","372753.45012","Mapping"
"Mixed","Both","cave","17","F_cave.wav","None","725.236075465","107","365855.608661","372743.916514","373511.010981","374278.381538","360417.932491","361185.171342","361952.724928","362719.647496","366606.087645","367389.886945","368140.156002","368907.601378","369674.968225","370442.103812","371209.308344","371976.573473","373520.473477","Mapping"
"Mixed","Both","cave","17","F_jaw.wav","space","466.227519792","107","365855.608661","372743.916514","373511.010981","374278.381538","375045.463947","361185.171342","361952.724928","362719.647496","366606.087645","367389.886945","368140.156002","368907.601378","369674.968225","370442.103812","371209.308344","371976.573473","374287.575365","Mapping"
"Mixed","Both","cave","17","F_tile.wav","None","721.114822198","107","365855.608661","372743.916514","373511.010981","374278.381538","375045.463947","375795.85729","361952.724928","362719.647496","366606.087645","367389.886945","368140.156002","368907.601378","369674.968225","370442.103812","371209.308344","371976.573473","375054.887488","Mapping"
"Mixed","Both","cave","17","M_cave.wav","None","735.896301456","107","365855.608661","372743.916514","373511.010981","374278.381538","375045.463947","375795.85729","376563.407785","362719.647496","366606.087645","367389.886945","368140.156002","368907.601378","369674.968225","370442.103812","371209.308344","371976.573473","375805.418413","Mapping"
"Mixed","Both","cave","17","F_jolt.wav","space","476.854046341","107","365855.608661","372743.916514","373511.010981","374278.381538","375045.463947","375795.85729","376563.407785","377330.750826","366606.087645","367389.886945","368140.156002","368907.601378","369674.968225","370442.103812","371209.308344","371976.573473","376572.911092","Mapping"
"Mixed","Both","done","47","M_cad.wav","None","731.108165812","107","380466.221337","372743.916514","373511.010981","374278.381538","375045.463947","375795.85729","376563.407785","377330.750826","366606.087645","367389.886945","368140.156002","368907.601378","369674.968225","370442.103812","371209.308344","371976.573473","377340.433143","Mapping"
"Mixed","Both","done","47","F_reek.wav","None","721.380400471","107","380466.221337","372743.916514","373511.010981","374278.381538","375045.463947","375795.85729","376563.407785","377330.750826","381233.196773","367389.886945","368140.156002","368907.601378","369674.968225","370442.103812","371209.308344","371976.573473","380475.802555","Mapping"
"Mixed","Both","done","47","F_depth.wav","None","719.393665437","107","380466.221337","372743.916514","373511.010981","374278.381538","375045.463947","375795.85729","376563.407785","377330.750826","381233.196773","381984.630168","368140.156002","368907.601378","369674.968225","370442.103812","371209.308344","371976.573473","381243.235874","Mapping"
"Mixed","Both","done","47","M_done.wav","None","733.89998218","107","380466.221337","372743.916514","373511.010981","374278.381538","375045.463947","375795.85729","376563.407785","377330.750826","381233.196773","381984.630168","382751.229961","368907.601378","369674.968225","370442.103812","371209.308344","371976.573473","381994.324852","Mapping"
"Mixed","Both","done","47","M_depth.wav","space","568.841470405","107","380466.221337","372743.916514","373511.010981","374278.381538","375045.463947","375795.85729","376563.407785","377330.750826","381233.196773","381984.630168","382751.229961","383518.314225","369674.968225","370442.103812","371209.308344","371976.573473","382760.760475","Mapping"
"Mixed","Both","done","47","F_done.wav","None","730.875050649","107","380466.221337","372743.916514","373511.010981","374278.381538","375045.463947","375795.85729","376563.407785","377330.750826","381233.196773","381984.630168","382751.229961","383518.314225","384285.581828","370442.103812","371209.308344","371976.573473","383527.591219","Mapping"
"Mixed","Both","done","47","F_romp.wav","space","681.862435769","107","380466.221337","372743.916514","373511.010981","374278.381538","375045.463947","375795.85729","376563.407785","377330.750826","381233.196773","381984.630168","382751.229961","383518.314225","384285.581828","385053.162931","371209.308344","371976.573473","384295.722955","Mapping"
"Mixed","Both","done","47","M_done.wav","None","726.071456447","107","380466.221337","372743.916514","373511.010981","374278.381538","375045.463947","375795.85729","376563.407785","377330.750826","381233.196773","381984.630168","382751.229961","383518.314225","384285.581828","385053.162931","385820.135893","371976.573473","385062.783104","Mapping"
"Mixed","Both","done","47","F_romp.wav","space","612.078765873","107","380466.221337","372743.916514","373511.010981","374278.381538","375045.463947","375795.85729","376563.407785","377330.750826","381233.196773","381984.630168","382751.229961","383518.314225","384285.581828","385053.162931","385820.135893","386587.481407","385829.453697","Mapping"
"Mixed","Both","done","47","M_cad.wav","None","721.843848005","107","380466.221337","387354.552377","373511.010981","374278.381538","375045.463947","375795.85729","376563.407785","377330.750826","381233.196773","381984.630168","382751.229961","383518.314225","384285.581828","385053.162931","385820.135893","386587.481407","386597.219685","Mapping"
"Mixed","Both","done","47","M_cad.wav","None","720.30077409","107","380466.221337","387354.552377","388105.040018","374278.381538","375045.463947","375795.85729","376563.407785","377330.750826","381233.196773","381984.630168","382751.229961","383518.314225","384285.581828","385053.162931","385820.135893","386587.481407","387364.295911","Mapping"
"Mixed","Both","done","47","F_lash.wav","None","735.101731494","107","380466.221337","387354.552377","388105.040018","388872.504563","375045.463947","375795.85729","376563.407785","377330.750826","381233.196773","381984.630168","382751.229961","383518.314225","384285.581828","385053.162931","385820.135893","386587.481407","388114.79128","Mapping"
"Mixed","Both","done","47","M_cling.wav","None","733.381193131","107","380466.221337","387354.552377","388105.040018","388872.504563","389639.483709","375795.85729","376563.407785","377330.750826","381233.196773","381984.630168","382751.229961","383518.314225","384285.581828","385053.162931","385820.135893","386587.481407","388882.106805","Mapping"
"Mixed","Both","done","47","M_jolt.wav","None","732.438529842","107","380466.221337","387354.552377","388105.040018","388872.504563","389639.483709","390406.988446","376563.407785","377330.750826","381233.196773","381984.630168","382751.229961","383518.314225","384285.581828","385053.162931","385820.135893","386587.481407","389648.641981","Mapping"
"Mixed","Both","done","47","F_done.wav","None","729.385154322","107","380466.221337","387354.552377","388105.040018","388872.504563","389639.483709","390406.988446","391174.239972","377330.750826","381233.196773","381984.630168","382751.229961","383518.314225","384285.581828","385053.162931","385820.135893","386587.481407","390417.217996","Mapping"
"Mixed","Both","done","47","F_tile.wav","space","511.442893185","107","380466.221337","387354.552377","388105.040018","388872.504563","389639.483709","390406.988446","391174.239972","391941.445432","381233.196773","381984.630168","382751.229961","383518.314225","384285.581828","385053.162931","385820.135893","386587.481407","391185.968385","Mapping"
"Mixed","Both","done","45","F_greet.wav","None","705.768486951","107","395077.003438","387354.552377","388105.040018","388872.504563","389639.483709","390406.988446","391174.239972","391941.445432","381233.196773","381984.630168","382751.229961","383518.314225","384285.581828","385053.162931","385820.135893","386587.481407","391971.027868","Mapping"
"Mixed","Both","done","45","M_romp.wav","None","712.924256455","107","395077.003438","387354.552377","388105.040018","388872.504563","389639.483709","390406.988446","391174.239972","391941.445432","395844.33844","381984.630168","382751.229961","383518.314225","384285.581828","385053.162931","385820.135893","386587.481407","395095.009883","Mapping"
"Mixed","Both","done","45","F_done.wav","None","718.982467894","107","395077.003438","387354.552377","388105.040018","388872.504563","389639.483709","390406.988446","391174.239972","391941.445432","395844.33844","396594.837829","382751.229961","383518.314225","384285.581828","385053.162931","385820.135893","386587.481407","395854.446486","Mapping"
"Mixed","Both","done","45","F_lash.wav","space","468.361420091","107","395077.003438","387354.552377","388105.040018","388872.504563","389639.483709","390406.988446","391174.239972","391941.445432","395844.33844","396594.837829","397361.341779","383518.314225","384285.581828","385053.162931","385820.135893","386587.481407","396605.886993","Mapping"
"Mixed","Both","done","45","M_knife.wav","None","730.550730135","107","395077.003438","387354.552377","388105.040018","388872.504563","389639.483709","390406.988446","391174.239972","391941.445432","395844.33844","396594.837829","397361.341779","398129.786088","384285.581828","385053.162931","385820.135893","386587.481407","397375.75689","Mapping"
"Mixed","Both","done","45","F_cad.wav","None","709.828215186","107","395077.003438","387354.552377","388105.040018","388872.504563","389639.483709","390406.988446","391174.239972","391941.445432","395844.33844","396594.837829","397361.341779","398129.786088","398896.838816","385053.162931","385820.135893","386587.481407","398161.953196","Mapping"
"Mixed","Both","done","45","M_jaw.wav","None","731.332624331","107","395077.003438","387354.552377","388105.040018","388872.504563","389639.483709","390406.988446","391174.239972","391941.445432","395844.33844","396594.837829","397361.341779","398129.786088","398896.838816","399663.784881","385820.135893","386587.481407","398906.500419","Mapping"
"Mixed","Both","done","45","M_gnash.wav","None","730.674089398","107","395077.003438","387354.552377","388105.040018","388872.504563","389639.483709","390406.988446","391174.239972","391941.445432","395844.33844","396594.837829","397361.341779","398129.786088","398896.838816","399663.784881","400430.88986","386587.481407","399672.934806","Mapping"
"Mixed","Both","done","45","M_done.wav","None","728.980139829","107","395077.003438","387354.552377","388105.040018","388872.504563","389639.483709","390406.988446","391174.239972","391941.445432","395844.33844","396594.837829","397361.341779","398129.786088","398896.838816","399663.784881","400430.88986","401198.243413","400440.244147","Mapping"
"Mixed","Both","done","45","F_greet.wav","space","562.039083801","107","395077.003438","401965.503905","388105.040018","388872.504563","389639.483709","390406.988446","391174.239972","391941.445432","395844.33844","396594.837829","397361.341779","398129.786088","398896.838816","399663.784881","400430.88986","401198.243413","401207.14229","Mapping"
"Mixed","Both","done","45","M_done.wav","None","725.474755745","107","395077.003438","401965.503905","402732.35289","388872.504563","389639.483709","390406.988446","391174.239972","391941.445432","395844.33844","396594.837829","397361.341779","398129.786088","398896.838816","399663.784881","400430.88986","401198.243413","401974.879524","Mapping"
"Mixed","Both","done","45","M_cling.wav","space","707.91382622","107","395077.003438","401965.503905","402732.35289","403499.596686","389639.483709","390406.988446","391174.239972","391941.445432","395844.33844","396594.837829","397361.341779","398129.786088","398896.838816","399663.784881","400430.88986","401198.243413","402742.144963","Mapping"
"Mixed","Both","done","45","F_cave.wav","None","721.820351202","107","395077.003438","401965.503905","402732.35289","403499.596686","404250.63898","390406.988446","391174.239972","391941.445432","395844.33844","396594.837829","397361.341779","398129.786088","398896.838816","399663.784881","400430.88986","401198.243413","403508.73208","Mapping"
"Mixed","Both","done","45","F_done.wav","None","736.394994892","107","395077.003438","401965.503905","402732.35289","403499.596686","404250.63898","405017.232899","391174.239972","391941.445432","395844.33844","396594.837829","397361.341779","398129.786088","398896.838816","399663.784881","400430.88986","401198.243413","404259.777156","Mapping"
"Mixed","Both","done","45","M_park.wav","space","533.654067665","107","395077.003438","401965.503905","402732.35289","403499.596686","404250.63898","405017.232899","405785.084835","391941.445432","395844.33844","396594.837829","397361.341779","398129.786088","398896.838816","399663.784881","400430.88986","401198.243413","405027.445444","Mapping"
"Mixed","Both","done","45","F_lash.wav","None","731.622008607","107","395077.003438","401965.503905","402732.35289","403499.596686","404250.63898","405017.232899","405785.084835","406552.375007","395844.33844","396594.837829","397361.341779","398129.786088","398896.838816","399663.784881","400430.88986","401198.243413","405794.734999","Mapping"
"Mixed","Both","cave","14","F_tile.wav","None","729.830051307","107","409687.732053","401965.503905","402732.35289","403499.596686","404250.63898","405017.232899","405785.084835","406552.375007","395844.33844","396594.837829","397361.341779","398129.786088","398896.838816","399663.784881","400430.88986","401198.243413","406561.989307","Mapping"
"Mixed","Both","cave","14","F_cave.wav","None","721.771501936","107","409687.732053","401965.503905","402732.35289","403499.596686","404250.63898","405017.232899","405785.084835","406552.375007","410455.003984","396594.837829","397361.341779","398129.786088","398896.838816","399663.784881","400430.88986","401198.243413","409697.016466","Mapping"
"Mixed","Both","cave","14","M_ball.wav","space","376.439540181","107","409687.732053","401965.503905","402732.35289","403499.596686","404250.63898","405017.232899","405785.084835","406552.375007","410455.003984","411205.550676","397361.341779","398129.786088","398896.838816","399663.784881","400430.88986","401198.243413","410464.497088","Mapping"
"Mixed","Both","cave","14","M_cave.wav","None","734.273461625","107","409687.732053","401965.503905","402732.35289","403499.596686","404250.63898","405017.232899","405785.084835","406552.375007","410455.003984","411205.550676","411972.9336","398129.786088","398896.838816","399663.784881","400430.88986","401198.243413","411214.901561","Mapping"
"Mixed","Both","cave","14","M_park.wav","space","523.257873487","107","409687.732053","401965.503905","402732.35289","403499.596686","404250.63898","405017.232899","405785.084835","406552.375007","410455.003984","411205.550676","411972.9336","412739.909036","398896.838816","399663.784881","400430.88986","401198.243413","411981.670471","Mapping"
"Mixed","Both","cave","14","M_lash.wav","None","731.047568377","107","409687.732053","401965.503905","402732.35289","403499.596686","404250.63898","405017.232899","405785.084835","406552.375007","410455.003984","411205.550676","411972.9336","412739.909036","413507.406044","399663.784881","400430.88986","401198.243413","412748.901901","Mapping"
"Mixed","Both","cave","14","M_cave.wav","None","728.050152771","107","409687.732053","401965.503905","402732.35289","403499.596686","404250.63898","405017.232899","405785.084835","406552.375007","410455.003984","411205.550676","411972.9336","412739.909036","413507.406044","414274.598827","400430.88986","401198.243413","413517.536968","Mapping"
"Mixed","Both","cave","14","M_bluff.wav","space","532.893506344","107","409687.732053","401965.503905","402732.35289","403499.596686","404250.63898","405017.232899","405785.084835","406552.375007","410455.003984","411205.550676","411972.9336","412739.909036","413507.406044","414274.598827","415041.861174","401198.243413","414283.956205","Mapping"
"Mixed","Both","cave","14","F_cave.wav","None","725.195574109","107","409687.732053","401965.503905","402732.35289","403499.596686","404250.63898","405017.232899","405785.084835","406552.375007","410455.003984","411205.550676","411972.9336","412739.909036","413507.406044","414274.598827","415041.861174","415808.938328","415050.923603","Mapping"
"Mixed","Both","cave","14","F_greet.wav","space","590.710083023","107","409687.732053","416576.285078","402732.35289","403499.596686","404250.63898","405017.232899","405785.084835","406552.375007","410455.003984","411205.550676","411972.9336","412739.909036","413507.406044","414274.598827","415041.861174","415808.938328","415818.104329","Mapping"
"Mixed","Both","cave","14","M_jolt.wav","None","721.084832679","107","409687.732053","416576.285078","417326.640703","403499.596686","404250.63898","405017.232899","405785.084835","406552.375007","410455.003984","411205.550676","411972.9336","412739.909036","413507.406044","414274.598827","415041.861174","415808.938328","416585.503948","Mapping"
"Mixed","Both","cave","14","F_gnash.wav","None","735.79334747","107","409687.732053","416576.285078","417326.640703","418093.676736","404250.63898","405017.232899","405785.084835","406552.375007","410455.003984","411205.550676","411972.9336","412739.909036","413507.406044","414274.598827","415041.861174","415808.938328","417336.50945","Mapping"
"Mixed","Both","cave","14","M_dime.wav","None","735.330517869","107","409687.732053","416576.285078","417326.640703","418093.676736","418861.297722","405017.232899","405785.084835","406552.375007","410455.003984","411205.550676","411972.9336","412739.909036","413507.406044","414274.598827","415041.861174","415808.938328","418102.646414","Mapping"
"Mixed","Both","cave","14","F_greet.wav","None","733.322141226","107","409687.732053","416576.285078","417326.640703","418093.676736","418861.297722","419628.753301","405785.084835","406552.375007","410455.003984","411205.550676","411972.9336","412739.909036","413507.406044","414274.598827","415041.861174","415808.938328","418870.745069","Mapping"
"Mixed","Both","cave","14","F_gnash.wav","None","732.510566711","107","409687.732053","416576.285078","417326.640703","418093.676736","418861.297722","419628.753301","420395.711733","406552.375007","410455.003984","411205.550676","411972.9336","412739.909036","413507.406044","414274.598827","415041.861174","415808.938328","419637.447197","Mapping"
"Mixed","Both","cave","14","F_done.wav","None","730.481166393","107","409687.732053","416576.285078","417326.640703","418093.676736","418861.297722","419628.753301","420395.711733","421162.802799","410455.003984","411205.550676","411972.9336","412739.909036","413507.406044","414274.598827","415041.861174","415808.938328","420405.257087","Mapping"
"Mixed","Both","ball","9","F_cave.wav","None","729.634036776","107","424298.632257","416576.285078","417326.640703","418093.676736","418861.297722","419628.753301","420395.711733","421162.802799","410455.003984","411205.550676","411972.9336","412739.909036","413507.406044","414274.598827","415041.861174","415808.938328","421171.667667","Mapping"
"Mixed","Both","ball","9","M_ball.wav","None","720.62138468","107","424298.632257","416576.285078","417326.640703","418093.676736","418861.297722","419628.753301","420395.711733","421162.802799","425048.786302","411205.550676","411972.9336","412739.909036","413507.406044","414274.598827","415041.861174","415808.938328","424308.213476","Mapping"
"Mixed","Both","ball","9","M_greet.wav","space","430.424247868","107","424298.632257","416576.285078","417326.640703","418093.676736","418861.297722","419628.753301","420395.711733","421162.802799","425048.786302","425816.431403","411972.9336","412739.909036","413507.406044","414274.598827","415041.861174","415808.938328","425058.188201","Mapping"
"Mixed","Both","ball","9","M_knife.wav","None","733.622346539","107","424298.632257","416576.285078","417326.640703","418093.676736","418861.297722","419628.753301","420395.711733","421162.802799","425048.786302","425816.431403","426583.564825","412739.909036","413507.406044","414274.598827","415041.861174","415808.938328","425825.790018","Mapping"
"Mixed","Both","ball","9","F_dime.wav","None","732.855292503","107","424298.632257","416576.285078","417326.640703","418093.676736","418861.297722","419628.753301","420395.711733","421162.802799","425048.786302","425816.431403","426583.564825","427351.093678","413507.406044","414274.598827","415041.861174","415808.938328","426592.331687","Mapping"
"Mixed","Both","ball","9","M_greet.wav","None","730.303392746","107","424298.632257","416576.285078","417326.640703","418093.676736","418861.297722","419628.753301","420395.711733","421162.802799","425048.786302","425816.431403","426583.564825","427351.093678","428118.573991","414274.598827","415041.861174","415808.938328","427360.726837","Mapping"
"Mixed","Both","ball","9","M_greet.wav","None","729.338468984","107","424298.632257","416576.285078","417326.640703","418093.676736","418861.297722","419628.753301","420395.711733","421162.802799","425048.786302","425816.431403","426583.564825","427351.093678","428118.573991","428884.887801","415041.861174","415808.938328","428127.587571","Mapping"
"Mixed","Both","ball","9","F_ball.wav","None","731.621390209","107","424298.632257","416576.285078","417326.640703","418093.676736","418861.297722","419628.753301","420395.711733","421162.802799","425048.786302","425816.431403","426583.564825","427351.093678","428118.573991","428884.887801","429652.485908","415808.938328","428893.840782","Mapping"
"Mixed","Both","ball","9","M_park.wav","space","491.112716962","107","424298.632257","416576.285078","417326.640703","418093.676736","418861.297722","419628.753301","420395.711733","421162.802799","425048.786302","425816.431403","426583.564825","427351.093678","428118.573991","428884.887801","429652.485908","430420.030219","429661.360978","Mapping"
"Mixed","Both","ball","9","M_ball.wav","None","726.831090171","107","424298.632257","431186.877658","417326.640703","418093.676736","418861.297722","419628.753301","420395.711733","421162.802799","425048.786302","425816.431403","426583.564825","427351.093678","428118.573991","428884.887801","429652.485908","430420.030219","430429.476329","Mapping"
"Mixed","Both","ball","9","F_greet.wav","space","604.287958238","107","424298.632257","431186.877658","431954.006443","418093.676736","418861.297722","419628.753301","420395.711733","421162.802799","425048.786302","425816.431403","426583.564825","427351.093678","428118.573991","428884.887801","429652.485908","430420.030219","431196.172274","Mapping"
"Mixed","Both","ball","9","F_tile.wav","None","724.141608924","107","424298.632257","431186.877658","431954.006443","432721.227052","418861.297722","419628.753301","420395.711733","421162.802799","425048.786302","425816.431403","426583.564825","427351.093678","428118.573991","428884.887801","429652.485908","430420.030219","431962.967154","Mapping"
"Mixed","Both","ball","9","F_dime.wav","None","722.604718525","107","424298.632257","431186.877658","431954.006443","432721.227052","433488.793932","419628.753301","420395.711733","421162.802799","425048.786302","425816.431403","426583.564825","427351.093678","428118.573991","428884.887801","429652.485908","430420.030219","432730.131803","Mapping"
"Mixed","Both","ball","9","F_park.wav","None","720.279132016","107","424298.632257","431186.877658","431954.006443","432721.227052","433488.793932","434239.060824","420395.711733","421162.802799","425048.786302","425816.431403","426583.564825","427351.093678","428118.573991","428884.887801","429652.485908","430420.030219","433498.371131","Mapping"
"Mixed","Both","ball","9","F_ball.wav","None","735.618974548","107","424298.632257","431186.877658","431954.006443","432721.227052","433488.793932","434239.060824","435006.135813","421162.802799","425048.786302","425816.431403","426583.564825","427351.093678","428118.573991","428884.887801","429652.485908","430420.030219","434248.880105","Mapping"
"Mixed","Both","ball","9","M_romp.wav","space","432.949559297","107","424298.632257","431186.877658","431954.006443","432721.227052","433488.793932","434239.060824","435006.135813","435773.947249","425048.786302","425816.431403","426583.564825","427351.093678","428118.573991","428884.887801","429652.485908","430420.030219","435015.383127","Mapping"
"Mixed","Both","done","44","M_dime.wav","None","731.987448875","107","438909.315424","431186.877658","431954.006443","432721.227052","433488.793932","434239.060824","435006.135813","435773.947249","425048.786302","425816.431403","426583.564825","427351.093678","428118.573991","428884.887801","429652.485908","430420.030219","435783.345747","Mapping"
"Mixed","Both","done","44","F_knife.wav","None","721.275900491","107","438909.315424","431186.877658","431954.006443","432721.227052","433488.793932","434239.060824","435006.135813","435773.947249","439660.21488","425816.431403","426583.564825","427351.093678","428118.573991","428884.887801","429652.485908","430420.030219","438918.553462","Mapping"
"Mixed","Both","done","44","F_done.wav","None","736.478780396","107","438909.315424","431186.877658","431954.006443","432721.227052","433488.793932","434239.060824","435006.135813","435773.947249","439660.21488","440427.093237","426583.564825","427351.093678","428118.573991","428884.887801","429652.485908","430420.030219","439669.236189","Mapping"
"Mixed","Both","done","44","F_gnash.wav","space","468.020403758","107","438909.315424","431186.877658","431954.006443","432721.227052","433488.793932","434239.060824","435006.135813","435773.947249","439660.21488","440427.093237","441194.262214","427351.093678","428118.573991","428884.887801","429652.485908","430420.030219","440436.197095","Mapping"
"Mixed","Both","done","44","M_done.wav","None","733.786207624","107","438909.315424","431186.877658","431954.006443","432721.227052","433488.793932","434239.060824","435006.135813","435773.947249","439660.21488","440427.093237","441194.262214","441961.763859","428118.573991","428884.887801","429652.485908","430420.030219","441203.221689","Mapping"
"Mixed","Both","done","44","F_jaw.wav","space","629.282602109","107","438909.315424","431186.877658","431954.006443","432721.227052","433488.793932","434239.060824","435006.135813","435773.947249","439660.21488","440427.093237","441194.262214","441961.763859","442728.613154","428884.887801","429652.485908","430420.030219","441970.907909","Mapping"
"Mixed","Both","done","44","M_lash.wav","None","729.969178326","107","438909.315424","431186.877658","431954.006443","432721.227052","433488.793932","434239.060824","435006.135813","435773.947249","439660.21488","440427.093237","441194.262214","441961.763859","442728.613154","443496.12562","429652.485908","430420.030219","442737.806053","Mapping"
"Mixed","Both","done","44","M_jaw.wav","None","728.162690997","107","438909.315424","431186.877658","431954.006443","432721.227052","433488.793932","434239.060824","435006.135813","435773.947249","439660.21488","440427.093237","441194.262214","441961.763859","442728.613154","443496.12562","444263.176494","430420.030219","443505.459501","Mapping"
"Mixed","Both","done","44","F_bluff.wav","None","727.353898808","107","438909.315424","431186.877658","431954.006443","432721.227052","433488.793932","434239.060824","435006.135813","435773.947249","439660.21488","440427.093237","441194.262214","441961.763859","442728.613154","443496.12562","444263.176494","445030.655261","444272.195948","Mapping"
"Mixed","Both","done","44","F_bluff.wav","None","725.822264329","107","438909.315424","445797.598543","431954.006443","432721.227052","433488.793932","434239.060824","435006.135813","435773.947249","439660.21488","440427.093237","441194.262214","441961.763859","442728.613154","443496.12562","444263.176494","445030.655261","445039.753863","Mapping"
"Mixed","Both","done","44","M_reek.wav","None","724.891349673","107","438909.315424","445797.598543","446565.115338","432721.227052","433488.793932","434239.060824","435006.135813","435773.947249","439660.21488","440427.093237","441194.262214","441961.763859","442728.613154","443496.12562","444263.176494","445030.655261","445806.778148","Mapping"
"Mixed","Both","done","44","M_done.wav","None","723.330034409","107","438909.315424","445797.598543","446565.115338","447332.131585","433488.793932","434239.060824","435006.135813","435773.947249","439660.21488","440427.093237","441194.262214","441961.763859","442728.613154","443496.12562","444263.176494","445030.655261","446574.123971","Mapping"
"Mixed","Both","done","44","M_cad.wav","space","650.612947531","107","438909.315424","445797.598543","446565.115338","447332.131585","448083.069997","434239.060824","435006.135813","435773.947249","439660.21488","440427.093237","441194.262214","441961.763859","442728.613154","443496.12562","444263.176494","445030.655261","447341.427438","Mapping"
"Mixed","Both","done","44","M_dime.wav","None","736.237935722","107","438909.315424","445797.598543","446565.115338","447332.131585","448083.069997","448850.054399","435006.135813","435773.947249","439660.21488","440427.093237","441194.262214","441961.763859","442728.613154","443496.12562","444263.176494","445030.655261","448092.073065","Mapping"
"Mixed","Both","done","44","F_done.wav","None","734.557899181","107","438909.315424","445797.598543","446565.115338","447332.131585","448083.069997","448850.054399","449616.741069","435773.947249","439660.21488","440427.093237","441194.262214","441961.763859","442728.613154","443496.12562","444263.176494","445030.655261","448859.557088","Mapping"
"Mixed","Both","done","44","F_knife.wav","space","662.771417294","107","438909.315424","445797.598543","446565.115338","447332.131585","448083.069997","448850.054399","449616.741069","450384.174697","439660.21488","440427.093237","441194.262214","441961.763859","442728.613154","443496.12562","444263.176494","445030.655261","449626.178213","Mapping"
"Mixed","Both","tile","25","F_cling.wav","None","731.87614698","107","453520.514597","445797.598543","446565.115338","447332.131585","448083.069997","448850.054399","449616.741069","450384.174697","439660.21488","440427.093237","441194.262214","441961.763859","442728.613154","443496.12562","444263.176494","445030.655261","450393.274845","Mapping"
"Mixed","Both","tile","25","M_tile.wav","None","721.002593171","107","453520.514597","445797.598543","446565.115338","447332.131585","448083.069997","448850.054399","449616.741069","450384.174697","454270.602788","440427.093237","441194.262214","441961.763859","442728.613154","443496.12562","444263.176494","445030.655261","453529.315776","Mapping"
"Mixed","Both","tile","25","F_priest.wav","space","383.905408438","107","453520.514597","445797.598543","446565.115338","447332.131585","448083.069997","448850.054399","449616.741069","450384.174697","454270.602788","455037.861116","441194.262214","441961.763859","442728.613154","443496.12562","444263.176494","445030.655261","454279.9849","Mapping"
"Mixed","Both","tile","25","F_cad.wav","None","734.493900556","107","453520.514597","445797.598543","446565.115338","447332.131585","448083.069997","448850.054399","449616.741069","450384.174697","454270.602788","455037.861116","455805.324425","441961.763859","442728.613154","443496.12562","444263.176494","445030.655261","455047.019388","Mapping"
"Mixed","Both","tile","25","M_jaw.wav","None","732.981743757","107","453520.514597","445797.598543","446565.115338","447332.131585","448083.069997","448850.054399","449616.741069","450384.174697","454270.602788","455037.861116","455805.324425","456572.382409","442728.613154","443496.12562","444263.176494","445030.655261","455814.544531","Mapping"
"Mixed","Both","tile","25","M_gnash.wav","None","731.543479022","107","453520.514597","445797.598543","446565.115338","447332.131585","448083.069997","448850.054399","449616.741069","450384.174697","454270.602788","455037.861116","455805.324425","456572.382409","457339.186255","443496.12562","444263.176494","445030.655261","456581.95528","Mapping"
"Mixed","Both","tile","25","M_jaw.wav","None","731.533276383","107","453520.514597","445797.598543","446565.115338","447332.131585","448083.069997","448850.054399","449616.741069","450384.174697","454270.602788","455037.861116","455805.324425","456572.382409","457339.186255","458106.903084","444263.176494","445030.655261","457348.37699","Mapping"
"Mixed","Both","tile","25","F_gnash.wav","None","729.790786747","107","453520.514597","445797.598543","446565.115338","447332.131585","448083.069997","448850.054399","449616.741069","450384.174697","454270.602788","455037.861116","455805.324425","456572.382409","457339.186255","458106.903084","458874.354644","445030.655261","458116.137412","Mapping"
"Mixed","Both","tile","25","M_reek.wav","None","728.666640352","107","453520.514597","445797.598543","446565.115338","447332.131585","448083.069997","448850.054399","449616.741069","450384.174697","454270.602788","455037.861116","455805.324425","456572.382409","457339.186255","458106.903084","458874.354644","459641.457768","458883.383373","Mapping"
"Mixed","Both","tile","25","F_tile.wav","None","727.130986284","107","453520.514597","460408.80019","446565.115338","447332.131585","448083.069997","448850.054399","449616.741069","450384.174697","454270.602788","455037.861116","455805.324425","456572.382409","457339.186255","458106.903084","458874.354644","459641.457768","459650.980243","Mapping"
"Mixed","Both","tile","25","F_priest.wav","space","382.429115474","107","453520.514597","460408.80019","461175.674836","447332.131585","448083.069997","448850.054399","449616.741069","450384.174697","454270.602788","455037.861116","455805.324425","456572.382409","457339.186255","458106.903084","458874.354644","459641.457768","460418.239189","Mapping"
"Mixed","Both","tile","25","M_tile.wav","None","724.861359689","107","453520.514597","460408.80019","461175.674836","461943.335396","448083.069997","448850.054399","449616.741069","450384.174697","454270.602788","455037.861116","455805.324425","456572.382409","457339.186255","458106.903084","458874.354644","459641.457768","461184.482199","Mapping"
"Mixed","Both","tile","25","F_cad.wav","space","630.85628394","107","453520.514597","460408.80019","461175.674836","461943.335396","462710.27033","448850.054399","449616.741069","450384.174697","454270.602788","455037.861116","455805.324425","456572.382409","457339.186255","458106.903084","458874.354644","459641.457768","461952.851379","Mapping"
"Mixed","Both","tile","25","M_cad.wav","None","721.117913723","107","453520.514597","460408.80019","461175.674836","461943.335396","462710.27033","463460.961405","449616.741069","450384.174697","454270.602788","455037.861116","455805.324425","456572.382409","457339.186255","458106.903084","458874.354644","459641.457768","462719.369242","Mapping"
"Mixed","Both","tile","25","F_tile.wav","None","735.911141615","107","453520.514597","460408.80019","461175.674836","461943.335396","462710.27033","463460.961405","464227.840998","450384.174697","454270.602788","455037.861116","455805.324425","456572.382409","457339.186255","458106.903084","458874.354644","459641.457768","463470.734619","Mapping"
"Mixed","Both","tile","25","M_knife.wav","space","530.293375719","107","453520.514597","460408.80019","461175.674836","461943.335396","462710.27033","463460.961405","464227.840998","464995.304925","454270.602788","455037.861116","455805.324425","456572.382409","457339.186255","458106.903084","458874.354644","459641.457768","464237.367493","Mapping"
"Mixed","Both","done","41","M_greet.wav","None","732.876006979","107","468131.160045","460408.80019","461175.674836","461943.335396","462710.27033","463460.961405","464227.840998","464995.304925","454270.602788","455037.861116","455805.324425","456572.382409","457339.186255","458106.903084","458874.354644","459641.457768","465004.776387","Mapping"
"Mixed","Both","done","41","F_greet.wav","None","721.748623066","107","468131.160045","460408.80019","461175.674836","461943.335396","462710.27033","463460.961405","464227.840998","464995.304925","468897.978422","455037.861116","455805.324425","456572.382409","457339.186255","458106.903084","458874.354644","459641.457768","468140.292346","Mapping"
"Mixed","Both","done","41","M_reek.wav","None","720.828529447","107","468131.160045","460408.80019","461175.674836","461943.335396","462710.27033","463460.961405","464227.840998","464995.304925","468897.978422","469648.519858","455805.324425","456572.382409","457339.186255","458106.903084","458874.354644","459641.457768","468907.325597","Mapping"
"Mixed","Both","done","41","M_done.wav","None","737.029414624","107","468131.160045","460408.80019","461175.674836","461943.335396","462710.27033","463460.961405","464227.840998","464995.304925","468897.978422","469648.519858","470415.80292","456572.382409","457339.186255","458106.903084","458874.354644","459641.457768","469657.312689","Mapping"
"Mixed","Both","done","41","F_priest.wav","space","535.295148846","107","468131.160045","460408.80019","461175.674836","461943.335396","462710.27033","463460.961405","464227.840998","464995.304925","468897.978422","469648.519858","470415.80292","471183.178423","457339.186255","458106.903084","458874.354644","459641.457768","470425.183486","Mapping"
"Mixed","Both","done","41","M_priest.wav","None","732.677519321","107","468131.160045","460408.80019","461175.674836","461943.335396","462710.27033","463460.961405","464227.840998","464995.304925","468897.978422","469648.519858","470415.80292","471183.178423","471950.587627","458106.903084","458874.354644","459641.457768","471192.546622","Mapping"
"Mixed","Both","done","41","M_done.wav","None","730.573917739","107","468131.160045","460408.80019","461175.674836","461943.335396","462710.27033","463460.961405","464227.840998","464995.304925","468897.978422","469648.519858","470415.80292","471183.178423","471950.587627","472717.484533","458874.354644","459641.457768","471960.648679","Mapping"
"Mixed","Both","done","41","M_cave.wav","space","544.933254365","107","468131.160045","460408.80019","461175.674836","461943.335396","462710.27033","463460.961405","464227.840998","464995.304925","468897.978422","469648.519858","470415.80292","471183.178423","471950.587627","472717.484533","473484.61641","459641.457768","472726.517591","Mapping"
"Mixed","Both","done","41","F_reek.wav","None","728.139812127","107","468131.160045","460408.80019","461175.674836","461943.335396","462710.27033","463460.961405","464227.840998","464995.304925","468897.978422","469648.519858","470415.80292","471183.178423","471950.587627","472717.484533","473484.61641","474252.002425","473493.914118","Mapping"
"Mixed","Both","done","41","M_cling.wav","None","727.301339619","107","468131.160045","475019.458004","461175.674836","461943.335396","462710.27033","463460.961405","464227.840998","464995.304925","468897.978422","469648.519858","470415.80292","471183.178423","471950.587627","472717.484533","473484.61641","474252.002425","474261.128543","Mapping"
"Mixed","Both","done","41","F_done.wav","None","726.028481498","107","468131.160045","475019.458004","475786.417982","461943.335396","462710.27033","463460.961405","464227.840998","464995.304925","468897.978422","469648.519858","470415.80292","471183.178423","471950.587627","472717.484533","473484.61641","474252.002425","475028.538983","Mapping"
"Mixed","Both","done","41","F_tile.wav","space","547.954476438","107","468131.160045","475019.458004","475786.417982","476553.958274","462710.27033","463460.961405","464227.840998","464995.304925","468897.978422","469648.519858","470415.80292","471183.178423","471950.587627","472717.484533","473484.61641","474252.002425","475795.390751","Mapping"
"Mixed","Both","done","41","M_cave.wav","None","722.661296837","107","468131.160045","475019.458004","475786.417982","476553.958274","477321.008838","463460.961405","464227.840998","464995.304925","468897.978422","469648.519858","470415.80292","471183.178423","471950.587627","472717.484533","473484.61641","474252.002425","476563.054712","Mapping"
"Mixed","Both","done","41","F_tile.wav","None","721.572395414","107","468131.160045","475019.458004","475786.417982","476553.958274","477321.008838","478088.43752","464227.840998","464995.304925","468897.978422","469648.519858","470415.80292","471183.178423","471950.587627","472717.484533","473484.61641","474252.002425","477330.460823","Mapping"
"Mixed","Both","done","41","F_done.wav","None","721.078339964","107","468131.160045","475019.458004","475786.417982","476553.958274","477321.008838","478088.43752","478855.36287","464995.304925","468897.978422","469648.519858","470415.80292","471183.178423","471950.587627","472717.484533","473484.61641","474252.002425","478097.512933","Mapping"
"Mixed","Both","done","41","F_depth.wav","space","622.862041928","107","468131.160045","475019.458004","475786.417982","476553.958274","477321.008838","478088.43752","478855.36287","479606.145769","468897.978422","469648.519858","470415.80292","471183.178423","471950.587627","472717.484533","473484.61641","474252.002425","478864.448486","Mapping"
"Mixed","Both","ball","10","M_knife.wav","None","733.88545122","107","482741.811058","475019.458004","475786.417982","476553.958274","477321.008838","478088.43752","478855.36287","479606.145769","468897.978422","469648.519858","470415.80292","471183.178423","471950.587627","472717.484533","473484.61641","474252.002425","479615.539011","Mapping"
"Mixed","Both","ball","10","M_priest.wav","None","721.771811135","107","482741.811058","475019.458004","475786.417982","476553.958274","477321.008838","478088.43752","478855.36287","479606.145769","483509.19089","469648.519858","470415.80292","471183.178423","471950.587627","472717.484533","473484.61641","474252.002425","482750.924809","Mapping"
"Mixed","Both","ball","10","F_jolt.wav","None","720.260272734","107","482741.811058","475019.458004","475786.417982","476553.958274","477321.008838","478088.43752","478855.36287","479606.145769","483509.19089","484259.455308","470415.80292","471183.178423","471950.587627","472717.484533","473484.61641","474252.002425","483518.336486","Mapping"
"Mixed","Both","ball","10","F_cad.wav","None","735.658548772","107","482741.811058","475019.458004","475786.417982","476553.958274","477321.008838","478088.43752","478855.36287","479606.145769","483509.19089","484259.455308","485026.542355","471183.178423","471950.587627","472717.484533","473484.61641","474252.002425","484269.006846","Mapping"
"Mixed","Both","ball","10","M_ball.wav","None","734.781120438","107","482741.811058","475019.458004","475786.417982","476553.958274","477321.008838","478088.43752","478855.36287","479606.145769","483509.19089","484259.455308","485026.542355","485794.139535","471950.587627","472717.484533","473484.61641","474252.002425","485036.043189","Mapping"
"Mixed","Both","ball","10","F_bluff.wav","space","572.92253105","107","482741.811058","475019.458004","475786.417982","476553.958274","477321.008838","478088.43752","478855.36287","479606.145769","483509.19089","484259.455308","485026.542355","485794.139535","486560.79065","472717.484533","473484.61641","474252.002425","485803.201345","Mapping"
"Mixed","Both","ball","10","F_ball.wav","None","732.534681913","107","482741.811058","475019.458004","475786.417982","476553.958274","477321.008838","478088.43752","478855.36287","479606.145769","483509.19089","484259.455308","485026.542355","485794.139535","486560.79065","487328.138328","473484.61641","474252.002425","486569.755072","Mapping"
"Mixed","Both","ball","10","F_priest.wav","space","509.708751459","107","482741.811058","475019.458004","475786.417982","476553.958274","477321.008838","478088.43752","478855.36287","479606.145769","483509.19089","484259.455308","485026.542355","485794.139535","486560.79065","487328.138328","488095.449524","474252.002425","487337.377912","Mapping"
"Mixed","Both","ball","10","F_reek.wav","None","728.782579303","107","482741.811058","475019.458004","475786.417982","476553.958274","477321.008838","478088.43752","478855.36287","479606.145769","483509.19089","484259.455308","485026.542355","485794.139535","486560.79065","487328.138328","488095.449524","488862.705688","488104.445481","Mapping"
"Mixed","Both","ball","10","M_jolt.wav","None","727.823839057","107","482741.811058","489630.092631","475786.417982","476553.958274","477321.008838","478088.43752","478855.36287","479606.145769","483509.19089","484259.455308","485026.542355","485794.139535","486560.79065","487328.138328","488095.449524","488862.705688","488871.695462","Mapping"
"Mixed","Both","ball","10","F_ball.wav","None","726.629510522","107","482741.811058","489630.092631","490397.367345","476553.958274","477321.008838","478088.43752","478855.36287","479606.145769","483509.19089","484259.455308","485026.542355","485794.139535","486560.79065","487328.138328","488095.449524","488862.705688","489639.390958","Mapping"
"Mixed","Both","ball","10","M_bluff.wav","space","480.106219184","107","482741.811058","489630.092631","490397.367345","491164.572186","477321.008838","478088.43752","478855.36287","479606.145769","483509.19089","484259.455308","485026.542355","485794.139535","486560.79065","487328.138328","488095.449524","488862.705688","490406.894149","Mapping"
"Mixed","Both","ball","10","M_ball.wav","None","723.254287615","107","482741.811058","489630.092631","490397.367345","491164.572186","491932.114333","478088.43752","478855.36287","479606.145769","483509.19089","484259.455308","485026.542355","485794.139535","486560.79065","487328.138328","488095.449524","488862.705688","491173.575254","Mapping"
"Mixed","Both","ball","10","M_reek.wav","None","721.317329444","107","482741.811058","489630.092631","490397.367345","491164.572186","491932.114333","492698.541917","478855.36287","479606.145769","483509.19089","484259.455308","485026.542355","485794.139535","486560.79065","487328.138328","488095.449524","488862.705688","491941.692769","Mapping"
"Mixed","Both","ball","10","F_knife.wav","space","0.0408105552197","107","482741.811058","489630.092631","490397.367345","491164.572186","491932.114333","492698.541917","493466.12302","479606.145769","483509.19089","484259.455308","485026.542355","485794.139535","486560.79065","487328.138328","488095.449524","488862.705688","492707.304141","Mapping"
"Mixed","Both","ball","10","M_depth.wav","None","719.754777849","107","482741.811058","489630.092631","490397.367345","491164.572186","491932.114333","492698.541917","493466.12302","494216.565521","483509.19089","484259.455308","485026.542355","485794.139535","486560.79065","487328.138328","488095.449524","488862.705688","493476.003825","Mapping"
"Mixed","Both","ball","5","F_jaw.wav","None","736.964179203","107","497352.571517","489630.092631","490397.367345","491164.572186","491932.114333","492698.541917","493466.12302","494216.565521","483509.19089","484259.455308","485026.542355","485794.139535","486560.79065","487328.138328","488095.449524","488862.705688","494225.517576","Mapping"
"Mixed","Both","ball","5","F_cad.wav","None","721.306508407","107","497352.571517","489630.092631","490397.367345","491164.572186","491932.114333","492698.541917","493466.12302","494216.565521","498119.473061","484259.455308","485026.542355","485794.139535","486560.79065","487328.138328","488095.449524","488862.705688","497361.966305","Mapping"
"Mixed","Both","ball","5","F_ball.wav","None","721.029799897","107","497352.571517","489630.092631","490397.367345","491164.572186","491932.114333","492698.541917","493466.12302","494216.565521","498119.473061","498870.335108","485026.542355","485794.139535","486560.79065","487328.138328","488095.449524","488862.705688","498128.346277","Mapping"
"Mixed","Both","ball","5","M_priest.wav","space","542.871081736","107","497352.571517","489630.092631","490397.367345","491164.572186","491932.114333","492698.541917","493466.12302","494216.565521","498119.473061","498870.335108","499637.393711","485794.139535","486560.79065","487328.138328","488095.449524","488862.705688","498879.959301","Mapping"
"Mixed","Both","ball","5","F_ball.wav","None","733.876794577","107","497352.571517","489630.092631","490397.367345","491164.572186","491932.114333","492698.541917","493466.12302","494216.565521","498119.473061","498870.335108","499637.393711","500404.812808","486560.79065","487328.138328","488095.449524","488862.705688","499646.411928","Mapping"
"Mixed","Both","ball","5","F_romp.wav","space","601.478828117","107","497352.571517","489630.092631","490397.367345","491164.572186","491932.114333","492698.541917","493466.12302","494216.565521","498119.473061","498870.335108","499637.393711","500404.812808","501172.188311","487328.138328","488095.449524","488862.705688","500414.313641","Mapping"
"Mixed","Both","ball","5","M_dime.wav","None","729.891886003","107","497352.571517","489630.092631","490397.367345","491164.572186","491932.114333","492698.541917","493466.12302","494216.565521","498119.473061","498870.335108","499637.393711","500404.812808","501172.188311","501939.011017","488095.449524","488862.705688","501181.471179","Mapping"
"Mixed","Both","ball","5","M_ball.wav","None","729.321155697","107","497352.571517","489630.092631","490397.367345","491164.572186","491932.114333","492698.541917","493466.12302","494216.565521","498119.473061","498870.335108","499637.393711","500404.812808","501172.188311","501939.011017","502706.336126","488862.705688","501948.253383","Mapping"
"Mixed","Both","ball","5","F_romp.wav","None","728.560903575","107","497352.571517","489630.092631","490397.367345","491164.572186","491932.114333","492698.541917","493466.12302","494216.565521","498119.473061","498870.335108","499637.393711","500404.812808","501172.188311","501939.011017","502706.336126","503473.836225","502715.299929","Mapping"
"Mixed","Both","ball","5","M_gnash.wav","None","726.94115527","107","497352.571517","504240.952953","490397.367345","491164.572186","491932.114333","492698.541917","493466.12302","494216.565521","498119.473061","498870.335108","499637.393711","500404.812808","501172.188311","501939.011017","502706.336126","503473.836225","503483.365812","Mapping"
"Mixed","Both","ball","5","M_bluff.wav","None","726.255722344","107","497352.571517","504240.952953","505008.234468","491164.572186","491932.114333","492698.541917","493466.12302","494216.565521","498119.473061","498870.335108","499637.393711","500404.812808","501172.188311","501939.011017","502706.336126","503473.836225","504250.382986","Mapping"
"Mixed","Both","ball","5","F_greet.wav","None","725.407047197","107","497352.571517","504240.952953","505008.234468","505775.470845","491932.114333","492698.541917","493466.12302","494216.565521","498119.473061","498870.335108","499637.393711","500404.812808","501172.188311","501939.011017","502706.336126","503473.836225","505017.476526","Mapping"
"Mixed","Both","ball","5","F_depth.wav","None","724.666272756","107","497352.571517","504240.952953","505008.234468","505775.470845","506542.700729","492698.541917","493466.12302","494216.565521","498119.473061","498870.335108","499637.393711","500404.812808","501172.188311","501939.011017","502706.336126","503473.836225","505784.525854","Mapping"
"Mixed","Both","ball","5","M_ball.wav","None","732.50469286","107","497352.571517","504240.952953","505008.234468","505775.470845","506542.700729","507310.3381","493466.12302","494216.565521","498119.473061","498870.335108","499637.393711","500404.812808","501172.188311","501939.011017","502706.336126","503473.836225","506546.648537","Mapping"
"Mixed","Both","ball","5","M_knife.wav","space","390.731601045","107","497352.571517","504240.952953","505008.234468","505775.470845","506542.700729","507310.3381","508077.153386","494216.565521","498119.473061","498870.335108","499637.393711","500404.812808","501172.188311","501939.011017","502706.336126","503473.836225","507319.888711","Mapping"
"Mixed","Both","ball","5","M_dime.wav","None","723.886233289","107","497352.571517","504240.952953","505008.234468","505775.470845","506542.700729","507310.3381","508077.153386","508844.185709","498119.473061","498870.335108","499637.393711","500404.812808","501172.188311","501939.011017","502706.336126","503473.836225","508086.441201","Mapping"
"Mixed","Both","done","48","M_greet.wav","None","722.959646955","107","511963.251592","504240.952953","505008.234468","505775.470845","506542.700729","507310.3381","508077.153386","508844.185709","498119.473061","498870.335108","499637.393711","500404.812808","501172.188311","501939.011017","502706.336126","503473.836225","508853.719006","Mapping"
"Mixed","Both","done","48","M_done.wav","None","721.743676811","107","511963.251592","504240.952953","505008.234468","505775.470845","506542.700729","507310.3381","508077.153386","508844.185709","512730.530634","498870.335108","499637.393711","500404.812808","501172.188311","501939.011017","502706.336126","503473.836225","511972.399352","Mapping"
"Mixed","Both","done","48","M_jolt.wav","space","467.19151549","107","511963.251592","504240.952953","505008.234468","505775.470845","506542.700729","507310.3381","508077.153386","508844.185709","512730.530634","513481.184918","499637.393711","500404.812808","501172.188311","501939.011017","502706.336126","503473.836225","512740.228719","Mapping"
"Mixed","Both","done","48","M_done.wav","None","734.55480719","107","511963.251592","504240.952953","505008.234468","505775.470845","506542.700729","507310.3381","508077.153386","508844.185709","512730.530634","513481.184918","514248.465197","500404.812808","501172.188311","501939.011017","502706.336126","503473.836225","513490.672457","Mapping"
"Mixed","Both","done","48","F_ball.wav","space","452.887396794","107","511963.251592","504240.952953","505008.234468","505775.470845","506542.700729","507310.3381","508077.153386","508844.185709","512730.530634","513481.184918","514248.465197","515015.331186","501172.188311","501939.011017","502706.336126","503473.836225","514257.573383","Mapping"
"Mixed","Both","done","48","F_done.wav","None","732.560652308","107","511963.251592","504240.952953","505008.234468","505775.470845","506542.700729","507310.3381","508077.153386","508844.185709","512730.530634","513481.184918","514248.465197","515015.331186","515782.908578","501939.011017","502706.336126","503473.836225","515024.025083","Mapping"
"Mixed","Both","done","48","F_cling.wav","space","429.963273462","107","511963.251592","504240.952953","505008.234468","505775.470845","506542.700729","507310.3381","508077.153386","508844.185709","512730.530634","513481.184918","514248.465197","515015.331186","515782.908578","516550.041073","502706.336126","503473.836225","515792.464136","Mapping"
"Mixed","Both","done","48","F_greet.wav","None","727.977497038","107","511963.251592","504240.952953","505008.234468","505775.470845","506542.700729","507310.3381","508077.153386","508844.185709","512730.530634","513481.184918","514248.465197","515015.331186","515782.908578","516550.041073","517317.458624","503473.836225","516559.533251","Mapping"
"Mixed","Both","done","48","M_cad.wav","None","727.039780933","107","511963.251592","504240.952953","505008.234468","505775.470845","506542.700729","507310.3381","508077.153386","508844.185709","512730.530634","513481.184918","514248.465197","515015.331186","515782.908578","516550.041073","517317.458624","518084.296789","517326.771173","Mapping"
"Mixed","Both","done","48","F_knife.wav","None","726.742667146","107","511963.251592","518851.922412","505008.234468","505775.470845","506542.700729","507310.3381","508077.153386","508844.185709","512730.530634","513481.184918","514248.465197","515015.331186","515782.908578","516550.041073","517317.458624","518084.296789","518093.509475","Mapping"
"Mixed","Both","done","48","F_cling.wav","None","725.160946604","107","511963.251592","518851.922412","519618.917016","505775.470845","506542.700729","507310.3381","508077.153386","508844.185709","512730.530634","513481.184918","514248.465197","515015.331186","515782.908578","516550.041073","517317.458624","518084.296789","518861.417371","Mapping"
"Mixed","Both","done","48","M_cave.wav","None","725.006051827","107","511963.251592","518851.922412","519618.917016","520386.099597","506542.700729","507310.3381","508077.153386","508844.185709","512730.530634","513481.184918","514248.465197","515015.331186","515782.908578","516550.041073","517317.458624","518084.296789","519628.156601","Mapping"
"Mixed","Both","done","48","F_done.wav","None","724.125223234","107","511963.251592","518851.922412","519618.917016","520386.099597","521153.28156","507310.3381","508077.153386","508844.185709","512730.530634","513481.184918","514248.465197","515015.331186","515782.908578","516550.041073","517317.458624","518084.296789","520395.349384","Mapping"
"Mixed","Both","done","48","M_lash.wav","space","428.098970558","107","511963.251592","518851.922412","519618.917016","520386.099597","521153.28156","521920.710859","508077.153386","508844.185709","512730.530634","513481.184918","514248.465197","515015.331186","515782.908578","516550.041073","517317.458624","518084.296789","521162.196823","Mapping"
"Mixed","Both","done","48","M_priest.wav","None","720.537290443","107","511963.251592","518851.922412","519618.917016","520386.099597","521153.28156","521920.710859","522687.798215","508844.185709","512730.530634","513481.184918","514248.465197","515015.331186","515782.908578","516550.041073","517317.458624","518084.296789","521930.332579","Mapping"
"Mixed","Both","done","48","F_jaw.wav","None","720.383941662","107","511963.251592","518851.922412","519618.917016","520386.099597","521153.28156","521920.710859","522687.798215","523438.2098","512730.530634","513481.184918","514248.465197","515015.331186","515782.908578","516550.041073","517317.458624","518084.296789","522696.795718","Mapping"
"Mixed","Both","done","37","M_reek.wav","None","736.333469395","107","526590.548696","518851.922412","519618.917016","520386.099597","521153.28156","521920.710859","522687.798215","523438.2098","512730.530634","513481.184918","514248.465197","515015.331186","515782.908578","516550.041073","517317.458624","518084.296789","523447.301909","Mapping"
"Mixed","Both","done","37","F_knife.wav","None","722.304204013","107","526590.548696","518851.922412","519618.917016","520386.099597","521153.28156","521920.710859","522687.798215","523438.2098","527358.220695","513481.184918","514248.465197","515015.331186","515782.908578","516550.041073","517317.458624","518084.296789","526599.477253","Mapping"
"Mixed","Both","done","37","M_done.wav","None","720.355188474","107","526590.548696","518851.922412","519618.917016","520386.099597","521153.28156","521920.710859","522687.798215","523438.2098","527358.220695","528125.266003","514248.465197","515015.331186","515782.908578","516550.041073","517317.458624","518084.296789","527367.872404","Mapping"
"Mixed","Both","done","37","M_greet.wav","space","583.389834501","107","526590.548696","518851.922412","519618.917016","520386.099597","521153.28156","521920.710859","522687.798215","523438.2098","527358.220695","528125.266003","528875.633685","515015.331186","515782.908578","516550.041073","517317.458624","518084.296789","528134.725408","Mapping"
"Mixed","Both","done","37","F_done.wav","None","734.953329433","107","526590.548696","518851.922412","519618.917016","520386.099597","521153.28156","521920.710859","522687.798215","523438.2098","527358.220695","528125.266003","528875.633685","529642.610976","515782.908578","516550.041073","517317.458624","518084.296789","528884.7125","Mapping"
"Mixed","Both","done","37","F_greet.wav","space","530.632227659","107","526590.548696","518851.922412","519618.917016","520386.099597","521153.28156","521920.710859","522687.798215","523438.2098","527358.220695","528125.266003","528875.633685","529642.610976","530410.087888","516550.041073","517317.458624","518084.296789","529651.374746","Mapping"
"Mixed","Both","done","37","M_dime.wav","None","731.306344271","107","526590.548696","518851.922412","519618.917016","520386.099597","521153.28156","521920.710859","522687.798215","523438.2098","527358.220695","528125.266003","528875.633685","529642.610976","530410.087888","531177.634673","517317.458624","518084.296789","530419.768041","Mapping"
"Mixed","Both","done","37","F_done.wav","None","731.205554679","107","526590.548696","518851.922412","519618.917016","520386.099597","521153.28156","521920.710859","522687.798215","523438.2098","527358.220695","528125.266003","528875.633685","529642.610976","530410.087888","531177.634673","531944.625568","518084.296789","531186.416992","Mapping"
"Mixed","Both","done","37","F_jaw.wav","space","524.384185206","107","526590.548696","518851.922412","519618.917016","520386.099597","521153.28156","521920.710859","522687.798215","523438.2098","527358.220695","528125.266003","528875.633685","529642.610976","530410.087888","531177.634673","531944.625568","532712.138962","531953.610703","Mapping"
"Mixed","Both","done","37","M_done.wav","None","727.096667979","107","526590.548696","533479.037723","519618.917016","520386.099597","521153.28156","521920.710859","522687.798215","523438.2098","527358.220695","528125.266003","528875.633685","529642.610976","530410.087888","531177.634673","531944.625568","532712.138962","532721.58971","Mapping"
"Mixed","Both","done","37","M_lash.wav","space","525.317572989","107","526590.548696","533479.037723","534246.33377","520386.099597","521153.28156","521920.710859","522687.798215","523438.2098","527358.220695","528125.266003","528875.633685","529642.610976","530410.087888","531177.634673","531944.625568","532712.138962","533488.679848","Mapping"
"Mixed","Both","done","37","F_reek.wav","None","724.383689929","107","526590.548696","533479.037723","534246.33377","535013.635691","521153.28156","521920.710859","522687.798215","523438.2098","527358.220695","528125.266003","528875.633685","529642.610976","530410.087888","531177.634673","531944.625568","532712.138962","534255.730413","Mapping"
"Mixed","Both","done","37","F_ball.wav","None","723.458959255","107","526590.548696","533479.037723","534246.33377","535013.635691","535781.013358","521920.710859","522687.798215","523438.2098","527358.220695","528125.266003","528875.633685","529642.610976","530410.087888","531177.634673","531944.625568","532712.138962","535023.148582","Mapping"
"Mixed","Both","done","37","M_lash.wav","None","723.067238927","107","526590.548696","533479.037723","534246.33377","535013.635691","535781.013358","536547.931598","522687.798215","523438.2098","527358.220695","528125.266003","528875.633685","529642.610976","530410.087888","531177.634673","531944.625568","532712.138962","535790.068676","Mapping"
"Mixed","Both","done","37","F_dime.wav","None","723.028283101","107","526590.548696","533479.037723","534246.33377","535013.635691","535781.013358","536547.931598","537315.241557","523438.2098","527358.220695","528125.266003","528875.633685","529642.610976","530410.087888","531177.634673","531944.625568","532712.138962","536557.054006","Mapping"
"Mixed","Both","done","37","M_jolt.wav","None","722.00894542","107","526590.548696","533479.037723","534246.33377","535013.635691","535781.013358","536547.931598","537315.241557","538082.462166","527358.220695","528125.266003","528875.633685","529642.610976","530410.087888","531177.634673","531944.625568","532712.138962","537324.689214","Mapping"
