"Condition","Talker","Target","Trial","current_stimulus","response_response","response_time_response","subject_nr","time_Audio1","time_Audio10","time_Audio11","time_Audio12","time_Audio13","time_Audio14","time_Audio15","time_Audio16","time_Audio2","time_Audio3","time_Audio4","time_Audio5","time_Audio6","time_Audio7","time_Audio8","time_Audio9","time_response","title"
"Mixed","Female","cave","19","M_jolt.wav","NA","NA","428","123317.731742","NA","NA","NA","NA","NA","NA","NA","NA","NA","NA","NA","NA","NA","NA","NA","NA","Mapping"
"Mixed","Female","cave","19","F_cave.wav","None","721.001814236","428","123317.731742","NA","NA","NA","NA","NA","NA","NA","124085.04526","NA","NA","NA","NA","NA","NA","NA","123328.593122","Mapping"
"Mixed","Female","cave","19","M_jaw.wav","space","608.603590854","428","123317.731742","NA","NA","NA","NA","NA","NA","NA","124085.04526","124852.062815","NA","NA","NA","NA","NA","NA","124088.592606","Mapping"
"Mixed","Female","cave","19","F_cave.wav","None","725.938532301","428","123317.731742","NA","NA","NA","NA","NA","NA","NA","124085.04526","124852.062815","125601.751679","NA","NA","NA","NA","NA","124855.383907","Mapping"
"Mixed","Female","cave","19","F_cling.wav","space","510.486694899","428","123317.731742","NA","NA","NA","NA","NA","NA","NA","124085.04526","124852.062815","125601.751679","126368.941103","NA","NA","NA","NA","125604.68186","Mapping"
"Mixed","Female","cave","19","M_lash.wav","None","741.168442742","428","123317.731742","NA","NA","NA","NA","NA","NA","NA","124085.04526","124852.062815","125601.751679","126368.941103","127136.155465","NA","NA","NA","126371.713236","Mapping"
"Mixed","Female","cave","19","M_cling.wav","None","739.183840016","428","123317.731742","NA","NA","NA","NA","NA","NA","NA","124085.04526","124852.062815","125601.751679","126368.941103","127136.155465","127903.333472","NA","NA","127139.40144","Mapping"
"Mixed","Female","cave","19","F_cave.wav","None","737.193528363","428","123317.731742","NA","NA","NA","NA","NA","NA","NA","124085.04526","124852.062815","125601.751679","126368.941103","127136.155465","127903.333472","128670.502163","NA","127906.865794","Mapping"
"Mixed","Female","cave","19","F_jaw.wav","space","430.546115796","428","123317.731742","NA","NA","NA","NA","NA","NA","NA","124085.04526","124852.062815","125601.751679","126368.941103","127136.155465","127903.333472","128670.502163","129438.260977","128673.624645","Mapping"
"Mixed","Female","cave","19","F_depth.wav","None","733.918107569","428","123317.731742","130205.515002","NA","NA","NA","NA","NA","NA","124085.04526","124852.062815","125601.751679","126368.941103","127136.155465","127903.333472","128670.502163","129438.260977","129441.731703","Mapping"
"Mixed","Female","cave","19","M_cling.wav","None","732.773918744","428","123317.731742","130205.515002","130972.607074","NA","NA","NA","NA","NA","124085.04526","124852.062815","125601.751679","126368.941103","127136.155465","127903.333472","128670.502163","129438.260977","130208.934648","Mapping"
"Mixed","Female","cave","19","M_knife.wav","None","731.506236851","428","123317.731742","130205.515002","130972.607074","131739.901061","NA","NA","NA","NA","124085.04526","124852.062815","125601.751679","126368.941103","127136.155465","127903.333472","128670.502163","129438.260977","130976.177256","Mapping"
"Mixed","Female","cave","19","F_cave.wav","None","730.1000384","428","123317.731742","130205.515002","130972.607074","131739.901061","132506.960682","NA","NA","NA","124085.04526","124852.062815","125601.751679","126368.941103","127136.155465","127903.333472","128670.502163","129438.260977","131743.3156","Mapping"
"Mixed","Female","cave","19","M_greet.wav","space","448.117286565","428","123317.731742","130205.515002","130972.607074","131739.901061","132506.960682","133274.255872","NA","NA","124085.04526","124852.062815","125601.751679","126368.941103","127136.155465","127903.333472","128670.502163","129438.260977","132510.032084","Mapping"
"Mixed","Female","cave","19","F_bluff.wav","None","727.947473079","428","123317.731742","130205.515002","130972.607074","131739.901061","132506.960682","133274.255872","134041.336826","NA","124085.04526","124852.062815","125601.751679","126368.941103","127136.155465","127903.333472","128670.502163","129438.260977","133277.039724","Mapping"
"Mixed","Female","cave","19","M_bluff.wav","None","726.541875569","428","123317.731742","130205.515002","130972.607074","131739.901061","132506.960682","133274.255872","134041.336826","134791.76184","124085.04526","124852.062815","125601.751679","126368.941103","127136.155465","127903.333472","128670.502163","129438.260977","134044.690369","Mapping"
"Mixed","Female","tile","36","F_depth.wav","None","741.592105098","428","137961.533562","130205.515002","130972.607074","131739.901061","132506.960682","133274.255872","134041.336826","134791.76184","124085.04526","124852.062815","125601.751679","126368.941103","127136.155465","127903.333472","128670.502163","129438.260977","134795.216041","Mapping"
"Mixed","Female","tile","36","M_park.wav","None","728.819135837","428","137961.533562","130205.515002","130972.607074","131739.901061","132506.960682","133274.255872","134041.336826","134791.76184","138728.9243","124852.062815","125601.751679","126368.941103","127136.155465","127903.333472","128670.502163","129438.260977","137965.015706","Mapping"
"Mixed","Female","tile","36","F_tile.wav","None","727.78882505","428","137961.533562","130205.515002","130972.607074","131739.901061","132506.960682","133274.255872","134041.336826","134791.76184","138728.9243","139496.063846","125601.751679","126368.941103","127136.155465","127903.333472","128670.502163","129438.260977","138732.036566","Mapping"
"Mixed","Female","tile","36","M_cling.wav","space","493.423618485","428","137961.533562","130205.515002","130972.607074","131739.901061","132506.960682","133274.255872","134041.336826","134791.76184","138728.9243","139496.063846","140263.315167","126368.941103","127136.155465","127903.333472","128670.502163","129438.260977","139499.669784","Mapping"
"Mixed","Female","tile","36","F_tile.wav","None","724.44850279","428","137961.533562","130205.515002","130972.607074","131739.901061","132506.960682","133274.255872","134041.336826","134791.76184","138728.9243","139496.063846","140263.315167","141013.216162","127136.155465","127903.333472","128670.502163","129438.260977","140266.778081","Mapping"
"Mixed","Female","tile","36","F_cling.wav","space","556.192050653","428","137961.533562","130205.515002","130972.607074","131739.901061","132506.960682","133274.255872","134041.336826","134791.76184","138728.9243","139496.063846","140263.315167","141013.216162","141780.037511","127903.333472","128670.502163","129438.260977","141016.961518","Mapping"
"Mixed","Female","tile","36","F_tile.wav","None","739.894751454","428","137961.533562","130205.515002","130972.607074","131739.901061","132506.960682","133274.255872","134041.336826","134791.76184","138728.9243","139496.063846","140263.315167","141013.216162","141780.037511","142547.57548","128670.502163","129438.260977","141783.176218","Mapping"
"Mixed","Female","tile","36","M_priest.wav","space","468.452779074","428","137961.533562","130205.515002","130972.607074","131739.901061","132506.960682","133274.255872","134041.336826","134791.76184","138728.9243","139496.063846","140263.315167","141013.216162","141780.037511","142547.57548","143314.924753","129438.260977","142550.661604","Mapping"
"Mixed","Female","tile","36","F_tile.wav","None","736.693546691","428","137961.533562","130205.515002","130972.607074","131739.901061","132506.960682","133274.255872","134041.336826","134791.76184","138728.9243","139496.063846","140263.315167","141013.216162","141780.037511","142547.57548","143314.924753","144081.861783","143318.412606","Mapping"
"Mixed","Female","tile","36","M_jolt.wav","space","473.508783632","428","137961.533562","144849.049103","130972.607074","131739.901061","132506.960682","133274.255872","134041.336826","134791.76184","138728.9243","139496.063846","140263.315167","141013.216162","141780.037511","142547.57548","143314.924753","144081.861783","144084.630311","Mapping"
"Mixed","Female","tile","36","M_dime.wav","None","734.681901686","428","137961.533562","144849.049103","145616.189551","131739.901061","132506.960682","133274.255872","134041.336826","134791.76184","138728.9243","139496.063846","140263.315167","141013.216162","141780.037511","142547.57548","143314.924753","144081.861783","144851.936017","Mapping"
"Mixed","Female","tile","36","F_romp.wav","None","732.37609679","428","137961.533562","144849.049103","145616.189551","146383.436364","132506.960682","133274.255872","134041.336826","134791.76184","138728.9243","139496.063846","140263.315167","141013.216162","141780.037511","142547.57548","143314.924753","144081.861783","145620.133216","Mapping"
"Mixed","Female","tile","36","M_jolt.wav","None","732.355063907","428","137961.533562","144849.049103","145616.189551","146383.436364","147151.48393","133274.255872","134041.336826","134791.76184","138728.9243","139496.063846","140263.315167","141013.216162","141780.037511","142547.57548","143314.924753","144081.861783","146386.223522","Mapping"
"Mixed","Female","tile","36","F_depth.wav","None","728.765351751","428","137961.533562","144849.049103","145616.189551","146383.436364","147151.48393","147918.765899","134041.336826","134791.76184","138728.9243","139496.063846","140263.315167","141013.216162","141780.037511","142547.57548","143314.924753","144081.861783","147155.397549","Mapping"
"Mixed","Female","tile","36","M_park.wav","None","727.987135087","428","137961.533562","144849.049103","145616.189551","146383.436364","147151.48393","147918.765899","148685.469162","134791.76184","138728.9243","139496.063846","140263.315167","141013.216162","141780.037511","142547.57548","143314.924753","144081.861783","147922.196362","Mapping"
"Mixed","Female","tile","36","M_bluff.wav","None","727.914721876","428","137961.533562","144849.049103","145616.189551","146383.436364","147151.48393","147918.765899","148685.469162","149452.52037","138728.9243","139496.063846","140263.315167","141013.216162","141780.037511","142547.57548","143314.924753","144081.861783","148688.402649","Mapping"
"Mixed","Female","cave","22","M_bluff.wav","None","727.058984015","428","152572.032816","144849.049103","145616.189551","146383.436364","147151.48393","147918.765899","148685.469162","149452.52037","138728.9243","139496.063846","140263.315167","141013.216162","141780.037511","142547.57548","143314.924753","144081.861783","149455.451753","Mapping"
"Mixed","Female","cave","22","F_romp.wav","None","729.210948397","428","152572.032816","144849.049103","145616.189551","146383.436364","147151.48393","147918.765899","148685.469162","149452.52037","153338.837338","139496.063846","140263.315167","141013.216162","141780.037511","142547.57548","143314.924753","144081.861783","152575.63635","Mapping"
"Mixed","Female","cave","22","M_gnash.wav","None","728.559229499","428","152572.032816","144849.049103","145616.189551","146383.436364","147151.48393","147918.765899","148685.469162","149452.52037","153338.837338","154105.926706","140263.315167","141013.216162","141780.037511","142547.57548","143314.924753","144081.861783","153342.239557","Mapping"
"Mixed","Female","cave","22","F_gnash.wav","None","728.175830092","428","152572.032816","144849.049103","145616.189551","146383.436364","147151.48393","147918.765899","148685.469162","149452.52037","153338.837338","154105.926706","154873.233012","141013.216162","141780.037511","142547.57548","143314.924753","144081.861783","154109.014033","Mapping"
"Mixed","Female","cave","22","F_cave.wav","None","726.811997878","428","152572.032816","144849.049103","145616.189551","146383.436364","147151.48393","147918.765899","148685.469162","149452.52037","153338.837338","154105.926706","154873.233012","155623.517107","141780.037511","142547.57548","143314.924753","144081.861783","154876.079062","Mapping"
"Mixed","Female","cave","22","F_jaw.wav","space","470.688574518","428","152572.032816","144849.049103","145616.189551","146383.436364","147151.48393","147918.765899","148685.469162","149452.52037","153338.837338","154105.926706","154873.233012","155623.517107","156390.729066","142547.57548","143314.924753","144081.861783","155626.50648","Mapping"
"Mixed","Female","cave","22","M_jaw.wav","None","741.338809094","428","152572.032816","144849.049103","145616.189551","146383.436364","147151.48393","147918.765899","148685.469162","149452.52037","153338.837338","154105.926706","154873.233012","155623.517107","156390.729066","157157.972574","143314.924753","144081.861783","156393.834421","Mapping"
"Mixed","Female","cave","22","M_bluff.wav","None","740.386019503","428","152572.032816","144849.049103","145616.189551","146383.436364","147151.48393","147918.765899","148685.469162","149452.52037","153338.837338","154105.926706","154873.233012","155623.517107","156390.729066","157157.972574","157925.176421","144081.861783","157160.775356","Mapping"
"Mixed","Female","cave","22","F_cave.wav","None","739.46147407","428","152572.032816","144849.049103","145616.189551","146383.436364","147151.48393","147918.765899","148685.469162","149452.52037","153338.837338","154105.926706","154873.233012","155623.517107","156390.729066","157157.972574","157925.176421","158692.384474","157928.16279","Mapping"
"Mixed","Female","cave","22","F_dime.wav","space","429.083729503","428","152572.032816","159459.840415","145616.189551","146383.436364","147151.48393","147918.765899","148685.469162","149452.52037","153338.837338","154105.926706","154873.233012","155623.517107","156390.729066","157157.972574","157925.176421","158692.384474","158695.111838","Mapping"
"Mixed","Female","cave","22","F_cave.wav","None","736.152100195","428","152572.032816","159459.840415","160226.875097","146383.436364","147151.48393","147918.765899","148685.469162","149452.52037","153338.837338","154105.926706","154873.233012","155623.517107","156390.729066","157157.972574","157925.176421","158692.384474","159463.004962","Mapping"
"Mixed","Female","cave","22","M_depth.wav","space","584.525747554","428","152572.032816","159459.840415","160226.875097","160994.469554","147151.48393","147918.765899","148685.469162","149452.52037","153338.837338","154105.926706","154873.233012","155623.517107","156390.729066","157157.972574","157925.176421","158692.384474","160229.701315","Mapping"
"Mixed","Female","cave","22","M_jaw.wav","None","733.305750209","428","152572.032816","159459.840415","160226.875097","160994.469554","161761.66018","147918.765899","148685.469162","149452.52037","153338.837338","154105.926706","154873.233012","155623.517107","156390.729066","157157.972574","157925.176421","158692.384474","160997.822195","Mapping"
"Mixed","Female","cave","22","M_depth.wav","None","732.385711823","428","152572.032816","159459.840415","160226.875097","160994.469554","161761.66018","162528.472514","148685.469162","149452.52037","153338.837338","154105.926706","154873.233012","155623.517107","156390.729066","157157.972574","157925.176421","158692.384474","161764.923281","Mapping"
"Mixed","Female","cave","22","F_cave.wav","None","732.134819578","428","152572.032816","159459.840415","160226.875097","160994.469554","161761.66018","162528.472514","163296.159516","149452.52037","153338.837338","154105.926706","154873.233012","155623.517107","156390.729066","157157.972574","157925.176421","158692.384474","162531.312254","Mapping"
"Mixed","Female","cave","22","M_dime.wav","space","414.426514413","428","152572.032816","159459.840415","160226.875097","160994.469554","161761.66018","162528.472514","163296.159516","164063.373578","153338.837338","154105.926706","154873.233012","155623.517107","156390.729066","157157.972574","157925.176421","158692.384474","163299.775669","Mapping"
"Mixed","Female","ball","9","M_romp.wav","None","729.178497662","428","167199.634809","159459.840415","160226.875097","160994.469554","161761.66018","162528.472514","163296.159516","164063.373578","153338.837338","154105.926706","154873.233012","155623.517107","156390.729066","157157.972574","157925.176421","158692.384474","164066.553149","Mapping"
"Mixed","Female","ball","9","M_greet.wav","None","728.704957332","428","167199.634809","159459.840415","160226.875097","160994.469554","161761.66018","162528.472514","163296.159516","164063.373578","167966.110317","154105.926706","154873.233012","155623.517107","156390.729066","157157.972574","157925.176421","158692.384474","167203.031319","Mapping"
"Mixed","Female","ball","9","F_ball.wav","None","728.324262151","428","167199.634809","159459.840415","160226.875097","160994.469554","161761.66018","162528.472514","163296.159516","164063.373578","167966.110317","168733.493544","154873.233012","155623.517107","156390.729066","157157.972574","157925.176421","158692.384474","167969.508329","Mapping"
"Mixed","Female","ball","9","F_depth.wav","space","412.115902001","428","167199.634809","159459.840415","160226.875097","160994.469554","161761.66018","162528.472514","163296.159516","164063.373578","167966.110317","168733.493544","169500.385202","155623.517107","156390.729066","157157.972574","157925.176421","158692.384474","168737.02857","Mapping"
"Mixed","Female","ball","9","M_reek.wav","None","725.575865308","428","167199.634809","159459.840415","160226.875097","160994.469554","161761.66018","162528.472514","163296.159516","164063.373578","167966.110317","168733.493544","169500.385202","170250.81232","156390.729066","157157.972574","157925.176421","158692.384474","169503.874858","Mapping"
"Mixed","Female","ball","9","F_jaw.wav","None","742.010058526","428","167199.634809","159459.840415","160226.875097","160994.469554","161761.66018","162528.472514","163296.159516","164063.373578","167966.110317","168733.493544","169500.385202","170250.81232","171017.952166","157157.972574","157925.176421","158692.384474","170253.945919","Mapping"
"Mixed","Female","ball","9","M_cling.wav","None","741.5891004","428","167199.634809","159459.840415","160226.875097","160994.469554","161761.66018","162528.472514","163296.159516","164063.373578","167966.110317","168733.493544","169500.385202","170250.81232","171017.952166","171785.251863","157925.176421","158692.384474","171020.598103","Mapping"
"Mixed","Female","ball","9","M_jaw.wav","None","739.975577819","428","167199.634809","159459.840415","160226.875097","160994.469554","161761.66018","162528.472514","163296.159516","164063.373578","167966.110317","168733.493544","169500.385202","170250.81232","171017.952166","171785.251863","172552.441287","158692.384474","171787.940466","Mapping"
"Mixed","Female","ball","9","F_ball.wav","None","738.719614244","428","167199.634809","159459.840415","160226.875097","160994.469554","161761.66018","162528.472514","163296.159516","164063.373578","167966.110317","168733.493544","169500.385202","170250.81232","171017.952166","171785.251863","172552.441287","173319.678485","172555.103449","Mapping"
"Mixed","Female","ball","9","F_romp.wav","space","439.732978539","428","167199.634809","174086.884736","160226.875097","160994.469554","161761.66018","162528.472514","163296.159516","164063.373578","167966.110317","168733.493544","169500.385202","170250.81232","171017.952166","171785.251863","172552.441287","173319.678485","173322.416065","Mapping"
"Mixed","Female","ball","9","F_ball.wav","None","735.91172439","428","167199.634809","174086.884736","174854.080169","160994.469554","161761.66018","162528.472514","163296.159516","164063.373578","167966.110317","168733.493544","169500.385202","170250.81232","171017.952166","171785.251863","172552.441287","173319.678485","174089.75933","Mapping"
"Mixed","Female","ball","9","M_greet.wav","space","558.3473202","428","167199.634809","174086.884736","174854.080169","175621.352222","161761.66018","162528.472514","163296.159516","164063.373578","167966.110317","168733.493544","169500.385202","170250.81232","171017.952166","171785.251863","172552.441287","173319.678485","174856.866725","Mapping"
"Mixed","Female","ball","9","M_cad.wav","None","733.73572243","428","167199.634809","174086.884736","174854.080169","175621.352222","176388.568388","162528.472514","163296.159516","164063.373578","167966.110317","168733.493544","169500.385202","170250.81232","171017.952166","171785.251863","172552.441287","173319.678485","175623.961802","Mapping"
"Mixed","Female","ball","9","F_ball.wav","None","732.661843527","428","167199.634809","174086.884736","174854.080169","175621.352222","176388.568388","177155.700422","163296.159516","164063.373578","167966.110317","168733.493544","169500.385202","170250.81232","171017.952166","171785.251863","172552.441287","173319.678485","176391.548146","Mapping"
"Mixed","Female","ball","9","M_depth.wav","space","426.55437511","428","167199.634809","174086.884736","174854.080169","175621.352222","176388.568388","177155.700422","177923.204137","164063.373578","167966.110317","168733.493544","169500.385202","170250.81232","171017.952166","171785.251863","172552.441287","173319.678485","177158.632406","Mapping"
"Mixed","Female","ball","9","F_cling.wav","None","729.819099181","428","167199.634809","174086.884736","174854.080169","175621.352222","176388.568388","177155.700422","177923.204137","178690.642951","167966.110317","168733.493544","169500.385202","170250.81232","171017.952166","171785.251863","172552.441287","173319.678485","177926.236178","Mapping"
"Mixed","Female","ball","11","M_cling.wav","None","729.244901479","428","181810.134965","174086.884736","174854.080169","175621.352222","176388.568388","177155.700422","177923.204137","178690.642951","167966.110317","168733.493544","169500.385202","170250.81232","171017.952166","171785.251863","172552.441287","173319.678485","178693.198747","Mapping"
"Mixed","Female","ball","11","M_jolt.wav","None","727.956487171","428","181810.134965","174086.884736","174854.080169","175621.352222","176388.568388","177155.700422","177923.204137","178690.642951","182576.635712","168733.493544","169500.385202","170250.81232","171017.952166","171785.251863","172552.441287","173319.678485","181813.581954","Mapping"
"Mixed","Female","ball","11","M_greet.wav","None","728.046928569","428","181810.134965","174086.884736","174854.080169","175621.352222","176388.568388","177155.700422","177923.204137","178690.642951","182576.635712","183344.456123","169500.385202","170250.81232","171017.952166","171785.251863","172552.441287","173319.678485","182579.714626","Mapping"
"Mixed","Female","ball","11","F_ball.wav","None","725.266080992","428","181810.134965","174086.884736","174854.080169","175621.352222","176388.568388","177155.700422","177923.204137","178690.642951","182576.635712","183344.456123","184111.780458","170250.81232","171017.952166","171785.251863","172552.441287","173319.678485","183348.322267","Mapping"
"Mixed","Female","ball","11","M_romp.wav","space","344.017436861","428","181810.134965","174086.884736","174854.080169","175621.352222","176388.568388","177155.700422","177923.204137","178690.642951","182576.635712","183344.456123","184111.780458","184861.374673","171017.952166","171785.251863","172552.441287","173319.678485","184115.176066","Mapping"
"Mixed","Female","ball","11","F_ball.wav","None","741.872443379","428","181810.134965","174086.884736","174854.080169","175621.352222","176388.568388","177155.700422","177923.204137","178690.642951","182576.635712","183344.456123","184111.780458","184861.374673","185628.620285","171785.251863","172552.441287","173319.678485","184864.036535","Mapping"
"Mixed","Female","ball","11","F_cad.wav","space","391.432465516","428","181810.134965","174086.884736","174854.080169","175621.352222","176388.568388","177155.700422","177923.204137","178690.642951","182576.635712","183344.456123","184111.780458","184861.374673","185628.620285","186396.154348","172552.441287","173319.678485","185631.760194","Mapping"
"Mixed","Female","ball","11","F_jaw.wav","None","738.969905551","428","181810.134965","174086.884736","174854.080169","175621.352222","176388.568388","177155.700422","177923.204137","178690.642951","182576.635712","183344.456123","184111.780458","184861.374673","185628.620285","186396.154348","187163.393049","173319.678485","186399.171365","Mapping"
"Mixed","Female","ball","11","M_priest.wav","None","737.763819956","428","181810.134965","174086.884736","174854.080169","175621.352222","176388.568388","177155.700422","177923.204137","178690.642951","182576.635712","183344.456123","184111.780458","184861.374673","185628.620285","186396.154348","187163.393049","187930.221308","187166.690103","Mapping"
"Mixed","Female","ball","11","F_priest.wav","None","737.507819726","428","181810.134965","188697.417943","174854.080169","175621.352222","176388.568388","177155.700422","177923.204137","178690.642951","182576.635712","183344.456123","184111.780458","184861.374673","185628.620285","186396.154348","187163.393049","187930.221308","187933.106419","Mapping"
"Mixed","Female","ball","11","F_ball.wav","None","736.802316742","428","181810.134965","188697.417943","189464.656644","175621.352222","176388.568388","177155.700422","177923.204137","178690.642951","182576.635712","183344.456123","184111.780458","184861.374673","185628.620285","186396.154348","187163.393049","187930.221308","188700.245965","Mapping"
"Mixed","Female","ball","11","M_romp.wav","space","386.499052618","428","181810.134965","188697.417943","189464.656644","190231.926895","176388.568388","177155.700422","177923.204137","178690.642951","182576.635712","183344.456123","184111.780458","184861.374673","185628.620285","186396.154348","187163.393049","187930.221308","189467.693792","Mapping"
"Mixed","Female","ball","11","F_ball.wav","None","733.979403398","428","181810.134965","188697.417943","189464.656644","190231.926895","190998.991624","177155.700422","177923.204137","178690.642951","182576.635712","183344.456123","184111.780458","184861.374673","185628.620285","186396.154348","187163.393049","187930.221308","190235.074015","Mapping"
"Mixed","Female","ball","11","M_jaw.wav","space","510.49781228","428","181810.134965","188697.417943","189464.656644","190231.926895","190998.991624","191766.375451","177923.204137","178690.642951","182576.635712","183344.456123","184111.780458","184861.374673","185628.620285","186396.154348","187163.393049","187930.221308","191001.728903","Mapping"
"Mixed","Female","ball","11","M_cling.wav","None","731.74000232","428","181810.134965","188697.417943","189464.656644","190231.926895","190998.991624","191766.375451","192533.566678","178690.642951","182576.635712","183344.456123","184111.780458","184861.374673","185628.620285","186396.154348","187163.393049","187930.221308","191769.252449","Mapping"
"Mixed","Female","ball","11","F_cad.wav","None","731.440133504","428","181810.134965","188697.417943","189464.656644","190231.926895","190998.991624","191766.375451","192533.566678","193301.181868","182576.635712","183344.456123","184111.780458","184861.374673","185628.620285","186396.154348","187163.393049","187930.221308","192536.172051","Mapping"
"Mixed","Female","done","43","M_cad.wav","None","729.918254197","428","196437.209634","188697.417943","189464.656644","190231.926895","190998.991624","191766.375451","192533.566678","193301.181868","182576.635712","183344.456123","184111.780458","184861.374673","185628.620285","186396.154348","187163.393049","187930.221308","193303.749081","Mapping"
"Mixed","Female","done","43","F_cad.wav","None","728.494027564","428","196437.209634","188697.417943","189464.656644","190231.926895","190998.991624","191766.375451","192533.566678","193301.181868","197204.015358","183344.456123","184111.780458","184861.374673","185628.620285","186396.154348","187163.393049","187930.221308","196441.11574","Mapping"
"Mixed","Female","done","43","M_romp.wav","None","729.01203742","428","196437.209634","188697.417943","189464.656644","190231.926895","190998.991624","191766.375451","192533.566678","193301.181868","197204.015358","197971.308444","184111.780458","184861.374673","185628.620285","186396.154348","187163.393049","187930.221308","197207.0486","Mapping"
"Mixed","Female","done","43","M_cling.wav","None","728.568844532","428","196437.209634","188697.417943","189464.656644","190231.926895","190998.991624","191766.375451","192533.566678","193301.181868","197204.015358","197971.308444","198738.502074","184861.374673","185628.620285","186396.154348","187163.393049","187930.221308","197974.08869","Mapping"
"Mixed","Female","done","43","M_lash.wav","None","727.607040848","428","196437.209634","188697.417943","189464.656644","190231.926895","190998.991624","191766.375451","192533.566678","193301.181868","197204.015358","197971.308444","198738.502074","199505.52624","185628.620285","186396.154348","187163.393049","187930.221308","198741.462002","Mapping"
"Mixed","Female","done","43","F_done.wav","None","726.83483358","428","196437.209634","188697.417943","189464.656644","190231.926895","190998.991624","191766.375451","192533.566678","193301.181868","197204.015358","197971.308444","198738.502074","199505.52624","200272.826837","186396.154348","187163.393049","187930.221308","199508.510205","Mapping"
"Mixed","Female","done","43","M_gnash.wav","space","352.324524161","428","196437.209634","188697.417943","189464.656644","190231.926895","190998.991624","191766.375451","192533.566678","193301.181868","197204.015358","197971.308444","198738.502074","199505.52624","200272.826837","201023.079382","187163.393049","187930.221308","200275.916568","Mapping"
"Mixed","Female","done","43","F_done.wav","None","741.451485252","428","196437.209634","188697.417943","189464.656644","190231.926895","190998.991624","191766.375451","192533.566678","193301.181868","197204.015358","197971.308444","198738.502074","199505.52624","200272.826837","201023.079382","201790.34783","187930.221308","201025.823573","Mapping"
"Mixed","Female","done","43","M_knife.wav","space","357.885317906","428","196437.209634","188697.417943","189464.656644","190231.926895","190998.991624","191766.375451","192533.566678","193301.181868","197204.015358","197971.308444","198738.502074","199505.52624","200272.826837","201023.079382","201790.34783","202557.436596","201793.314067","Mapping"
"Mixed","Female","done","43","F_done.wav","None","739.170018405","428","196437.209634","203324.725776","189464.656644","190231.926895","190998.991624","191766.375451","192533.566678","193301.181868","197204.015358","197971.308444","198738.502074","199505.52624","200272.826837","201023.079382","201790.34783","202557.436596","202560.04227","Mapping"
"Mixed","Female","done","43","M_depth.wav","space","493.848482718","428","196437.209634","203324.725776","204091.917604","190231.926895","190998.991624","191766.375451","192533.566678","193301.181868","197204.015358","197971.308444","198738.502074","199505.52624","200272.826837","201023.079382","201790.34783","202557.436596","203327.368708","Mapping"
"Mixed","Female","done","43","F_jolt.wav","None","737.240101174","428","196437.209634","203324.725776","204091.917604","204859.093807","190998.991624","191766.375451","192533.566678","193301.181868","197204.015358","197971.308444","198738.502074","199505.52624","200272.826837","201023.079382","201790.34783","202557.436596","204094.584273","Mapping"
"Mixed","Female","done","43","F_done.wav","None","736.446260084","428","196437.209634","203324.725776","204091.917604","204859.093807","205626.386893","191766.375451","192533.566678","193301.181868","197204.015358","197971.308444","198738.502074","199505.52624","200272.826837","201023.079382","201790.34783","202557.436596","204861.70549","Mapping"
"Mixed","Female","done","43","M_priest.wav","space","680.658641721","428","196437.209634","203324.725776","204091.917604","204859.093807","205626.386893","206393.98105","192533.566678","193301.181868","197204.015358","197971.308444","198738.502074","199505.52624","200272.826837","201023.079382","201790.34783","202557.436596","205629.550239","Mapping"
"Mixed","Female","done","43","F_knife.wav","None","732.705411641","428","196437.209634","203324.725776","204091.917604","204859.093807","205626.386893","206393.98105","207161.156051","193301.181868","197204.015358","197971.308444","198738.502074","199505.52624","200272.826837","201023.079382","201790.34783","202557.436596","206397.549729","Mapping"
"Mixed","Female","done","43","F_cling.wav","None","732.214143591","428","196437.209634","203324.725776","204091.917604","204859.093807","205626.386893","206393.98105","207161.156051","207928.066038","197204.015358","197971.308444","198738.502074","199505.52624","200272.826837","201023.079382","201790.34783","202557.436596","207164.263209","Mapping"
"Mixed","Female","tile","35","M_cling.wav","None","731.656772197","428","211064.828453","203324.725776","204091.917604","204859.093807","205626.386893","206393.98105","207161.156051","207928.066038","197204.015358","197971.308444","198738.502074","199505.52624","200272.826837","201023.079382","201790.34783","202557.436596","207931.218267","Mapping"
"Mixed","Female","tile","35","M_romp.wav","None","727.179772857","428","211064.828453","203324.725776","204091.917604","204859.093807","205626.386893","206393.98105","207161.156051","207928.066038","211831.133294","197971.308444","198738.502074","199505.52624","200272.826837","201023.079382","201790.34783","202557.436596","211068.359273","Mapping"
"Mixed","Female","tile","35","M_gnash.wav","None","727.831491755","428","211064.828453","203324.725776","204091.917604","204859.093807","205626.386893","206393.98105","207161.156051","207928.066038","211831.133294","212598.44591","198738.502074","199505.52624","200272.826837","201023.079382","201790.34783","202557.436596","211834.140996","Mapping"
"Mixed","Female","tile","35","F_tile.wav","None","727.235960701","428","211064.828453","203324.725776","204091.917604","204859.093807","205626.386893","206393.98105","207161.156051","207928.066038","211831.133294","212598.44591","213365.550301","199505.52624","200272.826837","201023.079382","201790.34783","202557.436596","212601.214739","Mapping"
"Mixed","Female","tile","35","F_lash.wav","space","406.515746719","428","211064.828453","203324.725776","204091.917604","204859.093807","205626.386893","206393.98105","207161.156051","207928.066038","211831.133294","212598.44591","213365.550301","214115.85002","200272.826837","201023.079382","201790.34783","202557.436596","213368.705534","Mapping"
"Mixed","Female","tile","35","M_gnash.wav","None","741.830077142","428","211064.828453","203324.725776","204091.917604","204859.093807","205626.386893","206393.98105","207161.156051","207928.066038","211831.133294","212598.44591","213365.550301","214115.85002","214883.094129","201023.079382","201790.34783","202557.436596","214118.54283","Mapping"
"Mixed","Female","tile","35","M_knife.wav","None","741.045550614","428","211064.828453","203324.725776","204091.917604","204859.093807","205626.386893","206393.98105","207161.156051","207928.066038","211831.133294","212598.44591","213365.550301","214115.85002","214883.094129","215650.354164","201790.34783","202557.436596","214885.880385","Mapping"
"Mixed","Female","tile","35","M_dime.wav","None","740.113192967","428","211064.828453","203324.725776","204091.917604","204859.093807","205626.386893","206393.98105","207161.156051","207928.066038","211831.133294","212598.44591","213365.550301","214115.85002","214883.094129","215650.354164","216417.59647","202557.436596","215653.189997","Mapping"
"Mixed","Female","tile","35","F_tile.wav","None","739.069961979","428","211064.828453","203324.725776","204091.917604","204859.093807","205626.386893","206393.98105","207161.156051","207928.066038","211831.133294","212598.44591","213365.550301","214115.85002","214883.094129","215650.354164","216417.59647","217185.276862","216420.537769","Mapping"
"Mixed","Female","tile","35","F_park.wav","space","391.941761749","428","211064.828453","217952.40499","204091.917604","204859.093807","205626.386893","206393.98105","207161.156051","207928.066038","211831.133294","212598.44591","213365.550301","214115.85002","214883.094129","215650.354164","216417.59647","217185.276862","217188.238592","Mapping"
"Mixed","Female","tile","35","F_tile.wav","None","736.343499428","428","211064.828453","217952.40499","218719.636179","204859.093807","205626.386893","206393.98105","207161.156051","207928.066038","211831.133294","212598.44591","213365.550301","214115.85002","214883.094129","215650.354164","216417.59647","217185.276862","217955.531077","Mapping"
"Mixed","Female","tile","35","M_park.wav","space","503.09543941","428","211064.828453","217952.40499","218719.636179","219486.891706","205626.386893","206393.98105","207161.156051","207928.066038","211831.133294","212598.44591","213365.550301","214115.85002","214883.094129","215650.354164","216417.59647","217185.276862","218723.136351","Mapping"
"Mixed","Female","tile","35","F_reek.wav","None","733.882952609","428","211064.828453","217952.40499","218719.636179","219486.891706","220253.916473","206393.98105","207161.156051","207928.066038","211831.133294","212598.44591","213365.550301","214115.85002","214883.094129","215650.354164","216417.59647","217185.276862","219490.251259","Mapping"
"Mixed","Female","tile","35","M_romp.wav","None","733.324679804","428","211064.828453","217952.40499","218719.636179","219486.891706","220253.916473","221020.863117","207161.156051","207928.066038","211831.133294","212598.44591","213365.550301","214115.85002","214883.094129","215650.354164","216417.59647","217185.276862","220257.184983","Mapping"
"Mixed","Female","tile","35","F_tile.wav","None","732.926256909","428","211064.828453","217952.40499","218719.636179","219486.891706","220253.916473","221020.863117","221788.075077","207928.066038","211831.133294","212598.44591","213365.550301","214115.85002","214883.094129","215650.354164","216417.59647","217185.276862","221024.168285","Mapping"
"Mixed","Female","tile","35","F_depth.wav","space","415.366083334","428","211064.828453","217952.40499","218719.636179","219486.891706","220253.916473","221020.863117","221788.075077","222555.338717","211831.133294","212598.44591","213365.550301","214115.85002","214883.094129","215650.354164","216417.59647","217185.276862","221790.851417","Mapping"
"Mixed","Male","cave","14","F_cling.wav","None","731.208771795","428","225691.899816","217952.40499","218719.636179","219486.891706","220253.916473","221020.863117","221788.075077","222555.338717","211831.133294","212598.44591","213365.550301","214115.85002","214883.094129","215650.354164","216417.59647","217185.276862","222558.414625","Mapping"
"Mixed","Male","cave","14","M_cave.wav","None","728.734703836","428","225691.899816","217952.40499","218719.636179","219486.891706","220253.916473","221020.863117","221788.075077","222555.338717","226458.881616","212598.44591","213365.550301","214115.85002","214883.094129","215650.354164","216417.59647","217185.276862","225695.537003","Mapping"
"Mixed","Male","cave","14","M_bluff.wav","space","467.633398055","428","225691.899816","217952.40499","218719.636179","219486.891706","220253.916473","221020.863117","221788.075077","222555.338717","226458.881616","227226.22518","213365.550301","214115.85002","214883.094129","215650.354164","216417.59647","217185.276862","226462.586107","Mapping"
"Mixed","Male","cave","14","M_jolt.wav","None","726.741988425","428","225691.899816","217952.40499","218719.636179","219486.891706","220253.916473","221020.863117","221788.075077","222555.338717","226458.881616","227226.22518","227992.960595","214115.85002","214883.094129","215650.354164","216417.59647","217185.276862","227230.046254","Mapping"
"Mixed","Male","cave","14","M_greet.wav","None","727.455604092","428","225691.899816","217952.40499","218719.636179","219486.891706","220253.916473","221020.863117","221788.075077","222555.338717","226458.881616","227226.22518","227992.960595","228760.161436","214883.094129","215650.354164","216417.59647","217185.276862","227995.933142","Mapping"
"Mixed","Male","cave","14","F_priest.wav","None","726.500410743","428","225691.899816","217952.40499","218719.636179","219486.891706","220253.916473","221020.863117","221788.075077","222555.338717","226458.881616","227226.22518","227992.960595","228760.161436","229510.373418","215650.354164","216417.59647","217185.276862","228763.097326","Mapping"
"Mixed","Male","cave","14","M_cave.wav","None","742.906960742","428","225691.899816","217952.40499","218719.636179","219486.891706","220253.916473","221020.863117","221788.075077","222555.338717","226458.881616","227226.22518","227992.960595","228760.161436","229510.373418","230277.5361","216417.59647","217185.276862","229513.207449","Mapping"
"Mixed","Male","cave","14","M_lash.wav","space","479.845089814","428","225691.899816","217952.40499","218719.636179","219486.891706","220253.916473","221020.863117","221788.075077","222555.338717","226458.881616","227226.22518","227992.960595","228760.161436","229510.373418","230277.5361","231045.18975","217185.276862","230280.389962","Mapping"
"Mixed","Male","cave","14","M_cave.wav","None","739.932009703","428","225691.899816","217952.40499","218719.636179","219486.891706","220253.916473","221020.863117","221788.075077","222555.338717","226458.881616","227226.22518","227992.960595","228760.161436","229510.373418","230277.5361","231045.18975","231812.373765","231048.588363","Mapping"
"Mixed","Male","cave","14","F_jaw.wav","space","528.58098351","428","225691.899816","232579.229968","218719.636179","219486.891706","220253.916473","221020.863117","221788.075077","222555.338717","226458.881616","227226.22518","227992.960595","228760.161436","229510.373418","230277.5361","231045.18975","231812.373765","231815.656698","Mapping"
"Mixed","Male","cave","14","M_cave.wav","None","738.662825461","428","225691.899816","232579.229968","233346.471373","219486.891706","220253.916473","221020.863117","221788.075077","222555.338717","226458.881616","227226.22518","227992.960595","228760.161436","229510.373418","230277.5361","231045.18975","231812.373765","232582.178177","Mapping"
"Mixed","Male","cave","14","F_jolt.wav","space","534.937120694","428","225691.899816","232579.229968","233346.471373","234114.05922","220253.916473","221020.863117","221788.075077","222555.338717","226458.881616","227226.22518","227992.960595","228760.161436","229510.373418","230277.5361","231045.18975","231812.373765","233349.29639","Mapping"
"Mixed","Male","cave","14","F_bluff.wav","None","735.546653639","428","225691.899816","232579.229968","233346.471373","234114.05922","234881.298823","221020.863117","221788.075077","222555.338717","226458.881616","227226.22518","227992.960595","228760.161436","229510.373418","230277.5361","231045.18975","231812.373765","234117.440707","Mapping"
"Mixed","Male","cave","14","F_lash.wav","None","734.887723465","428","225691.899816","232579.229968","233346.471373","234114.05922","234881.298823","235648.193185","221788.075077","222555.338717","226458.881616","227226.22518","227992.960595","228760.161436","229510.373418","230277.5361","231045.18975","231812.373765","234884.739802","Mapping"
"Mixed","Male","cave","14","F_jolt.wav","None","735.554766321","428","225691.899816","232579.229968","233346.471373","234114.05922","234881.298823","235648.193185","236415.444806","222555.338717","226458.881616","227226.22518","227992.960595","228760.161436","229510.373418","230277.5361","231045.18975","231812.373765","235650.754089","Mapping"
"Mixed","Male","cave","14","F_depth.wav","None","734.967047481","428","225691.899816","232579.229968","233346.471373","234114.05922","234881.298823","235648.193185","236415.444806","237182.568127","226458.881616","227226.22518","227992.960595","228760.161436","229510.373418","230277.5361","231045.18975","231812.373765","236418.021335","Mapping"
"Mixed","Female","cave","20","F_priest.wav","None","734.070445735","428","240319.359086","232579.229968","233346.471373","234114.05922","234881.298823","235648.193185","236415.444806","237182.568127","226458.881616","227226.22518","227992.960595","228760.161436","229510.373418","230277.5361","231045.18975","231812.373765","237185.276862","Mapping"
"Mixed","Female","cave","20","F_knife.wav","None","727.499472674","428","240319.359086","232579.229968","233346.471373","234114.05922","234881.298823","235648.193185","236415.444806","237182.568127","241086.578256","227226.22518","227992.960595","228760.161436","229510.373418","230277.5361","231045.18975","231812.373765","240322.703314","Mapping"
"Mixed","Female","cave","20","M_jolt.wav","None","726.757913322","428","240319.359086","232579.229968","233346.471373","234114.05922","234881.298823","235648.193185","236415.444806","237182.568127","241086.578256","241852.935379","227992.960595","228760.161436","229510.373418","230277.5361","231045.18975","231812.373765","241090.220851","Mapping"
"Mixed","Female","cave","20","F_park.wav","None","727.439078255","428","240319.359086","232579.229968","233346.471373","234114.05922","234881.298823","235648.193185","236415.444806","237182.568127","241086.578256","241852.935379","242620.83271","228760.161436","229510.373418","230277.5361","231045.18975","231812.373765","241856.007081","Mapping"
"Mixed","Female","cave","20","F_cave.wav","None","725.237536364","428","240319.359086","232579.229968","233346.471373","234114.05922","234881.298823","235648.193185","236415.444806","237182.568127","241086.578256","241852.935379","242620.83271","243387.954829","229510.373418","230277.5361","231045.18975","231812.373765","242624.614422","Mapping"
"Mixed","Female","cave","20","M_knife.wav","space","469.784461025","428","240319.359086","232579.229968","233346.471373","234114.05922","234881.298823","235648.193185","236415.444806","237182.568127","241086.578256","241852.935379","242620.83271","243387.954829","244137.676143","230277.5361","231045.18975","231812.373765","243391.477536","Mapping"
"Mixed","Female","cave","20","M_bluff.wav","None","742.088781602","428","240319.359086","232579.229968","233346.471373","234114.05922","234881.298823","235648.193185","236415.444806","237182.568127","241086.578256","241852.935379","242620.83271","243387.954829","244137.676143","244904.904327","231045.18975","231812.373765","244140.556446","Mapping"
"Mixed","Female","cave","20","M_lash.wav","None","741.352029763","428","240319.359086","232579.229968","233346.471373","234114.05922","234881.298823","235648.193185","236415.444806","237182.568127","241086.578256","241852.935379","242620.83271","243387.954829","244137.676143","244904.904327","245672.106672","231812.373765","244907.979936","Mapping"
"Mixed","Female","cave","20","F_cave.wav","None","740.628799063","428","240319.359086","232579.229968","233346.471373","234114.05922","234881.298823","235648.193185","236415.444806","237182.568127","241086.578256","241852.935379","242620.83271","243387.954829","244137.676143","244904.904327","245672.106672","246439.341466","245675.332214","Mapping"
"Mixed","Female","cave","20","M_jolt.wav","space","347.214735517","428","240319.359086","247206.944036","233346.471373","234114.05922","234881.298823","235648.193185","236415.444806","237182.568127","241086.578256","241852.935379","242620.83271","243387.954829","244137.676143","244904.904327","245672.106672","246439.341466","246442.039985","Mapping"
"Mixed","Female","cave","20","M_romp.wav","None","738.539031921","428","240319.359086","247206.944036","247974.065254","234114.05922","234881.298823","235648.193185","236415.444806","237182.568127","241086.578256","241852.935379","242620.83271","243387.954829","244137.676143","244904.904327","245672.106672","246439.341466","247210.722443","Mapping"
"Mixed","Female","cave","20","F_cave.wav","None","738.792928865","428","240319.359086","247206.944036","247974.065254","248741.247166","234881.298823","235648.193185","236415.444806","237182.568127","241086.578256","241852.935379","242620.83271","243387.954829","244137.676143","244904.904327","245672.106672","246439.341466","247977.155886","Mapping"
"Mixed","Female","cave","20","M_priest.wav","space","307.152201753","428","240319.359086","247206.944036","247974.065254","248741.247166","249508.254205","235648.193185","236415.444806","237182.568127","241086.578256","241852.935379","242620.83271","243387.954829","244137.676143","244904.904327","245672.106672","246439.341466","248744.096521","Mapping"
"Mixed","Female","cave","20","F_bluff.wav","None","737.133434412","428","240319.359086","247206.944036","247974.065254","248741.247166","249508.254205","250275.461356","236415.444806","237182.568127","241086.578256","241852.935379","242620.83271","243387.954829","244137.676143","244904.904327","245672.106672","246439.341466","249510.934695","Mapping"
"Mixed","Female","cave","20","F_cave.wav","None","736.640063074","428","240319.359086","247206.944036","247974.065254","248741.247166","249508.254205","250275.461356","251042.704564","237182.568127","241086.578256","241852.935379","242620.83271","243387.954829","244137.676143","244904.904327","245672.106672","246439.341466","250278.14996","Mapping"
"Mixed","Female","cave","20","M_lash.wav","space","529.665979793","428","240319.359086","247206.944036","247974.065254","248741.247166","249508.254205","250275.461356","251042.704564","251809.91412","241086.578256","241852.935379","242620.83271","243387.954829","244137.676143","244904.904327","245672.106672","246439.341466","251045.615816","Mapping"
"Mixed","Male","done","37","F_gnash.wav","None","734.977864393","428","254946.514581","247206.944036","247974.065254","248741.247166","249508.254205","250275.461356","251042.704564","251809.91412","241086.578256","241852.935379","242620.83271","243387.954829","244137.676143","244904.904327","245672.106672","246439.341466","251812.550441","Mapping"
"Mixed","Male","done","37","F_dime.wav","None","728.989502188","428","254946.514581","247206.944036","247974.065254","248741.247166","249508.254205","250275.461356","251042.704564","251809.91412","255713.673958","241852.935379","242620.83271","243387.954829","244137.676143","244904.904327","245672.106672","246439.341466","254949.946546","Mapping"
"Mixed","Male","done","37","F_romp.wav","None","728.277989809","428","254946.514581","247206.944036","247974.065254","248741.247166","249508.254205","250275.461356","251042.704564","251809.91412","255713.673958","256480.265147","242620.83271","243387.954829","244137.676143","244904.904327","245672.106672","246439.341466","255717.278994","Mapping"
"Mixed","Male","done","37","M_done.wav","None","728.508750581","428","254946.514581","247206.944036","247974.065254","248741.247166","249508.254205","250275.461356","251042.704564","251809.91412","255713.673958","256480.265147","257247.319359","243387.954829","244137.676143","244904.904327","245672.106672","246439.341466","256483.214858","Mapping"
"Mixed","Male","done","37","M_park.wav","space","520.206590983","428","254946.514581","247206.944036","247974.065254","248741.247166","249508.254205","250275.461356","251042.704564","251809.91412","255713.673958","256480.265147","257247.319359","258014.739544","244137.676143","244904.904327","245672.106672","246439.341466","257250.049427","Mapping"
"Mixed","Male","done","37","M_cling.wav","None","726.079452616","428","254946.514581","247206.944036","247974.065254","248741.247166","249508.254205","250275.461356","251042.704564","251809.91412","255713.673958","256480.265147","257247.319359","258014.739544","258764.815713","244904.904327","245672.106672","246439.341466","258017.949462","Mapping"
"Mixed","Male","done","37","M_done.wav","None","743.156951579","428","254946.514581","247206.944036","247974.065254","248741.247166","249508.254205","250275.461356","251042.704564","251809.91412","255713.673958","256480.265147","257247.319359","258014.739544","258764.815713","259532.129231","245672.106672","246439.341466","258767.64073","Mapping"
"Mixed","Male","done","37","F_jolt.wav","space","551.461454837","428","254946.514581","247206.944036","247974.065254","248741.247166","249508.254205","250275.461356","251042.704564","251809.91412","255713.673958","256480.265147","257247.319359","258014.739544","258764.815713","259532.129231","260299.351106","246439.341466","259534.816632","Mapping"
"Mixed","Male","done","37","M_reek.wav","None","741.215916963","428","254946.514581","247206.944036","247974.065254","248741.247166","249508.254205","250275.461356","251042.704564","251809.91412","255713.673958","256480.265147","257247.319359","258014.739544","258764.815713","259532.129231","260299.351106","261066.587403","260302.084779","Mapping"
"Mixed","Male","done","37","M_park.wav","None","740.380911519","428","254946.514581","261833.84924","247974.065254","248741.247166","249508.254205","250275.461356","251042.704564","251809.91412","255713.673958","256480.265147","257247.319359","258014.739544","258764.815713","259532.129231","260299.351106","261066.587403","261069.474316","Mapping"
"Mixed","Male","done","37","M_done.wav","None","739.872216223","428","254946.514581","261833.84924","262600.99119","248741.247166","249508.254205","250275.461356","251042.704564","251809.91412","255713.673958","256480.265147","257247.319359","258014.739544","258764.815713","259532.129231","260299.351106","261066.587403","261836.737055","Mapping"
"Mixed","Male","done","37","F_bluff.wav","space","408.491936294","428","254946.514581","261833.84924","262600.99119","263368.707638","249508.254205","250275.461356","251042.704564","251809.91412","255713.673958","256480.265147","257247.319359","258014.739544","258764.815713","259532.129231","260299.351106","261066.587403","262603.787962","Mapping"
"Mixed","Male","done","37","F_dime.wav","None","737.3431623","428","254946.514581","261833.84924","262600.99119","263368.707638","264135.945137","250275.461356","251042.704564","251809.91412","255713.673958","256480.265147","257247.319359","258014.739544","258764.815713","259532.129231","260299.351106","261066.587403","263371.848448","Mapping"
"Mixed","Male","done","37","M_done.wav","None","736.594391672","428","254946.514581","261833.84924","262600.99119","263368.707638","264135.945137","264902.770091","251042.704564","251809.91412","255713.673958","256480.265147","257247.319359","258014.739544","258764.815713","259532.129231","260299.351106","261066.587403","264139.22837","Mapping"
"Mixed","Male","done","37","F_priest.wav","space","537.38835295","428","254946.514581","261833.84924","262600.99119","263368.707638","264135.945137","264902.770091","265669.936078","251809.91412","255713.673958","256480.265147","257247.319359","258014.739544","258764.815713","259532.129231","260299.351106","261066.587403","264905.879051","Mapping"
"Mixed","Male","done","37","F_priest.wav","None","735.255498446","428","254946.514581","261833.84924","262600.99119","263368.707638","264135.945137","264902.770091","265669.936078","266437.145633","255713.673958","256480.265147","257247.319359","258014.739544","258764.815713","259532.129231","260299.351106","261066.587403","265672.764099","Mapping"
"Mixed","Male","tile","27","F_priest.wav","None","724.536540429","428","269573.673381","261833.84924","262600.99119","263368.707638","264135.945137","264902.770091","265669.936078","266437.145633","255713.673958","256480.265147","257247.319359","258014.739544","258764.815713","259532.129231","260299.351106","261066.587403","266450.379223","Mapping"
"Mixed","Male","tile","27","F_cling.wav","None","727.904806376","428","269573.673381","261833.84924","262600.99119","263368.707638","264135.945137","264902.770091","265669.936078","266437.145633","270340.270279","256480.265147","257247.319359","258014.739544","258764.815713","259532.129231","260299.351106","261066.587403","269577.557854","Mapping"
"Mixed","Male","tile","27","M_tile.wav","None","728.594985401","428","269573.673381","261833.84924","262600.99119","263368.707638","264135.945137","264902.770091","265669.936078","266437.145633","270340.270279","271107.519196","257247.319359","258014.739544","258764.815713","259532.129231","260299.351106","261066.587403","270343.215483","Mapping"
"Mixed","Male","tile","27","M_greet.wav","space","562.735080024","428","269573.673381","261833.84924","262600.99119","263368.707638","264135.945137","264902.770091","265669.936078","266437.145633","270340.270279","271107.519196","271875.300845","258014.739544","258764.815713","259532.129231","260299.351106","261066.587403","271110.527799","Mapping"
"Mixed","Male","tile","27","M_greet.wav","None","725.201479994","428","269573.673381","261833.84924","262600.99119","263368.707638","264135.945137","264902.770091","265669.936078","266437.145633","270340.270279","271107.519196","271875.300845","272642.429574","258764.815713","259532.129231","260299.351106","261066.587403","271878.967778","Mapping"
"Mixed","Male","tile","27","M_tile.wav","None","725.924710692","428","269573.673381","261833.84924","262600.99119","263368.707638","264135.945137","264902.770091","265669.936078","266437.145633","270340.270279","271107.519196","271875.300845","272642.429574","273409.301101","259532.129231","260299.351106","261066.587403","272645.974817","Mapping"
"Mixed","Male","tile","27","F_bluff.wav","space","466.711556848","428","269573.673381","261833.84924","262600.99119","263368.707638","264135.945137","264902.770091","265669.936078","266437.145633","270340.270279","271107.519196","271875.300845","272642.429574","273409.301101","274159.384181","260299.351106","261066.587403","273412.551583","Mapping"
"Mixed","Male","tile","27","F_jaw.wav","None","742.264856877","428","269573.673381","261833.84924","262600.99119","263368.707638","264135.945137","264902.770091","265669.936078","266437.145633","270340.270279","271107.519196","271875.300845","272642.429574","273409.301101","274159.384181","274926.664948","261066.587403","274162.079695","Mapping"
"Mixed","Male","tile","27","M_dime.wav","None","741.592105096","428","269573.673381","261833.84924","262600.99119","263368.707638","264135.945137","264902.770091","265669.936078","266437.145633","270340.270279","271107.519196","271875.300845","272642.429574","273409.301101","274159.384181","274926.664948","275693.88532","274929.473439","Mapping"
"Mixed","Male","tile","27","F_bluff.wav","None","741.299748026","428","269573.673381","276461.139646","262600.99119","263368.707638","264135.945137","264902.770091","265669.936078","266437.145633","270340.270279","271107.519196","271875.300845","272642.429574","273409.301101","274159.384181","274926.664948","275693.88532","275696.794468","Mapping"
"Mixed","Male","tile","27","F_reek.wav","None","740.164272824","428","269573.673381","276461.139646","277228.415304","263368.707638","264135.945137","264902.770091","265669.936078","266437.145633","270340.270279","271107.519196","271875.300845","272642.429574","273409.301101","274159.384181","274926.664948","275693.88532","276464.699912","Mapping"
"Mixed","Male","tile","27","M_romp.wav","None","740.582526723","428","269573.673381","276461.139646","277228.415304","277995.507977","264135.945137","264902.770091","265669.936078","266437.145633","270340.270279","271107.519196","271875.300845","272642.429574","273409.301101","274159.384181","274926.664948","275693.88532","277231.339476","Mapping"
"Mixed","Male","tile","27","M_tile.wav","None","740.20693953","428","269573.673381","276461.139646","277228.415304","277995.507977","278762.759298","264902.770091","265669.936078","266437.145633","270340.270279","271107.519196","271875.300845","272642.429574","273409.301101","274159.384181","274926.664948","275693.88532","277998.45829","Mapping"
"Mixed","Male","tile","27","F_reek.wav","space","385.466638543","428","269573.673381","276461.139646","277228.415304","277995.507977","278762.759298","279530.439088","265669.936078","266437.145633","270340.270279","271107.519196","271875.300845","272642.429574","273409.301101","274159.384181","274926.664948","275693.88532","278765.757385","Mapping"
"Mixed","Male","tile","27","M_tile.wav","None","737.22027017","428","269573.673381","276461.139646","277228.415304","277995.507977","278762.759298","279530.439088","280297.495104","266437.145633","270340.270279","271107.519196","271875.300845","272642.429574","273409.301101","274159.384181","274926.664948","275693.88532","279533.965702","Mapping"
"Mixed","Male","tile","27","F_romp.wav","space","352.34976362","428","269573.673381","276461.139646","277228.415304","277995.507977","278762.759298","279530.439088","280297.495104","281064.39157","270340.270279","271107.519196","271875.300845","272642.429574","273409.301101","274159.384181","274926.664948","275693.88532","280300.95952","Mapping"
"Mixed","Male","tile","30","F_lash.wav","None","736.660194549","428","284201.100801","276461.139646","277228.415304","277995.507977","278762.759298","279530.439088","280297.495104","281064.39157","270340.270279","271107.519196","271875.300845","272642.429574","273409.301101","274159.384181","274926.664948","275693.88532","281067.291103","Mapping"
"Mixed","Male","tile","30","M_lash.wav","None","727.308373911","428","284201.100801","276461.139646","277228.415304","277995.507977","278762.759298","279530.439088","280297.495104","281064.39157","284967.598844","271107.519196","271875.300845","272642.429574","273409.301101","274159.384181","274926.664948","275693.88532","284204.98287","Mapping"
"Mixed","Male","tile","30","M_cling.wav","None","728.523173129","428","284201.100801","276461.139646","277228.415304","277995.507977","278762.759298","279530.439088","280297.495104","281064.39157","284967.598844","285734.689714","271875.300845","272642.429574","273409.301101","274159.384181","274926.664948","275693.88532","284970.532631","Mapping"
"Mixed","Male","tile","30","F_park.wav","None","728.076074134","428","284201.100801","276461.139646","277228.415304","277995.507977","278762.759298","279530.439088","280297.495104","281064.39157","284967.598844","285734.689714","286501.952753","272642.429574","273409.301101","274159.384181","274926.664948","275693.88532","285737.701322","Mapping"
"Mixed","Male","tile","30","M_tile.wav","None","727.768092636","428","284201.100801","276461.139646","277228.415304","277995.507977","278762.759298","279530.439088","280297.495104","281064.39157","284967.598844","285734.689714","286501.952753","287269.231416","273409.301101","274159.384181","274926.664948","275693.88532","286504.787385","Mapping"
"Mixed","Male","tile","30","M_park.wav","space","393.926664949","428","284201.100801","276461.139646","277228.415304","277995.507977","278762.759298","279530.439088","280297.495104","281064.39157","284967.598844","285734.689714","286501.952753","287269.231416","288019.482759","274159.384181","274926.664948","275693.88532","287272.348189","Mapping"
"Mixed","Male","tile","30","F_greet.wav","None","742.469777251","428","284201.100801","276461.139646","277228.415304","277995.507977","278762.759298","279530.439088","280297.495104","281064.39157","284967.598844","285734.689714","286501.952753","287269.231416","288019.482759","288786.694118","274926.664948","275693.88532","288022.371776","Mapping"
"Mixed","Male","tile","30","M_tile.wav","None","742.243223054","428","284201.100801","276461.139646","277228.415304","277995.507977","278762.759298","279530.439088","280297.495104","281064.39157","284967.598844","285734.689714","286501.952753","287269.231416","288019.482759","288786.694118","289553.956255","275693.88532","288789.557594","Mapping"
"Mixed","Male","tile","30","M_lash.wav","space","356.471006771","428","284201.100801","276461.139646","277228.415304","277995.507977","278762.759298","279530.439088","280297.495104","281064.39157","284967.598844","285734.689714","286501.952753","287269.231416","288019.482759","288786.694118","289553.956255","290321.623126","289556.822436","Mapping"
"Mixed","Male","tile","30","M_tile.wav","None","739.548910768","428","284201.100801","291088.678841","277228.415304","277995.507977","278762.759298","279530.439088","280297.495104","281064.39157","284967.598844","285734.689714","286501.952753","287269.231416","288019.482759","288786.694118","289553.956255","290321.623126","290324.967053","Mapping"
"Mixed","Male","tile","30","F_romp.wav","space","594.637456199","428","284201.100801","291088.678841","291855.632696","277995.507977","278762.759298","279530.439088","280297.495104","281064.39157","284967.598844","285734.689714","286501.952753","287269.231416","288019.482759","288786.694118","289553.956255","290321.623126","291091.683238","Mapping"
"Mixed","Male","tile","30","M_tile.wav","None","738.554355879","428","284201.100801","291088.678841","291855.632696","292622.780355","278762.759298","279530.439088","280297.495104","281064.39157","284967.598844","285734.689714","286501.952753","287269.231416","288019.482759","288786.694118","289553.956255","290321.623126","291858.696887","Mapping"
"Mixed","Male","tile","30","F_greet.wav","space","453.755901977","428","284201.100801","291088.678841","291855.632696","292622.780355","293389.995319","279530.439088","280297.495104","281064.39157","284967.598844","285734.689714","286501.952753","287269.231416","288019.482759","288786.694118","289553.956255","290321.623126","292625.524245","Mapping"
"Mixed","Male","tile","30","F_park.wav","None","737.3332468","428","284201.100801","291088.678841","291855.632696","292622.780355","293389.995319","294157.224405","280297.495104","281064.39157","284967.598844","285734.689714","286501.952753","287269.231416","288019.482759","288786.694118","289553.956255","290321.623126","293392.723284","Mapping"
"Mixed","Male","tile","30","F_reek.wav","None","736.834166535","428","284201.100801","291088.678841","291855.632696","292622.780355","293389.995319","294157.224405","294924.468514","281064.39157","284967.598844","285734.689714","286501.952753","287269.231416","288019.482759","288786.694118","289553.956255","290321.623126","294160.619412","Mapping"
"Mixed","Male","tile","30","F_romp.wav","None","737.106692603","428","284201.100801","291088.678841","291855.632696","292622.780355","293389.995319","294157.224405","294924.468514","295691.69099","284967.598844","285734.689714","286501.952753","287269.231416","288019.482759","288786.694118","289553.956255","290321.623126","294927.236141","Mapping"
"Mixed","Male","tile","26","M_jaw.wav","None","736.725696954","428","298828.458212","291088.678841","291855.632696","292622.780355","293389.995319","294157.224405","294924.468514","295691.69099","284967.598844","285734.689714","286501.952753","287269.231416","288019.482759","288786.694118","289553.956255","290321.623126","295694.45471","Mapping"
"Mixed","Male","tile","26","M_tile.wav","None","729.15866666","428","298828.458212","291088.678841","291855.632696","292622.780355","293389.995319","294157.224405","294924.468514","295691.69099","299594.801212","285734.689714","286501.952753","287269.231416","288019.482759","288786.694118","289553.956255","290321.623126","298831.822872","Mapping"
"Mixed","Male","tile","26","F_dime.wav","space","525.523403288","428","298828.458212","291088.678841","291855.632696","292622.780355","293389.995319","294157.224405","294924.468514","295691.69099","299594.801212","300362.665491","286501.952753","287269.231416","288019.482759","288786.694118","289553.956255","290321.623126","299597.760839","Mapping"
"Mixed","Male","tile","26","F_jolt.wav","None","727.548148776","428","298828.458212","291088.678841","291855.632696","292622.780355","293389.995319","294157.224405","294924.468514","295691.69099","299594.801212","300362.665491","301129.950164","287269.231416","288019.482759","288786.694118","289553.956255","290321.623126","300366.542452","Mapping"
"Mixed","Male","tile","26","M_cad.wav","None","727.666834328","428","298828.458212","291088.678841","291855.632696","292622.780355","293389.995319","294157.224405","294924.468514","295691.69099","299594.801212","300362.665491","301129.950164","301896.402836","288019.482759","288786.694118","289553.956255","290321.623126","301133.486092","Mapping"
"Mixed","Male","tile","26","M_tile.wav","None","729.221464839","428","298828.458212","291088.678841","291855.632696","292622.780355","293389.995319","294157.224405","294924.468514","295691.69099","299594.801212","300362.665491","301129.950164","301896.402836","302663.833838","288786.694118","289553.956255","290321.623126","301899.442088","Mapping"
"Mixed","Male","tile","26","F_cling.wav","space","434.713631292","428","298828.458212","291088.678841","291855.632696","292622.780355","293389.995319","294157.224405","294924.468514","295691.69099","299594.801212","300362.665491","301129.950164","301896.402836","302663.833838","303431.699619","289553.956255","290321.623126","302666.599662","Mapping"
"Mixed","Male","tile","26","F_romp.wav","None","726.797575329","428","298828.458212","291088.678841","291855.632696","292622.780355","293389.995319","294157.224405","294924.468514","295691.69099","299594.801212","300362.665491","301129.950164","301896.402836","302663.833838","303431.699619","304198.738508","290321.623126","303434.798965","Mapping"
"Mixed","Male","tile","26","M_tile.wav","None","725.995321085","428","298828.458212","291088.678841","291855.632696","292622.780355","293389.995319","294157.224405","294924.468514","295691.69099","299594.801212","300362.665491","301129.950164","301896.402836","302663.833838","303431.699619","304198.738508","304965.378373","304202.327919","Mapping"
"Mixed","Male","tile","26","F_depth.wav","space","515.340182841","428","298828.458212","305733.388379","291855.632696","292622.780355","293389.995319","294157.224405","294924.468514","295691.69099","299594.801212","300362.665491","301129.950164","301896.402836","302663.833838","303431.699619","304198.738508","304965.378373","304968.979202","Mapping"
"Mixed","Male","tile","26","F_depth.wav","None","724.77841858","428","298828.458212","305733.388379","306500.393916","292622.780355","293389.995319","294157.224405","294924.468514","295691.69099","299594.801212","300362.665491","301129.950164","301896.402836","302663.833838","303431.699619","304198.738508","304965.378373","305736.985002","Mapping"
"Mixed","Male","tile","26","M_tile.wav","None","724.284145834","428","298828.458212","305733.388379","306500.393916","307250.380545","293389.995319","294157.224405","294924.468514","295691.69099","299594.801212","300362.665491","301129.950164","301896.402836","302663.833838","303431.699619","304198.738508","304965.378373","306504.332173","Mapping"
"Mixed","Male","tile","26","M_romp.wav","space","509.318168024","428","298828.458212","305733.388379","306500.393916","307250.380545","308017.274006","294157.224405","294924.468514","295691.69099","299594.801212","300362.665491","301129.950164","301896.402836","302663.833838","303431.699619","304198.738508","304965.378373","307253.977769","Mapping"
"Mixed","Male","tile","26","F_greet.wav","None","741.34301567","428","298828.458212","305733.388379","306500.393916","307250.380545","308017.274006","308784.973628","294924.468514","295691.69099","299594.801212","300362.665491","301129.950164","301896.402836","302663.833838","303431.699619","304198.738508","304965.378373","308020.411211","Mapping"
"Mixed","Male","tile","26","M_priest.wav","None","740.95150358","428","298828.458212","305733.388379","306500.393916","307250.380545","308017.274006","308784.973628","309552.023934","295691.69099","299594.801212","300362.665491","301129.950164","301896.402836","302663.833838","303431.699619","304198.738508","304965.378373","308787.953687","Mapping"
"Mixed","Male","tile","26","F_dime.wav","None","740.426282449","428","298828.458212","305733.388379","306500.393916","307250.380545","308017.274006","308784.973628","309552.023934","310319.034579","299594.801212","300362.665491","301129.950164","301896.402836","302663.833838","303431.699619","304198.738508","304965.378373","309555.599825","Mapping"
"Mixed","Female","tile","31","M_gnash.wav","None","740.628498595","428","313455.576749","305733.388379","306500.393916","307250.380545","308017.274006","308784.973628","309552.023934","310319.034579","299594.801212","300362.665491","301129.950164","301896.402836","302663.833838","303431.699619","304198.738508","304965.378373","310322.360779","Mapping"
"Mixed","Female","tile","31","F_tile.wav","None","728.260262094","428","313455.576749","305733.388379","306500.393916","307250.380545","308017.274006","308784.973628","309552.023934","310319.034579","314222.217515","300362.665491","301129.950164","301896.402836","302663.833838","303431.699619","304198.738508","304965.378373","313459.444395","Mapping"
"Mixed","Female","tile","31","F_dime.wav","space","471.221908332","428","313455.576749","305733.388379","306500.393916","307250.380545","308017.274006","308784.973628","309552.023934","310319.034579","314222.217515","314989.897005","301129.950164","301896.402836","302663.833838","303431.699619","304198.738508","304965.378373","314225.096316","Mapping"
"Mixed","Female","tile","31","M_cling.wav","None","727.472129929","428","313455.576749","305733.388379","306500.393916","307250.380545","308017.274006","308784.973628","309552.023934","310319.034579","314222.217515","314989.897005","315757.047668","301896.402836","302663.833838","303431.699619","304198.738508","304965.378373","314993.414905","Mapping"
"Mixed","Female","tile","31","F_cad.wav","None","727.302664985","428","313455.576749","305733.388379","306500.393916","307250.380545","308017.274006","308784.973628","309552.023934","310319.034579","314222.217515","314989.897005","315757.047668","316523.734707","302663.833838","303431.699619","304198.738508","304965.378373","315760.613944","Mapping"
"Mixed","Female","tile","31","F_tile.wav","None","728.015078774","428","313455.576749","305733.388379","306500.393916","307250.380545","308017.274006","308784.973628","309552.023934","310319.034579","314222.217515","314989.897005","315757.047668","316523.734707","317291.003455","303431.699619","304198.738508","304965.378373","316526.799799","Mapping"
"Mixed","Female","tile","31","M_cling.wav","space","312.670929732","428","313455.576749","305733.388379","306500.393916","307250.380545","308017.274006","308784.973628","309552.023934","310319.034579","314222.217515","314989.897005","315757.047668","316523.734707","317291.003455","318058.56456","304198.738508","304965.378373","317293.656903","Mapping"
"Mixed","Female","tile","31","F_dime.wav","None","725.765762194","428","313455.576749","305733.388379","306500.393916","307250.380545","308017.274006","308784.973628","309552.023934","310319.034579","314222.217515","314989.897005","315757.047668","316523.734707","317291.003455","318058.56456","318826.191768","304965.378373","318062.622704","Mapping"
"Mixed","Female","tile","31","M_reek.wav","None","725.362231313","428","313455.576749","305733.388379","306500.393916","307250.380545","308017.274006","308784.973628","309552.023934","310319.034579","314222.217515","314989.897005","315757.047668","316523.734707","317291.003455","318058.56456","318826.191768","319592.638731","318830.07534","Mapping"
"Mixed","Female","tile","31","F_tile.wav","None","727.008505097","428","313455.576749","320360.022559","306500.393916","307250.380545","308017.274006","308784.973628","309552.023934","310319.034579","314222.217515","314989.897005","315757.047668","316523.734707","317291.003455","318058.56456","318826.191768","319592.638731","319595.894021","Mapping"
"Mixed","Female","tile","31","M_cling.wav","space","291.562328544","428","313455.576749","320360.022559","321110.430146","307250.380545","308017.274006","308784.973628","309552.023934","310319.034579","314222.217515","314989.897005","315757.047668","316523.734707","317291.003455","318058.56456","318826.191768","319592.638731","320362.759839","Mapping"
"Mixed","Female","tile","31","F_depth.wav","None","741.780800103","428","313455.576749","320360.022559","321110.430146","321895.183229","308017.274006","308784.973628","309552.023934","310319.034579","314222.217515","314989.897005","315757.047668","316523.734707","317291.003455","318058.56456","318826.191768","319592.638731","321113.863915","Mapping"
"Mixed","Female","tile","31","F_tile.wav","None","724.158249006","428","313455.576749","320360.022559","321110.430146","321895.183229","322644.554797","308784.973628","309552.023934","310319.034579","314222.217515","314989.897005","315757.047668","316523.734707","317291.003455","318058.56456","318826.191768","319592.638731","321899.014219","Mapping"
"Mixed","Female","tile","31","M_jolt.wav","space","493.097909271","428","313455.576749","320360.022559","321110.430146","321895.183229","322644.554797","323411.810925","309552.023934","310319.034579","314222.217515","314989.897005","315757.047668","316523.734707","317291.003455","318058.56456","318826.191768","319592.638731","322647.235588","Mapping"
"Mixed","Female","tile","31","M_jaw.wav","None","741.740236686","428","313455.576749","320360.022559","321110.430146","321895.183229","322644.554797","323411.810925","324179.065852","310319.034579","314222.217515","314989.897005","315757.047668","316523.734707","317291.003455","318058.56456","318826.191768","319592.638731","323414.512148","Mapping"
"Mixed","Female","tile","31","M_jolt.wav","None","741.102639868","428","313455.576749","320360.022559","321110.430146","321895.183229","322644.554797","323411.810925","324179.065852","324946.271801","314222.217515","314989.897005","315757.047668","316523.734707","317291.003455","318058.56456","318826.191768","319592.638731","324181.911601","Mapping"
"Mixed","Female","ball","12","F_jaw.wav","None","740.649531477","428","328083.017089","320360.022559","321110.430146","321895.183229","322644.554797","323411.810925","324179.065852","324946.271801","314222.217515","314989.897005","315757.047668","316523.734707","317291.003455","318058.56456","318826.191768","319592.638731","324949.157513","Mapping"
"Mixed","Female","ball","12","F_ball.wav","None","728.157501437","428","328083.017089","320360.022559","321110.430146","321895.183229","322644.554797","323411.810925","324179.065852","324946.271801","328849.31562","314989.897005","315757.047668","316523.734707","317291.003455","318058.56456","318826.191768","319592.638731","328086.428923","Mapping"
"Mixed","Female","ball","12","M_greet.wav","space","399.052979428","428","328083.017089","320360.022559","321110.430146","321895.183229","322644.554797","323411.810925","324179.065852","324946.271801","328849.31562","329617.443411","315757.047668","316523.734707","317291.003455","318058.56456","318826.191768","319592.638731","328852.272242","Mapping"
"Mixed","Female","ball","12","M_dime.wav","None","726.36820405","428","328083.017089","320360.022559","321110.430146","321895.183229","322644.554797","323411.810925","324179.065852","324946.271801","328849.31562","329617.443411","330384.547201","316523.734707","317291.003455","318058.56456","318826.191768","319592.638731","329620.722137","Mapping"
"Mixed","Female","ball","12","M_bluff.wav","None","726.571622074","428","328083.017089","320360.022559","321110.430146","321895.183229","322644.554797","323411.810925","324179.065852","324946.271801","328849.31562","329617.443411","330384.547201","331151.07439","317291.003455","318058.56456","318826.191768","319592.638731","330387.886321","Mapping"
"Mixed","Female","ball","12","F_ball.wav","None","727.854627925","428","328083.017089","320360.022559","321110.430146","321895.183229","322644.554797","323411.810925","324179.065852","324946.271801","328849.31562","329617.443411","330384.547201","331151.07439","331918.425466","318058.56456","318826.191768","319592.638731","331153.894599","Mapping"
"Mixed","Female","ball","12","M_dime.wav","space","311.806177779","428","328083.017089","320360.022559","321110.430146","321895.183229","322644.554797","323411.810925","324179.065852","324946.271801","328849.31562","329617.443411","330384.547201","331151.07439","331918.425466","332686.153633","318826.191768","319592.638731","331921.579197","Mapping"
"Mixed","Female","ball","12","M_park.wav","None","724.948784931","428","328083.017089","320360.022559","321110.430146","321895.183229","322644.554797","323411.810925","324179.065852","324946.271801","328849.31562","329617.443411","330384.547201","331151.07439","331918.425466","332686.153633","333453.37701","319592.638731","332689.914913","Mapping"
"Mixed","Female","ball","12","M_dime.wav","None","724.459319701","428","328083.017089","320360.022559","321110.430146","321895.183229","322644.554797","323411.810925","324179.065852","324946.271801","328849.31562","329617.443411","330384.547201","331151.07439","331918.425466","332686.153633","333453.37701","334220.204368","333457.092018","Mapping"
"Mixed","Female","ball","12","F_ball.wav","None","725.614926376","428","328083.017089","334987.256477","321110.430146","321895.183229","322644.554797","323411.810925","324179.065852","324946.271801","328849.31562","329617.443411","330384.547201","331151.07439","331918.425466","332686.153633","333453.37701","334220.204368","334223.619507","Mapping"
"Mixed","Female","ball","12","F_cling.wav","space","348.927112647","428","328083.017089","334987.256477","335737.442017","321895.183229","322644.554797","323411.810925","324179.065852","324946.271801","328849.31562","329617.443411","330384.547201","331151.07439","331918.425466","332686.153633","333453.37701","334220.204368","334990.390076","Mapping"
"Mixed","Female","ball","12","F_ball.wav","None","741.621851603","428","328083.017089","334987.256477","335737.442017","336504.617319","322644.554797","323411.810925","324179.065852","324946.271801","328849.31562","329617.443411","330384.547201","331151.07439","331918.425466","332686.153633","333453.37701","334220.204368","335740.374602","Mapping"
"Mixed","Female","ball","12","M_knife.wav","space","452.514661421","428","328083.017089","334987.256477","335737.442017","336504.617319","337272.25294","323411.810925","324179.065852","324946.271801","328849.31562","329617.443411","330384.547201","331151.07439","331918.425466","332686.153633","333453.37701","334220.204368","336507.848871","Mapping"
"Mixed","Female","ball","12","F_greet.wav","None","739.157999618","428","328083.017089","334987.256477","335737.442017","336504.617319","337272.25294","338039.101932","324179.065852","324946.271801","328849.31562","329617.443411","330384.547201","331151.07439","331918.425466","332686.153633","333453.37701","334220.204368","337275.603779","Mapping"
"Mixed","Female","ball","12","F_jolt.wav","None","740.052498077","428","328083.017089","334987.256477","335737.442017","336504.617319","337272.25294","338039.101932","338806.312689","324946.271801","328849.31562","329617.443411","330384.547201","331151.07439","331918.425466","332686.153633","333453.37701","334220.204368","338042.070874","Mapping"
"Mixed","Female","ball","12","M_dime.wav","None","739.804610528","428","328083.017089","334987.256477","335737.442017","336504.617319","337272.25294","338039.101932","338806.312689","339573.481681","328849.31562","329617.443411","330384.547201","331151.07439","331918.425466","332686.153633","333453.37701","334220.204368","338809.101349","Mapping"
"Mixed","Male","ball","4","F_depth.wav","None","740.440704998","428","342710.132621","334987.256477","335737.442017","336504.617319","337272.25294","338039.101932","338806.312689","339573.481681","328849.31562","329617.443411","330384.547201","331151.07439","331918.425466","332686.153633","333453.37701","334220.204368","339576.192519","Mapping"
"Mixed","Male","ball","4","F_dime.wav","None","727.44538812","428","342710.132621","334987.256477","335737.442017","336504.617319","337272.25294","338039.101932","338806.312689","339573.481681","343476.686552","329617.443411","330384.547201","331151.07439","331918.425466","332686.153633","333453.37701","334220.204368","342713.84162","Mapping"
"Mixed","Male","ball","4","M_ball.wav","None","728.578459564","428","342710.132621","334987.256477","335737.442017","336504.617319","337272.25294","338039.101932","338806.312689","339573.481681","343476.686552","344243.771412","330384.547201","331151.07439","331918.425466","332686.153633","333453.37701","334220.204368","343479.895569","Mapping"
"Mixed","Male","ball","4","M_dime.wav","space","349.566812756","428","342710.132621","334987.256477","335737.442017","336504.617319","337272.25294","338039.101932","338806.312689","339573.481681","343476.686552","344243.771412","345011.149531","331151.07439","331918.425466","332686.153633","333453.37701","334220.204368","344246.762889","Mapping"
"Mixed","Male","ball","4","F_greet.wav","None","726.985068455","428","342710.132621","334987.256477","335737.442017","336504.617319","337272.25294","338039.101932","338806.312689","339573.481681","343476.686552","344243.771412","345011.149531","345778.20795","331918.425466","332686.153633","333453.37701","334220.204368","345014.171055","Mapping"
"Mixed","Male","ball","4","F_knife.wav","None","727.083322065","428","342710.132621","334987.256477","335737.442017","336504.617319","337272.25294","338039.101932","338806.312689","339573.481681","343476.686552","344243.771412","345011.149531","345778.20795","346545.556022","332686.153633","333453.37701","334220.204368","345781.27184","Mapping"
"Mixed","Male","ball","4","M_ball.wav","None","726.41748109","428","342710.132621","334987.256477","335737.442017","336504.617319","337272.25294","338039.101932","338806.312689","339573.481681","343476.686552","344243.771412","345011.149531","345778.20795","346545.556022","347312.796526","333453.37701","334220.204368","346549.265321","Mapping"
"Mixed","Male","ball","4","F_knife.wav","space","410.429665739","428","342710.132621","334987.256477","335737.442017","336504.617319","337272.25294","338039.101932","338806.312689","339573.481681","343476.686552","344243.771412","345011.149531","345778.20795","346545.556022","347312.796526","348079.933368","334220.204368","347315.93974","Mapping"
"Mixed","Male","ball","4","M_ball.wav","None","725.750738704","428","342710.132621","334987.256477","335737.442017","336504.617319","337272.25294","338039.101932","338806.312689","339573.481681","343476.686552","344243.771412","345011.149531","345778.20795","346545.556022","347312.796526","348079.933368","348847.159449","348083.048037","Mapping"
"Mixed","Male","ball","4","M_jaw.wav","space","298.183179582","428","342710.132621","349597.814022","335737.442017","336504.617319","337272.25294","338039.101932","338806.312689","339573.481681","343476.686552","344243.771412","345011.149531","345778.20795","346545.556022","347312.796526","348079.933368","348847.159449","348850.143114","Mapping"
"Mixed","Male","ball","4","F_reek.wav","None","741.175654017","428","342710.132621","349597.814022","350364.765174","336504.617319","337272.25294","338039.101932","338806.312689","339573.481681","343476.686552","344243.771412","345011.149531","345778.20795","346545.556022","347312.796526","348079.933368","348847.159449","349600.883621","Mapping"
"Mixed","Male","ball","4","M_ball.wav","None","741.627260058","428","342710.132621","349597.814022","350364.765174","351131.998466","337272.25294","338039.101932","338806.312689","339573.481681","343476.686552","344243.771412","345011.149531","345778.20795","346545.556022","347312.796526","348079.933368","348847.159449","350367.870829","Mapping"
"Mixed","Male","ball","4","M_jaw.wav","space","423.305696126","428","342710.132621","349597.814022","350364.765174","351131.998466","351899.09805","338039.101932","338806.312689","339573.481681","343476.686552","344243.771412","345011.149531","345778.20795","346545.556022","347312.796526","348079.933368","348847.159449","351135.094507","Mapping"
"Mixed","Male","ball","4","M_greet.wav","None","740.322019447","428","342710.132621","349597.814022","350364.765174","351131.998466","351899.09805","352666.350272","338806.312689","339573.481681","343476.686552","344243.771412","345011.149531","345778.20795","346545.556022","347312.796526","348079.933368","348847.159449","351901.779742","Mapping"
"Mixed","Male","ball","4","F_greet.wav","None","740.04648868","428","342710.132621","349597.814022","350364.765174","351131.998466","351899.09805","352666.350272","353433.560729","339573.481681","343476.686552","344243.771412","345011.149531","345778.20795","346545.556022","347312.796526","348079.933368","348847.159449","352669.123608","Mapping"
"Mixed","Male","ball","4","F_depth.wav","None","740.478263719","428","342710.132621","349597.814022","350364.765174","351131.998466","351899.09805","352666.350272","353433.560729","354200.748951","343476.686552","344243.771412","345011.149531","345778.20795","346545.556022","347312.796526","348079.933368","348847.159449","353436.082271","Mapping"
"Mixed","Male","done","38","M_park.wav","None","740.786245215","428","357337.439253","349597.814022","350364.765174","351131.998466","351899.09805","352666.350272","353433.560729","354200.748951","343476.686552","344243.771412","345011.149531","345778.20795","346545.556022","347312.796526","348079.933368","348847.159449","354203.647583","Mapping"
"Mixed","Male","done","38","M_done.wav","None","727.374176788","428","357337.439253","349597.814022","350364.765174","351131.998466","351899.09805","352666.350272","353433.560729","354200.748951","358104.538235","344243.771412","345011.149531","345778.20795","346545.556022","347312.796526","348079.933368","348847.159449","357341.226073","Mapping"
"Mixed","Male","done","38","F_gnash.wav","space","475.148146612","428","357337.439253","349597.814022","350364.765174","351131.998466","351899.09805","352666.350272","353433.560729","354200.748951","358104.538235","358871.103884","345011.149531","345778.20795","346545.556022","347312.796526","348079.933368","348847.159449","358108.200661","Mapping"
"Mixed","Male","done","38","F_priest.wav","None","727.372674441","428","357337.439253","349597.814022","350364.765174","351131.998466","351899.09805","352666.350272","353433.560729","354200.748951","358104.538235","358871.103884","359638.402078","345778.20795","346545.556022","347312.796526","348079.933368","348847.159449","358874.051492","Mapping"
"Mixed","Male","done","38","M_done.wav","None","727.694477546","428","357337.439253","349597.814022","350364.765174","351131.998466","351899.09805","352666.350272","353433.560729","354200.748951","358104.538235","358871.103884","359638.402078","360405.733323","346545.556022","347312.796526","348079.933368","348847.159449","359641.379733","Mapping"
"Mixed","Male","done","38","F_romp.wav","space","324.801795126","428","357337.439253","349597.814022","350364.765174","351131.998466","351899.09805","352666.350272","353433.560729","354200.748951","358104.538235","358871.103884","359638.402078","360405.733323","361172.756287","347312.796526","348079.933368","348847.159449","360408.550828","Mapping"
"Mixed","Male","done","38","M_gnash.wav","None","726.484485845","428","357337.439253","349597.814022","350364.765174","351131.998466","351899.09805","352666.350272","353433.560729","354200.748951","358104.538235","358871.103884","359638.402078","360405.733323","361172.756287","361940.02834","348079.933368","348847.159449","361175.782619","Mapping"
"Mixed","Male","done","38","M_dime.wav","None","726.925875913","428","357337.439253","349597.814022","350364.765174","351131.998466","351899.09805","352666.350272","353433.560729","354200.748951","358104.538235","358871.103884","359638.402078","360405.733323","361172.756287","361940.02834","362707.129426","348847.159449","361942.642127","Mapping"
"Mixed","Male","done","38","M_greet.wav","None","726.377218143","428","357337.439253","349597.814022","350364.765174","351131.998466","351899.09805","352666.350272","353433.560729","354200.748951","358104.538235","358871.103884","359638.402078","360405.733323","361172.756287","361940.02834","362707.129426","363474.52347","362710.303889","Mapping"
"Mixed","Male","done","38","M_done.wav","None","726.399452904","428","357337.439253","364241.68465","350364.765174","351131.998466","351899.09805","352666.350272","353433.560729","354200.748951","358104.538235","358871.103884","359638.402078","360405.733323","361172.756287","361940.02834","362707.129426","363474.52347","363477.770346","Mapping"
"Mixed","Male","done","38","F_depth.wav","space","410.682961743","428","357337.439253","364241.68465","364991.878002","351131.998466","351899.09805","352666.350272","353433.560729","354200.748951","358104.538235","358871.103884","359638.402078","360405.733323","361172.756287","361940.02834","362707.129426","363474.52347","364244.671319","Mapping"
"Mixed","Male","done","38","F_romp.wav","None","741.806039563","428","357337.439253","364241.68465","364991.878002","365759.101079","351899.09805","352666.350272","353433.560729","354200.748951","358104.538235","358871.103884","359638.402078","360405.733323","361172.756287","361940.02834","362707.129426","363474.52347","364995.071996","Mapping"
"Mixed","Male","done","38","M_done.wav","None","741.890772033","428","357337.439253","364241.68465","364991.878002","365759.101079","366526.462371","352666.350272","353433.560729","354200.748951","358104.538235","358871.103884","359638.402078","360405.733323","361172.756287","361940.02834","362707.129426","363474.52347","365761.976875","Mapping"
"Mixed","Male","done","38","F_greet.wav","space","493.234022071","428","357337.439253","364241.68465","364991.878002","365759.101079","366526.462371","367293.634668","353433.560729","354200.748951","358104.538235","358871.103884","359638.402078","360405.733323","361172.756287","361940.02834","362707.129426","363474.52347","366529.121228","Mapping"
"Mixed","Male","done","38","F_reek.wav","None","740.896517615","428","357337.439253","364241.68465","364991.878002","365759.101079","366526.462371","367293.634668","368060.779022","354200.748951","358104.538235","358871.103884","359638.402078","360405.733323","361172.756287","361940.02834","362707.129426","363474.52347","367296.137581","Mapping"
"Mixed","Male","done","38","F_romp.wav","None","741.213813677","428","357337.439253","364241.68465","364991.878002","365759.101079","366526.462371","367293.634668","368060.779022","368828.032446","358104.538235","358871.103884","359638.402078","360405.733323","361172.756287","361940.02834","362707.129426","363474.52347","368063.340226","Mapping"
"Mixed","Male","cave","17","F_jolt.wav","None","741.575879729","428","371964.477264","364241.68465","364991.878002","365759.101079","366526.462371","367293.634668","368060.779022","368828.032446","358104.538235","358871.103884","359638.402078","360405.733323","361172.756287","361940.02834","362707.129426","363474.52347","368830.89412","Mapping"
"Mixed","Male","cave","17","F_knife.wav","None","728.035811187","428","371964.477264","364241.68465","364991.878002","365759.101079","366526.462371","367293.634668","368060.779022","368828.032446","372731.254143","358871.103884","359638.402078","360405.733323","361172.756287","361940.02834","362707.129426","363474.52347","371968.177549","Mapping"
"Mixed","Male","cave","17","F_dime.wav","None","729.503305467","428","371964.477264","364241.68465","364991.878002","365759.101079","366526.462371","367293.634668","368060.779022","368828.032446","372731.254143","373498.445369","359638.402078","360405.733323","361172.756287","361940.02834","362707.129426","363474.52347","372734.268756","Mapping"
"Mixed","Male","cave","17","M_cave.wav","None","729.813991195","428","371964.477264","364241.68465","364991.878002","365759.101079","366526.462371","367293.634668","368060.779022","368828.032446","372731.254143","373498.445369","374265.867357","360405.733323","361172.756287","361940.02834","362707.129426","363474.52347","373501.286311","Mapping"
"Mixed","Male","cave","17","F_dime.wav","space","407.563184282","428","371964.477264","364241.68465","364991.878002","365759.101079","366526.462371","367293.634668","368060.779022","368828.032446","372731.254143","373498.445369","374265.867357","375032.906246","361172.756287","361940.02834","362707.129426","363474.52347","374268.822477","Mapping"
"Mixed","Male","cave","17","F_jolt.wav","None","728.475999378","428","371964.477264","364241.68465","364991.878002","365759.101079","366526.462371","367293.634668","368060.779022","368828.032446","372731.254143","373498.445369","374265.867357","375032.906246","375800.091163","361940.02834","362707.129426","363474.52347","375035.824708","Mapping"
"Mixed","Male","cave","17","M_park.wav","None","728.330872485","428","371964.477264","364241.68465","364991.878002","365759.101079","366526.462371","367293.634668","368060.779022","368828.032446","372731.254143","373498.445369","374265.867357","375032.906246","375800.091163","376567.364718","362707.129426","363474.52347","375803.164067","Mapping"
"Mixed","Male","cave","17","M_cave.wav","None","729.089558616","428","371964.477264","364241.68465","364991.878002","365759.101079","366526.462371","367293.634668","368060.779022","368828.032446","372731.254143","373498.445369","374265.867357","375032.906246","375800.091163","376567.364718","377334.464301","363474.52347","376570.294298","Mapping"
"Mixed","Male","cave","17","M_jolt.wav","space","467.182993892","428","371964.477264","364241.68465","364991.878002","365759.101079","366526.462371","367293.634668","368060.779022","368828.032446","372731.254143","373498.445369","374265.867357","375032.906246","375800.091163","376567.364718","377334.464301","378101.776618","377337.188961","Mapping"
"Mixed","Male","cave","17","M_cave.wav","None","727.676148892","428","371964.477264","378869.031544","364991.878002","365759.101079","366526.462371","367293.634668","368060.779022","368828.032446","372731.254143","373498.445369","374265.867357","375032.906246","375800.091163","376567.364718","377334.464301","378101.776618","378105.079982","Mapping"
"Mixed","Male","cave","17","M_reek.wav","space","472.159373965","428","371964.477264","378869.031544","379636.656349","365759.101079","366526.462371","367293.634668","368060.779022","368828.032446","372731.254143","373498.445369","374265.867357","375032.906246","375800.091163","376567.364718","377334.464301","378101.776618","378872.20781","Mapping"
"Mixed","Male","cave","17","M_jaw.wav","None","725.065667666","428","371964.477264","378869.031544","379636.656349","380403.64596","366526.462371","367293.634668","368060.779022","368828.032446","372731.254143","373498.445369","374265.867357","375032.906246","375800.091163","376567.364718","377334.464301","378101.776618","379640.353028","Mapping"
"Mixed","Male","cave","17","M_cave.wav","None","726.198739108","428","371964.477264","378869.031544","379636.656349","380403.64596","381171.149375","367293.634668","368060.779022","368828.032446","372731.254143","373498.445369","374265.867357","375032.906246","375800.091163","376567.364718","377334.464301","378101.776618","380406.55631","Mapping"
"Mixed","Male","cave","17","F_knife.wav","space","482.046631703","428","371964.477264","378869.031544","379636.656349","380403.64596","381171.149375","381920.898633","368060.779022","368828.032446","372731.254143","373498.445369","374265.867357","375032.906246","375800.091163","376567.364718","377334.464301","378101.776618","381174.353584","Mapping"
"Mixed","Male","cave","17","F_gnash.wav","None","742.389852296","428","371964.477264","378869.031544","379636.656349","380403.64596","381171.149375","381920.898633","382688.077841","368828.032446","372731.254143","373498.445369","374265.867357","375032.906246","375800.091163","376567.364718","377334.464301","378101.776618","381923.559593","Mapping"
