"Condition","Talker","Target","Trial","current_stimulus","response_response","response_time_response","subject_nr","time_Audio1","time_Audio10","time_Audio11","time_Audio12","time_Audio13","time_Audio14","time_Audio15","time_Audio16","time_Audio2","time_Audio3","time_Audio4","time_Audio5","time_Audio6","time_Audio7","time_Audio8","time_Audio9","time_response","title"
"Blocked","Female","ball","6","F_done.wav","NA","NA","226","1896026.91846","NA","NA","NA","NA","NA","NA","NA","NA","NA","NA","NA","NA","NA","NA","NA","NA","Mapping"
"Blocked","Female","ball","6","F_ball.wav","None","721.089871833","226","1896026.91846","NA","NA","NA","NA","NA","NA","NA","1896794.62181","NA","NA","NA","NA","NA","NA","NA","1896039.60275","Mapping"
"Blocked","Female","ball","6","F_jaw.wav","space","649.675124674","226","1896026.91846","NA","NA","NA","NA","NA","NA","NA","1896794.62181","1897562.1174","NA","NA","NA","NA","NA","NA","1896803.70737","Mapping"
"Blocked","Female","ball","6","F_ball.wav","None","720.015198749","226","1896026.91846","NA","NA","NA","NA","NA","NA","NA","1896794.62181","1897562.1174","1898311.92355","NA","NA","NA","NA","NA","1897571.78699","Mapping"
"Blocked","Female","ball","6","F_romp.wav","space","484.516174474","226","1896026.91846","NA","NA","NA","NA","NA","NA","NA","1896794.62181","1897562.1174","1898311.92355","1899079.19654","NA","NA","NA","NA","1898320.77384","Mapping"
"Blocked","Female","ball","6","F_greet.wav","None","731.770131271","226","1896026.91846","NA","NA","NA","NA","NA","NA","NA","1896794.62181","1897562.1174","1898311.92355","1899079.19654","1899846.76541","NA","NA","NA","1899088.19337","Mapping"
"Blocked","Female","ball","6","F_romp.wav","None","729.364483617","226","1896026.91846","NA","NA","NA","NA","NA","NA","NA","1896794.62181","1897562.1174","1898311.92355","1899079.19654","1899846.76541","1900614.28048","NA","NA","1899856.3679","Mapping"
"Blocked","Female","ball","6","F_bluff.wav","None","724.155596341","226","1896026.91846","NA","NA","NA","NA","NA","NA","NA","1896794.62181","1897562.1174","1898311.92355","1899079.19654","1899846.76541","1900614.28048","1901381.22513","NA","1900624.12629","Mapping"
"Blocked","Female","ball","6","F_ball.wav","None","722.77299047","226","1896026.91846","NA","NA","NA","NA","NA","NA","NA","1896794.62181","1897562.1174","1898311.92355","1899079.19654","1899846.76541","1900614.28048","1901381.22513","1902131.84408","1901391.20295","Mapping"
"Blocked","Female","ball","6","F_jolt.wav","space","445.418603078","226","1896026.91846","1902898.74514","NA","NA","NA","NA","NA","NA","1896794.62181","1897562.1174","1898311.92355","1899079.19654","1899846.76541","1900614.28048","1901381.22513","1902131.84408","1902135.78383","Mapping"
"Blocked","Female","ball","6","F_greet.wav","None","734.209787566","226","1896026.91846","1902898.74514","1903666.2262","NA","NA","NA","NA","NA","1896794.62181","1897562.1174","1898311.92355","1899079.19654","1899846.76541","1900614.28048","1901381.22513","1902131.84408","1902907.99147","Mapping"
"Blocked","Female","ball","6","F_cad.wav","None","729.381797079","226","1896026.91846","1902898.74514","1903666.2262","1904433.03606","NA","NA","NA","NA","1896794.62181","1897562.1174","1898311.92355","1899079.19654","1899846.76541","1900614.28048","1901381.22513","1902131.84408","1903675.31053","Mapping"
"Blocked","Female","ball","6","F_lash.wav","None","728.15439431","226","1896026.91846","1902898.74514","1903666.2262","1904433.03606","1905200.7561","NA","NA","NA","1896794.62181","1897562.1174","1898311.92355","1899079.19654","1899846.76541","1900614.28048","1901381.22513","1902131.84408","1904442.23292","Mapping"
"Blocked","Female","ball","6","F_ball.wav","None","725.697115296","226","1896026.91846","1902898.74514","1903666.2262","1904433.03606","1905200.7561","1905968.41216","NA","NA","1896794.62181","1897562.1174","1898311.92355","1899079.19654","1899846.76541","1900614.28048","1901381.22513","1902131.84408","1905210.26523","Mapping"
"Blocked","Female","ball","6","F_tile.wav","space","507.676059613","226","1896026.91846","1902898.74514","1903666.2262","1904433.03606","1905200.7561","1905968.41216","1906718.76028","NA","1896794.62181","1897562.1174","1898311.92355","1899079.19654","1899846.76541","1900614.28048","1901381.22513","1902131.84408","1905977.41579","Mapping"
"Blocked","Female","ball","6","F_cling.wav","None","736.503515858","226","1896026.91846","1902898.74514","1903666.2262","1904433.03606","1905200.7561","1905968.41216","1906718.76028","1907485.37907","1896794.62181","1897562.1174","1898311.92355","1899079.19654","1899846.76541","1900614.28048","1901381.22513","1902131.84408","1906727.99455","Mapping"
"Blocked","Female","done","23","F_priest.wav","None","737.081044412","226","1910638.34128","1902898.74514","1903666.2262","1904433.03606","1905200.7561","1905968.41216","1906718.76028","1907485.37907","1896794.62181","1897562.1174","1898311.92355","1899079.19654","1899846.76541","1900614.28048","1901381.22513","1902131.84408","1907494.3626","Mapping"
"Blocked","Female","done","23","F_dime.wav","None","721.491792181","226","1910638.34128","1902898.74514","1903666.2262","1904433.03606","1905200.7561","1905968.41216","1906718.76028","1907485.37907","1911388.77968","1897562.1174","1898311.92355","1899079.19654","1899846.76541","1900614.28048","1901381.22513","1902131.84408","1910647.31554","Mapping"
"Blocked","Female","done","23","F_jaw.wav","space","478.847243066","226","1910638.34128","1902898.74514","1903666.2262","1904433.03606","1905200.7561","1905968.41216","1906718.76028","1907485.37907","1911388.77968","1912155.50513","1898311.92355","1899079.19654","1899846.76541","1900614.28048","1901381.22513","1902131.84408","1911398.08352","Mapping"
"Blocked","Female","done","23","F_romp.wav","None","733.478601789","226","1910638.34128","1902898.74514","1903666.2262","1904433.03606","1905200.7561","1905968.41216","1906718.76028","1907485.37907","1911388.77968","1912155.50513","1912923.49292","1899079.19654","1899846.76541","1900614.28048","1901381.22513","1902131.84408","1912164.22773","Mapping"
"Blocked","Female","done","23","F_done.wav","None","727.750928141","226","1910638.34128","1902898.74514","1903666.2262","1904433.03606","1905200.7561","1905968.41216","1906718.76028","1907485.37907","1911388.77968","1912155.50513","1912923.49292","1913690.38594","1899846.76541","1900614.28048","1901381.22513","1902131.84408","1912932.64187","Mapping"
"Blocked","Female","done","23","F_knife.wav","space","577.636782778","226","1910638.34128","1902898.74514","1903666.2262","1904433.03606","1905200.7561","1905968.41216","1906718.76028","1907485.37907","1911388.77968","1912155.50513","1912923.49292","1913690.38594","1914457.19147","1900614.28048","1901381.22513","1902131.84408","1913699.24488","Mapping"
"Blocked","Female","done","23","F_romp.wav","None","722.347573261","226","1910638.34128","1902898.74514","1903666.2262","1904433.03606","1905200.7561","1905968.41216","1906718.76028","1907485.37907","1911388.77968","1912155.50513","1912923.49292","1913690.38594","1914457.19147","1915207.95357","1901381.22513","1902131.84408","1914466.31351","Mapping"
"Blocked","Female","done","23","F_park.wav","None","734.681580157","226","1910638.34128","1902898.74514","1903666.2262","1904433.03606","1905200.7561","1905968.41216","1906718.76028","1907485.37907","1911388.77968","1912155.50513","1912923.49292","1913690.38594","1914457.19147","1915207.95357","1915975.28252","1902131.84408","1915216.6131","Mapping"
"Blocked","Female","done","23","F_reek.wav","None","732.458033308","226","1910638.34128","1902898.74514","1903666.2262","1904433.03606","1905200.7561","1905968.41216","1906718.76028","1907485.37907","1911388.77968","1912155.50513","1912923.49292","1913690.38594","1914457.19147","1915207.95357","1915975.28252","1916742.54963","1915984.50535","Mapping"
"Blocked","Female","done","23","F_done.wav","None","731.064915657","226","1910638.34128","1917509.37402","1903666.2262","1904433.03606","1905200.7561","1905968.41216","1906718.76028","1907485.37907","1911388.77968","1912155.50513","1912923.49292","1913690.38594","1914457.19147","1915207.95357","1915975.28252","1916742.54963","1916751.64107","Mapping"
"Blocked","Female","done","23","F_depth.wav","space","558.190950484","226","1910638.34128","1917509.37402","1918276.61083","1904433.03606","1905200.7561","1905968.41216","1906718.76028","1907485.37907","1911388.77968","1912155.50513","1912923.49292","1913690.38594","1914457.19147","1915207.95357","1915975.28252","1916742.54963","1917518.60242","Mapping"
"Blocked","Female","done","23","F_done.wav","None","725.434630469","226","1910638.34128","1917509.37402","1918276.61083","1919027.56741","1905200.7561","1905968.41216","1906718.76028","1907485.37907","1911388.77968","1912155.50513","1912923.49292","1913690.38594","1914457.19147","1915207.95357","1915975.28252","1916742.54963","1918285.57891","Mapping"
"Blocked","Female","done","23","F_jaw.wav","None","736.492076656","226","1910638.34128","1917509.37402","1918276.61083","1919027.56741","1919794.74301","1905968.41216","1906718.76028","1907485.37907","1911388.77968","1912155.50513","1912923.49292","1913690.38594","1914457.19147","1915207.95357","1915975.28252","1916742.54963","1919036.99862","Mapping"
"Blocked","Female","done","23","F_reek.wav","space","32.4989673682","226","1910638.34128","1917509.37402","1918276.61083","1919027.56741","1919794.74301","1920562.00363","1906718.76028","1907485.37907","1911388.77968","1912155.50513","1912923.49292","1913690.38594","1914457.19147","1915207.95357","1915975.28252","1916742.54963","1919804.14454","Mapping"
"Blocked","Female","done","23","F_done.wav","None","727.007375506","226","1910638.34128","1917509.37402","1918276.61083","1919027.56741","1919794.74301","1920562.00363","1921329.16408","1907485.37907","1911388.77968","1912155.50513","1912923.49292","1913690.38594","1914457.19147","1915207.95357","1915975.28252","1916742.54963","1920571.60983","Mapping"
"Blocked","Female","done","23","F_gnash.wav","space","466.130175162","226","1910638.34128","1917509.37402","1918276.61083","1919027.56741","1919794.74301","1920562.00363","1921329.16408","1922096.14305","1911388.77968","1912155.50513","1912923.49292","1913690.38594","1914457.19147","1915207.95357","1915975.28252","1916742.54963","1921338.50069","Mapping"
"Blocked","Female","done","22","F_cave.wav","None","722.354065801","226","1925215.34025","1917509.37402","1918276.61083","1919027.56741","1919794.74301","1920562.00363","1921329.16408","1922096.14305","1911388.77968","1912155.50513","1912923.49292","1913690.38594","1914457.19147","1915207.95357","1915975.28252","1916742.54963","1922105.33775","Mapping"
"Blocked","Female","done","22","F_done.wav","None","723.643611709","226","1925215.34025","1917509.37402","1918276.61083","1919027.56741","1919794.74301","1920562.00363","1921329.16408","1922096.14305","1925966.0603","1912155.50513","1912923.49292","1913690.38594","1914457.19147","1915207.95357","1915975.28252","1916742.54963","1925224.66325","Mapping"
"Blocked","Female","done","22","F_park.wav","space","420.657529263","226","1925215.34025","1917509.37402","1918276.61083","1919027.56741","1919794.74301","1920562.00363","1921329.16408","1922096.14305","1925966.0603","1926732.83182","1912923.49292","1913690.38594","1914457.19147","1915207.95357","1915975.28252","1916742.54963","1925975.83841","Mapping"
"Blocked","Female","done","22","F_depth.wav","None","731.349351641","226","1925215.34025","1917509.37402","1918276.61083","1919027.56741","1919794.74301","1920562.00363","1921329.16408","1922096.14305","1925966.0603","1926732.83182","1927500.04761","1913690.38594","1914457.19147","1915207.95357","1915975.28252","1916742.54963","1926742.00209","Mapping"
"Blocked","Female","done","22","F_dime.wav","None","726.893910323","226","1925215.34025","1917509.37402","1918276.61083","1919027.56741","1919794.74301","1920562.00363","1921329.16408","1922096.14305","1925966.0603","1926732.83182","1927500.04761","1928267.62637","1914457.19147","1915207.95357","1915975.28252","1916742.54963","1927509.14616","Mapping"
"Blocked","Female","done","22","F_park.wav","None","722.622424888","226","1925215.34025","1917509.37402","1918276.61083","1919027.56741","1919794.74301","1920562.00363","1921329.16408","1922096.14305","1925966.0603","1926732.83182","1927500.04761","1928267.62637","1929017.76055","1915207.95357","1915975.28252","1916742.54963","1928276.44017","Mapping"
"Blocked","Female","done","22","F_done.wav","None","735.303319991","226","1925215.34025","1917509.37402","1918276.61083","1919027.56741","1919794.74301","1920562.00363","1921329.16408","1922096.14305","1925966.0603","1926732.83182","1927500.04761","1928267.62637","1929017.76055","1929785.0524","1915975.28252","1916742.54963","1929026.40153","Mapping"
"Blocked","Female","done","22","F_jolt.wav","space","658.021772921","226","1925215.34025","1917509.37402","1918276.61083","1919027.56741","1919794.74301","1920562.00363","1921329.16408","1922096.14305","1925966.0603","1926732.83182","1927500.04761","1928267.62637","1929017.76055","1929785.0524","1930552.31147","1916742.54963","1929794.31512","Mapping"
"Blocked","Female","done","22","F_done.wav","None","725.154213724","226","1925215.34025","1917509.37402","1918276.61083","1919027.56741","1919794.74301","1920562.00363","1921329.16408","1922096.14305","1925966.0603","1926732.83182","1927500.04761","1928267.62637","1929017.76055","1929785.0524","1930552.31147","1931319.54242","1930561.63974","Mapping"
"Blocked","Female","done","22","F_reek.wav","space","515.681384772","226","1925215.34025","1932070.13942","1918276.61083","1919027.56741","1919794.74301","1920562.00363","1921329.16408","1922096.14305","1925966.0603","1926732.83182","1927500.04761","1928267.62637","1929017.76055","1929785.0524","1930552.31147","1931319.54242","1931328.63231","Mapping"
"Blocked","Female","done","22","F_tile.wav","None","732.526050648","226","1925215.34025","1932070.13942","1932837.87184","1919027.56741","1919794.74301","1920562.00363","1921329.16408","1922096.14305","1925966.0603","1926732.83182","1927500.04761","1928267.62637","1929017.76055","1929785.0524","1930552.31147","1931319.54242","1932079.40863","Mapping"
"Blocked","Female","done","22","F_done.wav","None","727.410223335","226","1925215.34025","1932070.13942","1932837.87184","1933604.763","1919794.74301","1920562.00363","1921329.16408","1922096.14305","1925966.0603","1926732.83182","1927500.04761","1928267.62637","1929017.76055","1929785.0524","1930552.31147","1931319.54242","1932847.2944","Mapping"
"Blocked","Female","done","22","F_depth.wav","space","478.012176347","226","1925215.34025","1932070.13942","1932837.87184","1933604.763","1934355.23078","1920562.00363","1921329.16408","1922096.14305","1925966.0603","1926732.83182","1927500.04761","1928267.62637","1929017.76055","1929785.0524","1930552.31147","1931319.54242","1933614.23503","Mapping"
"Blocked","Female","done","22","F_knife.wav","None","735.626711277","226","1925215.34025","1932070.13942","1932837.87184","1933604.763","1934355.23078","1935122.5993","1921329.16408","1922096.14305","1925966.0603","1926732.83182","1927500.04761","1928267.62637","1929017.76055","1929785.0524","1930552.31147","1931319.54242","1934364.56986","Mapping"
"Blocked","Female","done","22","F_depth.wav","None","731.151792337","226","1925215.34025","1932070.13942","1932837.87184","1933604.763","1934355.23078","1935122.5993","1935889.65865","1922096.14305","1925966.0603","1926732.83182","1927500.04761","1928267.62637","1929017.76055","1929785.0524","1930552.31147","1931319.54242","1935131.80111","Mapping"
"Blocked","Female","done","22","F_priest.wav","space","585.476083914","226","1925215.34025","1932070.13942","1932837.87184","1933604.763","1934355.23078","1935122.5993","1935889.65865","1936656.79406","1925966.0603","1926732.83182","1927500.04761","1928267.62637","1929017.76055","1929785.0524","1930552.31147","1931319.54242","1935898.72288","Mapping"
"Blocked","Female","cave","12","F_park.wav","None","724.269679864","226","1939759.23582","1932070.13942","1932837.87184","1933604.763","1934355.23078","1935122.5993","1935889.65865","1936656.79406","1925966.0603","1926732.83182","1927500.04761","1928267.62637","1929017.76055","1929785.0524","1930552.31147","1931319.54242","1936665.86015","Mapping"
"Blocked","Female","cave","12","F_reek.wav","None","735.22695509","226","1939759.23582","1932070.13942","1932837.87184","1933604.763","1934355.23078","1935122.5993","1935889.65865","1936656.79406","1940526.56848","1926732.83182","1927500.04761","1928267.62637","1929017.76055","1929785.0524","1930552.31147","1931319.54242","1939768.51709","Mapping"
"Blocked","Female","cave","12","F_tile.wav","None","730.636406865","226","1939759.23582","1932070.13942","1932837.87184","1933604.763","1934355.23078","1935122.5993","1935889.65865","1936656.79406","1940526.56848","1941293.5932","1927500.04761","1928267.62637","1929017.76055","1929785.0524","1930552.31147","1931319.54242","1940535.92271","Mapping"
"Blocked","Female","cave","12","F_cave.wav","None","726.944923343","226","1939759.23582","1932070.13942","1932837.87184","1933604.763","1934355.23078","1935122.5993","1935889.65865","1936656.79406","1940526.56848","1941293.5932","1942060.97873","1928267.62637","1929017.76055","1929785.0524","1930552.31147","1931319.54242","1941302.29138","Mapping"
"Blocked","Female","cave","12","F_dime.wav","space","461.825917824","226","1939759.23582","1932070.13942","1932837.87184","1933604.763","1934355.23078","1935122.5993","1935889.65865","1936656.79406","1940526.56848","1941293.5932","1942060.97873","1942811.70033","1929017.76055","1929785.0524","1930552.31147","1931319.54242","1942070.20002","Mapping"
"Blocked","Female","cave","12","F_jolt.wav","None","733.43964637","226","1939759.23582","1932070.13942","1932837.87184","1933604.763","1934355.23078","1935122.5993","1935889.65865","1936656.79406","1940526.56848","1941293.5932","1942060.97873","1942811.70033","1943578.94828","1929785.0524","1930552.31147","1931319.54242","1942820.91482","Mapping"
"Blocked","Female","cave","12","F_cave.wav","None","728.758511425","226","1939759.23582","1932070.13942","1932837.87184","1933604.763","1934355.23078","1935122.5993","1935889.65865","1936656.79406","1940526.56848","1941293.5932","1942060.97873","1942811.70033","1943578.94828","1944346.21014","1930552.31147","1931319.54242","1943588.31797","Mapping"
"Blocked","Female","cave","12","F_tile.wav","space","552.627445839","226","1939759.23582","1932070.13942","1932837.87184","1933604.763","1934355.23078","1935122.5993","1935889.65865","1936656.79406","1940526.56848","1941293.5932","1942060.97873","1942811.70033","1943578.94828","1944346.21014","1945097.35345","1931319.54242","1944355.31456","Mapping"
"Blocked","Female","cave","12","F_cave.wav","None","736.13282165","226","1939759.23582","1932070.13942","1932837.87184","1933604.763","1934355.23078","1935122.5993","1935889.65865","1936656.79406","1940526.56848","1941293.5932","1942060.97873","1942811.70033","1943578.94828","1944346.21014","1945097.35345","1945863.85166","1945106.56484","Mapping"
"Blocked","Female","cave","12","F_greet.wav","space","546.952640172","226","1939759.23582","1946630.9209","1932837.87184","1933604.763","1934355.23078","1935122.5993","1935889.65865","1936656.79406","1940526.56848","1941293.5932","1942060.97873","1942811.70033","1943578.94828","1944346.21014","1945097.35345","1945863.85166","1945872.92671","Mapping"
"Blocked","Female","cave","12","F_cave.wav","None","728.085449489","226","1939759.23582","1946630.9209","1947397.89214","1933604.763","1934355.23078","1935122.5993","1935889.65865","1936656.79406","1940526.56848","1941293.5932","1942060.97873","1942811.70033","1943578.94828","1944346.21014","1945097.35345","1945863.85166","1946639.82128","Mapping"
"Blocked","Female","cave","12","F_bluff.wav","space","412.828430708","226","1939759.23582","1946630.9209","1947397.89214","1948148.47246","1934355.23078","1935122.5993","1935889.65865","1936656.79406","1940526.56848","1941293.5932","1942060.97873","1942811.70033","1943578.94828","1944346.21014","1945097.35345","1945863.85166","1947407.04356","Mapping"
"Blocked","Female","cave","12","F_reek.wav","None","735.924132285","226","1939759.23582","1946630.9209","1947397.89214","1948148.47246","1948915.68237","1935122.5993","1935889.65865","1936656.79406","1940526.56848","1941293.5932","1942060.97873","1942811.70033","1943578.94828","1944346.21014","1945097.35345","1945863.85166","1948157.64891","Mapping"
"Blocked","Female","cave","12","F_reek.wav","None","731.337912322","226","1939759.23582","1946630.9209","1947397.89214","1948148.47246","1948915.68237","1949683.30689","1935889.65865","1936656.79406","1940526.56848","1941293.5932","1942060.97873","1942811.70033","1943578.94828","1944346.21014","1945097.35345","1945863.85166","1948925.13585","Mapping"
"Blocked","Female","cave","12","F_reek.wav","None","726.500337594","226","1939759.23582","1946630.9209","1947397.89214","1948148.47246","1948915.68237","1949683.30689","1950450.31708","1936656.79406","1940526.56848","1941293.5932","1942060.97873","1942811.70033","1943578.94828","1944346.21014","1945097.35345","1945863.85166","1949692.59218","Mapping"
"Blocked","Female","cave","12","F_done.wav","None","722.35097416","226","1939759.23582","1946630.9209","1947397.89214","1948148.47246","1948915.68237","1949683.30689","1950450.31708","1951201.04982","1940526.56848","1941293.5932","1942060.97873","1942811.70033","1943578.94828","1944346.21014","1945097.35345","1945863.85166","1950459.31855","Mapping"
"Blocked","Female","tile","16","F_bluff.wav","None","734.047782782","226","1954320.07171","1946630.9209","1947397.89214","1948148.47246","1948915.68237","1949683.30689","1950450.31708","1951201.04982","1940526.56848","1941293.5932","1942060.97873","1942811.70033","1943578.94828","1944346.21014","1945097.35345","1945863.85166","1951210.47763","Mapping"
"Blocked","Female","tile","16","F_tile.wav","None","735.016101506","226","1954320.07171","1946630.9209","1947397.89214","1948148.47246","1948915.68237","1949683.30689","1950450.31708","1951201.04982","1955087.42571","1941293.5932","1942060.97873","1942811.70033","1943578.94828","1944346.21014","1945097.35345","1945863.85166","1954329.32268","Mapping"
"Blocked","Female","tile","16","F_lash.wav","None","730.759456288","226","1954320.07171","1946630.9209","1947397.89214","1948148.47246","1948915.68237","1949683.30689","1950450.31708","1951201.04982","1955087.42571","1955854.27513","1942060.97873","1942811.70033","1943578.94828","1944346.21014","1945097.35345","1945863.85166","1955096.73325","Mapping"
"Blocked","Female","tile","16","F_tile.wav","None","727.636226278","226","1954320.07171","1946630.9209","1947397.89214","1948148.47246","1948915.68237","1949683.30689","1950450.31708","1951201.04982","1955087.42571","1955854.27513","1956621.72342","1942811.70033","1943578.94828","1944346.21014","1945097.35345","1945863.85166","1955862.99371","Mapping"
"Blocked","Female","tile","16","F_jaw.wav","space","380.297928059","226","1954320.07171","1946630.9209","1947397.89214","1948148.47246","1948915.68237","1949683.30689","1950450.31708","1951201.04982","1955087.42571","1955854.27513","1956621.72342","1957372.34547","1943578.94828","1944346.21014","1945097.35345","1945863.85166","1956631.2647","Mapping"
"Blocked","Female","tile","16","F_cling.wav","None","734.196802485","226","1954320.07171","1946630.9209","1947397.89214","1948148.47246","1948915.68237","1949683.30689","1950450.31708","1951201.04982","1955087.42571","1955854.27513","1956621.72342","1957372.34547","1958139.50963","1944346.21014","1945097.35345","1945863.85166","1957381.68548","Mapping"
"Blocked","Female","tile","16","F_depth.wav","None","729.868739028","226","1954320.07171","1946630.9209","1947397.89214","1948148.47246","1948915.68237","1949683.30689","1950450.31708","1951201.04982","1955087.42571","1955854.27513","1956621.72342","1957372.34547","1958139.50963","1958906.61938","1945097.35345","1945863.85166","1958148.97331","Mapping"
"Blocked","Female","tile","16","F_romp.wav","None","725.95187102","226","1954320.07171","1946630.9209","1947397.89214","1948148.47246","1948915.68237","1949683.30689","1950450.31708","1951201.04982","1955087.42571","1955854.27513","1956621.72342","1957372.34547","1958139.50963","1958906.61938","1959673.75139","1945863.85166","1958915.88179","Mapping"
"Blocked","Female","tile","16","F_depth.wav","None","722.461038502","226","1954320.07171","1946630.9209","1947397.89214","1948148.47246","1948915.68237","1949683.30689","1950450.31708","1951201.04982","1955087.42571","1955854.27513","1956621.72342","1957372.34547","1958139.50963","1958906.61938","1959673.75139","1960424.04015","1959682.44554","Mapping"
"Blocked","Female","tile","16","F_tile.wav","None","734.565641615","226","1954320.07171","1961191.67363","1947397.89214","1948148.47246","1948915.68237","1949683.30689","1950450.31708","1951201.04982","1955087.42571","1955854.27513","1956621.72342","1957372.34547","1958139.50963","1958906.61938","1959673.75139","1960424.04015","1960433.31122","Mapping"
"Blocked","Female","tile","16","F_romp.wav","space","426.358305151","226","1954320.07171","1961191.67363","1961958.85635","1948148.47246","1948915.68237","1949683.30689","1950450.31708","1951201.04982","1955087.42571","1955854.27513","1956621.72342","1957372.34547","1958139.50963","1958906.61938","1959673.75139","1960424.04015","1961201.06497","Mapping"
"Blocked","Female","tile","16","F_knife.wav","None","725.424737029","226","1954320.07171","1961191.67363","1961958.85635","1962726.23662","1948915.68237","1949683.30689","1950450.31708","1951201.04982","1955087.42571","1955854.27513","1956621.72342","1957372.34547","1958139.50963","1958906.61938","1959673.75139","1960424.04015","1961967.93171","Mapping"
"Blocked","Female","tile","16","F_cave.wav","None","720.490392239","226","1954320.07171","1961191.67363","1961958.85635","1962726.23662","1963476.77952","1949683.30689","1950450.31708","1951201.04982","1955087.42571","1955854.27513","1956621.72342","1957372.34547","1958139.50963","1958906.61938","1959673.75139","1960424.04015","1962736.00266","Mapping"
"Blocked","Female","tile","16","F_tile.wav","None","733.91916824","226","1954320.07171","1961191.67363","1961958.85635","1962726.23662","1963476.77952","1964243.68769","1950450.31708","1951201.04982","1955087.42571","1955854.27513","1956621.72342","1957372.34547","1958139.50963","1958906.61938","1959673.75139","1960424.04015","1963485.79428","Mapping"
"Blocked","Female","tile","16","F_done.wav","space","374.932910199","226","1954320.07171","1961191.67363","1961958.85635","1962726.23662","1963476.77952","1964243.68769","1965010.89359","1951201.04982","1955087.42571","1955854.27513","1956621.72342","1957372.34547","1958139.50963","1958906.61938","1959673.75139","1960424.04015","1964252.40039","Mapping"
"Blocked","Female","tile","16","F_jolt.wav","None","725.420408649","226","1954320.07171","1961191.67363","1961958.85635","1962726.23662","1963476.77952","1964243.68769","1965010.89359","1965778.48718","1955087.42571","1955854.27513","1956621.72342","1957372.34547","1958139.50963","1958906.61938","1959673.75139","1960424.04015","1965019.64586","Mapping"
"Blocked","Female","tile","17","F_gnash.wav","None","720.220487274","226","1968880.72767","1961191.67363","1961958.85635","1962726.23662","1963476.77952","1964243.68769","1965010.89359","1965778.48718","1955087.42571","1955854.27513","1956621.72342","1957372.34547","1958139.50963","1958906.61938","1959673.75139","1960424.04015","1965787.76072","Mapping"
"Blocked","Female","tile","17","F_tile.wav","None","735.108852386","226","1968880.72767","1961191.67363","1961958.85635","1962726.23662","1963476.77952","1964243.68769","1965010.89359","1965778.48718","1969647.52763","1955854.27513","1956621.72342","1957372.34547","1958139.50963","1958906.61938","1959673.75139","1960424.04015","1968889.89424","Mapping"
"Blocked","Female","tile","17","F_depth.wav","space","378.932635707","226","1968880.72767","1961191.67363","1961958.85635","1962726.23662","1963476.77952","1964243.68769","1965010.89359","1965778.48718","1969647.52763","1970415.03961","1956621.72342","1957372.34547","1958139.50963","1958906.61938","1959673.75139","1960424.04015","1969656.25178","Mapping"
"Blocked","Female","tile","17","F_cad.wav","None","726.567427395","226","1968880.72767","1961191.67363","1961958.85635","1962726.23662","1963476.77952","1964243.68769","1965010.89359","1965778.48718","1969647.52763","1970415.03961","1971182.52407","1957372.34547","1958139.50963","1958906.61938","1959673.75139","1960424.04015","1970424.45166","Mapping"
"Blocked","Female","tile","17","F_tile.wav","None","721.88845661","226","1968880.72767","1961191.67363","1961958.85635","1962726.23662","1963476.77952","1964243.68769","1965010.89359","1965778.48718","1969647.52763","1970415.03961","1971182.52407","1971932.97948","1958139.50963","1958906.61938","1959673.75139","1960424.04015","1971191.98033","Mapping"
"Blocked","Female","tile","17","F_gnash.wav","space","412.873260328","226","1968880.72767","1961191.67363","1961958.85635","1962726.23662","1963476.77952","1964243.68769","1965010.89359","1965778.48718","1969647.52763","1970415.03961","1971182.52407","1971932.97948","1972699.94052","1958906.61938","1959673.75139","1960424.04015","1971942.24931","Mapping"
"Blocked","Female","tile","17","F_park.wav","None","730.271586799","226","1968880.72767","1961191.67363","1961958.85635","1962726.23662","1963476.77952","1964243.68769","1965010.89359","1965778.48718","1969647.52763","1970415.03961","1971182.52407","1971932.97948","1972699.94052","1973467.10159","1959673.75139","1960424.04015","1972709.17912","Mapping"
"Blocked","Female","tile","17","F_priest.wav","None","726.072756283","226","1968880.72767","1961191.67363","1961958.85635","1962726.23662","1963476.77952","1964243.68769","1965010.89359","1965778.48718","1969647.52763","1970415.03961","1971182.52407","1971932.97948","1972699.94052","1973467.10159","1974234.58697","1960424.04015","1973476.3272","Mapping"
"Blocked","Female","tile","17","F_jolt.wav","None","721.870524751","226","1968880.72767","1961191.67363","1961958.85635","1962726.23662","1963476.77952","1964243.68769","1965010.89359","1965778.48718","1969647.52763","1970415.03961","1971182.52407","1971932.97948","1972699.94052","1973467.10159","1974234.58697","1974984.76629","1974243.68892","Mapping"
"Blocked","Female","tile","17","F_dime.wav","None","734.750834119","226","1968880.72767","1975751.94499","1961958.85635","1962726.23662","1963476.77952","1964243.68769","1965010.89359","1965778.48718","1969647.52763","1970415.03961","1971182.52407","1971932.97948","1972699.94052","1973467.10159","1974234.58697","1974984.76629","1974993.89421","Mapping"
"Blocked","Female","tile","17","F_depth.wav","None","730.920842674","226","1968880.72767","1975751.94499","1976519.67585","1962726.23662","1963476.77952","1964243.68769","1965010.89359","1965778.48718","1969647.52763","1970415.03961","1971182.52407","1971932.97948","1972699.94052","1973467.10159","1974234.58697","1974984.76629","1975760.78538","Mapping"
"Blocked","Female","tile","17","F_tile.wav","None","725.629716413","226","1968880.72767","1975751.94499","1976519.67585","1977286.9844","1963476.77952","1964243.68769","1965010.89359","1965778.48718","1969647.52763","1970415.03961","1971182.52407","1971932.97948","1972699.94052","1973467.10159","1974234.58697","1974984.76629","1976529.22765","Mapping"
"Blocked","Female","tile","17","F_romp.wav","space","410.674447019","226","1968880.72767","1975751.94499","1976519.67585","1977286.9844","1978037.05643","1964243.68769","1965010.89359","1965778.48718","1969647.52763","1970415.03961","1971182.52407","1971932.97948","1972699.94052","1973467.10159","1974234.58697","1974984.76629","1977296.27339","Mapping"
"Blocked","Female","tile","17","F_cave.wav","None","734.43548131","226","1968880.72767","1975751.94499","1976519.67585","1977286.9844","1978037.05643","1978804.4636","1965010.89359","1965778.48718","1969647.52763","1970415.03961","1971182.52407","1971932.97948","1972699.94052","1973467.10159","1974234.58697","1974984.76629","1978045.98432","Mapping"
"Blocked","Female","tile","17","F_tile.wav","None","730.366501841","226","1968880.72767","1975751.94499","1976519.67585","1977286.9844","1978037.05643","1978804.4636","1979571.5109","1965778.48718","1969647.52763","1970415.03961","1971182.52407","1971932.97948","1972699.94052","1973467.10159","1974234.58697","1974984.76629","1978813.26257","Mapping"
"Blocked","Female","tile","17","F_cling.wav","space","502.160167147","226","1968880.72767","1975751.94499","1976519.67585","1977286.9844","1978037.05643","1978804.4636","1979571.5109","1980338.98918","1969647.52763","1970415.03961","1971182.52407","1971932.97948","1972699.94052","1973467.10159","1974234.58697","1974984.76629","1979580.70313","Mapping"
"Blocked","Female","ball","5","F_cave.wav","None","721.292996197","226","1983441.32767","1975751.94499","1976519.67585","1977286.9844","1978037.05643","1978804.4636","1979571.5109","1980338.98918","1969647.52763","1970415.03961","1971182.52407","1971932.97948","1972699.94052","1973467.10159","1974234.58697","1974984.76629","1980348.00116","Mapping"
"Blocked","Female","ball","5","F_ball.wav","None","735.062786145","226","1983441.32767","1975751.94499","1976519.67585","1977286.9844","1978037.05643","1978804.4636","1979571.5109","1980338.98918","1984208.42258","1970415.03961","1971182.52407","1971932.97948","1972699.94052","1973467.10159","1974234.58697","1974984.76629","1983450.62656","Mapping"
"Blocked","Female","ball","5","F_gnash.wav","space","385.082634806","226","1983441.32767","1975751.94499","1976519.67585","1977286.9844","1978037.05643","1978804.4636","1979571.5109","1980338.98918","1984208.42258","1984975.75771","1971182.52407","1971932.97948","1972699.94052","1973467.10159","1974234.58697","1974984.76629","1984217.65871","Mapping"
"Blocked","Female","ball","5","F_ball.wav","None","726.367703872","226","1983441.32767","1975751.94499","1976519.67585","1977286.9844","1978037.05643","1978804.4636","1979571.5109","1980338.98918","1984208.42258","1984975.75771","1985743.01648","1971932.97948","1972699.94052","1973467.10159","1974234.58697","1974984.76629","1984984.70941","Mapping"
"Blocked","Female","ball","5","F_cave.wav","space","370.760049904","226","1983441.32767","1975751.94499","1976519.67585","1977286.9844","1978037.05643","1978804.4636","1979571.5109","1980338.98918","1984208.42258","1984975.75771","1985743.01648","1986493.70624","1972699.94052","1973467.10159","1974234.58697","1974984.76629","1985751.9487","Mapping"
"Blocked","Female","ball","5","F_ball.wav","None","733.319379506","226","1983441.32767","1975751.94499","1976519.67585","1977286.9844","1978037.05643","1978804.4636","1979571.5109","1980338.98918","1984208.42258","1984975.75771","1985743.01648","1986493.70624","1987260.80331","1973467.10159","1974234.58697","1974984.76629","1986503.12323","Mapping"
"Blocked","Female","ball","5","F_bluff.wav","space","380.34028426","226","1983441.32767","1975751.94499","1976519.67585","1977286.9844","1978037.05643","1978804.4636","1979571.5109","1980338.98918","1984208.42258","1984975.75771","1985743.01648","1986493.70624","1987260.80331","1988028.06517","1974234.58697","1974984.76629","1987270.32109","Mapping"
"Blocked","Female","ball","5","F_done.wav","None","724.645320792","226","1983441.32767","1975751.94499","1976519.67585","1977286.9844","1978037.05643","1978804.4636","1979571.5109","1980338.98918","1984208.42258","1984975.75771","1985743.01648","1986493.70624","1987260.80331","1988028.06517","1988795.92991","1974984.76629","1988037.29759","Mapping"
"Blocked","Female","ball","5","F_romp.wav","None","720.172875212","226","1983441.32767","1975751.94499","1976519.67585","1977286.9844","1978037.05643","1978804.4636","1979571.5109","1980338.98918","1984208.42258","1984975.75771","1985743.01648","1986493.70624","1987260.80331","1988028.06517","1988795.92991","1989546.00998","1988805.00032","Mapping"
"Blocked","Female","ball","5","F_dime.wav","None","732.984239818","226","1983441.32767","1990313.06222","1976519.67585","1977286.9844","1978037.05643","1978804.4636","1979571.5109","1980338.98918","1984208.42258","1984975.75771","1985743.01648","1986493.70624","1987260.80331","1988028.06517","1988795.92991","1989546.00998","1989555.3435","Mapping"
"Blocked","Female","ball","5","F_ball.wav","None","729.240506655","226","1983441.32767","1990313.06222","1991079.70791","1977286.9844","1978037.05643","1978804.4636","1979571.5109","1980338.98918","1984208.42258","1984975.75771","1985743.01648","1986493.70624","1987260.80331","1988028.06517","1988795.92991","1989546.00998","1990322.17252","Mapping"
"Blocked","Female","ball","5","F_jolt.wav","space","385.995612305","226","1983441.32767","1990313.06222","1991079.70791","1991847.32098","1978037.05643","1978804.4636","1979571.5109","1980338.98918","1984208.42258","1984975.75771","1985743.01648","1986493.70624","1987260.80331","1988028.06517","1988795.92991","1989546.00998","1991088.53501","Mapping"
"Blocked","Female","ball","5","F_romp.wav","None","726.460763952","226","1983441.32767","1990313.06222","1991079.70791","1991847.32098","1992614.44836","1978804.4636","1979571.5109","1980338.98918","1984208.42258","1984975.75771","1985743.01648","1986493.70624","1987260.80331","1988028.06517","1988795.92991","1989546.00998","1991856.57968","Mapping"
"Blocked","Female","ball","5","F_jolt.wav","None","722.473096102","226","1983441.32767","1990313.06222","1991079.70791","1991847.32098","1992614.44836","1993365.30259","1979571.5109","1980338.98918","1984208.42258","1984975.75771","1985743.01648","1986493.70624","1987260.80331","1988028.06517","1988795.92991","1989546.00998","1992623.74292","Mapping"
"Blocked","Female","ball","5","F_cave.wav","None","740.260852443","226","1983441.32767","1990313.06222","1991079.70791","1991847.32098","1992614.44836","1993365.30259","1994132.51931","1980338.98918","1984208.42258","1984975.75771","1985743.01648","1986493.70624","1987260.80331","1988028.06517","1988795.92991","1989546.00998","1993369.16288","Mapping"
"Blocked","Female","ball","5","F_cave.wav","None","730.770277209","226","1983441.32767","1990313.06222","1991079.70791","1991847.32098","1992614.44836","1993365.30259","1994132.51931","1994899.73696","1984208.42258","1984975.75771","1985743.01648","1986493.70624","1987260.80331","1988028.06517","1988795.92991","1989546.00998","1994142.10295","Mapping"
"Blocked","Female","done","20","F_depth.wav","None","726.874123502","226","1998002.13636","1990313.06222","1991079.70791","1991847.32098","1992614.44836","1993365.30259","1994132.51931","1994899.73696","1984208.42258","1984975.75771","1985743.01648","1986493.70624","1987260.80331","1988028.06517","1988795.92991","1989546.00998","1994909.2467","Mapping"
"Blocked","Female","done","20","F_ball.wav","None","735.961541825","226","1998002.13636","1990313.06222","1991079.70791","1991847.32098","1992614.44836","1993365.30259","1994132.51931","1994899.73696","1998769.31351","1984975.75771","1985743.01648","1986493.70624","1987260.80331","1988028.06517","1988795.92991","1989546.00998","1998011.18822","Mapping"
"Blocked","Female","done","20","F_lash.wav","None","731.689438049","226","1998002.13636","1990313.06222","1991079.70791","1991847.32098","1992614.44836","1993365.30259","1994132.51931","1994899.73696","1998769.31351","1999536.52992","1985743.01648","1986493.70624","1987260.80331","1988028.06517","1988795.92991","1989546.00998","1998778.56108","Mapping"
"Blocked","Female","done","20","F_greet.wav","None","727.335095173","226","1998002.13636","1990313.06222","1991079.70791","1991847.32098","1992614.44836","1993365.30259","1994132.51931","1994899.73696","1998769.31351","1999536.52992","2000303.56608","1986493.70624","1987260.80331","1988028.06517","1988795.92991","1989546.00998","1999545.99854","Mapping"
"Blocked","Female","done","20","F_jaw.wav","None","723.941960256","226","1998002.13636","1990313.06222","1991079.70791","1991847.32098","1992614.44836","1993365.30259","1994132.51931","1994899.73696","1998769.31351","1999536.52992","2000303.56608","2001054.11177","1987260.80331","1988028.06517","1988795.92991","1989546.00998","2000312.48099","Mapping"
"Blocked","Female","done","20","F_dime.wav","None","735.866626725","226","1998002.13636","1990313.06222","1991079.70791","1991847.32098","1992614.44836","1993365.30259","1994132.51931","1994899.73696","1998769.31351","1999536.52992","2000303.56608","2001054.11177","2001821.45679","1988028.06517","1988795.92991","1989546.00998","2001063.63264","Mapping"
"Blocked","Female","done","20","F_done.wav","space","387.774573406","226","1998002.13636","1990313.06222","1991079.70791","1991847.32098","1992614.44836","1993365.30259","1994132.51931","1994899.73696","1998769.31351","1999536.52992","2000303.56608","2001054.11177","2001821.45679","2002588.41412","1988795.92991","1989546.00998","2001830.43909","Mapping"
"Blocked","Female","done","20","F_jolt.wav","space","652.68643538","226","1998002.13636","1990313.06222","1991079.70791","1991847.32098","1992614.44836","1993365.30259","1994132.51931","1994899.73696","1998769.31351","1999536.52992","2000303.56608","2001054.11177","2001821.45679","2002588.41412","2003355.73658","1989546.00998","2002597.50123","Mapping"
"Blocked","Female","done","20","F_done.wav","None","723.325785482","226","1998002.13636","1990313.06222","1991079.70791","1991847.32098","1992614.44836","1993365.30259","1994132.51931","1994899.73696","1998769.31351","1999536.52992","2000303.56608","2001054.11177","2001821.45679","2002588.41412","2003355.73658","2004106.29154","2003364.91087","Mapping"
"Blocked","Female","done","20","F_cling.wav","space","686.747326923","226","1998002.13636","2004873.6613","1991079.70791","1991847.32098","1992614.44836","1993365.30259","1994132.51931","1994899.73696","1998769.31351","1999536.52992","2000303.56608","2001054.11177","2001821.45679","2002588.41412","2003355.73658","2004106.29154","2004115.39256","Mapping"
"Blocked","Female","done","20","F_cad.wav","None","730.285499478","226","1998002.13636","2004873.6613","2005640.8573","1991847.32098","1992614.44836","1993365.30259","1994132.51931","1994899.73696","1998769.31351","1999536.52992","2000303.56608","2001054.11177","2001821.45679","2002588.41412","2003355.73658","2004106.29154","2004883.15991","Mapping"
"Blocked","Female","done","20","F_done.wav","None","726.507757674","226","1998002.13636","2004873.6613","2005640.8573","2006408.15564","1992614.44836","1993365.30259","1994132.51931","1994899.73696","1998769.31351","1999536.52992","2000303.56608","2001054.11177","2001821.45679","2002588.41412","2003355.73658","2004106.29154","2005650.11167","Mapping"
"Blocked","Female","done","20","F_romp.wav","space","688.551639963","226","1998002.13636","2004873.6613","2005640.8573","2006408.15564","2007158.45925","1993365.30259","1994132.51931","1994899.73696","1998769.31351","1999536.52992","2000303.56608","2001054.11177","2001821.45679","2002588.41412","2003355.73658","2004106.29154","2006417.52904","Mapping"
"Blocked","Female","done","20","F_done.wav","None","735.589920077","226","1998002.13636","2004873.6613","2005640.8573","2006408.15564","2007158.45925","2007925.62588","1994132.51931","1994899.73696","1998769.31351","1999536.52992","2000303.56608","2001054.11177","2001821.45679","2002588.41412","2003355.73658","2004106.29154","2007167.15588","Mapping"
"Blocked","Female","done","20","F_cad.wav","space","403.345584695","226","1998002.13636","2004873.6613","2005640.8573","2006408.15564","2007158.45925","2007925.62588","2008693.12766","1994899.73696","1998769.31351","1999536.52992","2000303.56608","2001054.11177","2001821.45679","2002588.41412","2003355.73658","2004106.29154","2007934.69382","Mapping"
"Blocked","Female","done","20","F_bluff.wav","None","725.640228135","226","1998002.13636","2004873.6613","2005640.8573","2006408.15564","2007158.45925","2007925.62588","2008693.12766","2009460.46063","1998769.31351","1999536.52992","2000303.56608","2001054.11177","2001821.45679","2002588.41412","2003355.73658","2004106.29154","2008702.66955","Mapping"
"Blocked","Female","cave","9","F_bluff.wav","None","721.565065323","226","2012562.76419","2004873.6613","2005640.8573","2006408.15564","2007158.45925","2007925.62588","2008693.12766","2009460.46063","1998769.31351","1999536.52992","2000303.56608","2001054.11177","2001821.45679","2002588.41412","2003355.73658","2004106.29154","2009469.86989","Mapping"
"Blocked","Female","cave","9","F_cave.wav","None","735.72069878","226","2012562.76419","2004873.6613","2005640.8573","2006408.15564","2007158.45925","2007925.62588","2008693.12766","2009460.46063","2013329.75861","1999536.52992","2000303.56608","2001054.11177","2001821.45679","2002588.41412","2003355.73658","2004106.29154","2012572.03309","Mapping"
"Blocked","Female","cave","9","F_gnash.wav","space","678.818366665","226","2012562.76419","2004873.6613","2005640.8573","2006408.15564","2007158.45925","2007925.62588","2008693.12766","2009460.46063","2013329.75861","2014097.2069","2000303.56608","2001054.11177","2001821.45679","2002588.41412","2003355.73658","2004106.29154","2013339.03803","Mapping"
"Blocked","Female","cave","9","F_reek.wav","None","726.837950642","226","2012562.76419","2004873.6613","2005640.8573","2006408.15564","2007158.45925","2007925.62588","2008693.12766","2009460.46063","2013329.75861","2014097.2069","2014864.41651","2001054.11177","2001821.45679","2002588.41412","2003355.73658","2004106.29154","2014106.53764","Mapping"
"Blocked","Female","cave","9","F_cave.wav","None","722.764642909","226","2012562.76419","2004873.6613","2005640.8573","2006408.15564","2007158.45925","2007925.62588","2008693.12766","2009460.46063","2013329.75861","2014097.2069","2014864.41651","2015614.83234","2001821.45679","2002588.41412","2003355.73658","2004106.29154","2014873.81774","Mapping"
"Blocked","Female","cave","9","F_depth.wav","space","473.523963126","226","2012562.76419","2004873.6613","2005640.8573","2006408.15564","2007158.45925","2007925.62588","2008693.12766","2009460.46063","2013329.75861","2014097.2069","2014864.41651","2015614.83234","2016381.82553","2002588.41412","2003355.73658","2004106.29154","2015624.26479","Mapping"
"Blocked","Female","cave","9","F_reek.wav","None","731.477656984","226","2012562.76419","2004873.6613","2005640.8573","2006408.15564","2007158.45925","2007925.62588","2008693.12766","2009460.46063","2013329.75861","2014097.2069","2014864.41651","2015614.83234","2016381.82553","2017149.39996","2003355.73658","2004106.29154","2016391.21718","Mapping"
"Blocked","Female","cave","9","F_dime.wav","None","726.914315543","226","2012562.76419","2004873.6613","2005640.8573","2006408.15564","2007158.45925","2007925.62588","2008693.12766","2009460.46063","2013329.75861","2014097.2069","2014864.41651","2015614.83234","2016381.82553","2017149.39996","2017916.28618","2004106.29154","2017158.90198","Mapping"
"Blocked","Female","cave","9","F_park.wav","None","723.410497943","226","2012562.76419","2004873.6613","2005640.8573","2006408.15564","2007158.45925","2007925.62588","2008693.12766","2009460.46063","2013329.75861","2014097.2069","2014864.41651","2015614.83234","2016381.82553","2017149.39996","2017916.28618","2018667.18463","2017925.56003","Mapping"
"Blocked","Female","cave","9","F_priest.wav","None","735.830453923","226","2012562.76419","2019435.10811","2005640.8573","2006408.15564","2007158.45925","2007925.62588","2008693.12766","2009460.46063","2013329.75861","2014097.2069","2014864.41651","2015614.83234","2016381.82553","2017149.39996","2017916.28618","2018667.18463","2018676.42849","Mapping"
"Blocked","Female","cave","9","F_cad.wav","None","731.207133678","226","2012562.76419","2019435.10811","2020201.28386","2006408.15564","2007158.45925","2007925.62588","2008693.12766","2009460.46063","2013329.75861","2014097.2069","2014864.41651","2015614.83234","2016381.82553","2017149.39996","2017916.28618","2018667.18463","2019444.45523","Mapping"
"Blocked","Female","cave","9","F_cave.wav","None","728.960708308","226","2012562.76419","2019435.10811","2020201.28386","2020968.67278","2007158.45925","2007925.62588","2008693.12766","2009460.46063","2013329.75861","2014097.2069","2014864.41651","2015614.83234","2016381.82553","2017149.39996","2017916.28618","2018667.18463","2020209.98976","Mapping"
"Blocked","Female","cave","9","F_bluff.wav","space","679.868615349","226","2012562.76419","2019435.10811","2020201.28386","2020968.67278","2021719.4624","2007925.62588","2008693.12766","2009460.46063","2013329.75861","2014097.2069","2014864.41651","2015614.83234","2016381.82553","2017149.39996","2017916.28618","2018667.18463","2020977.76484","Mapping"
"Blocked","Female","cave","9","F_jolt.wav","None","735.564877337","226","2012562.76419","2019435.10811","2020201.28386","2020968.67278","2021719.4624","2022486.49486","2008693.12766","2009460.46063","2013329.75861","2014097.2069","2014864.41651","2015614.83234","2016381.82553","2017149.39996","2017916.28618","2018667.18463","2021729.11251","Mapping"
"Blocked","Female","cave","9","F_cave.wav","None","732.12289362","226","2012562.76419","2019435.10811","2020201.28386","2020968.67278","2021719.4624","2022486.49486","2023253.54277","2009460.46063","2013329.75861","2014097.2069","2014864.41651","2015614.83234","2016381.82553","2017149.39996","2017916.28618","2018667.18463","2022495.86671","Mapping"
"Blocked","Female","cave","9","F_cad.wav","space","570.98871161","226","2012562.76419","2019435.10811","2020201.28386","2020968.67278","2021719.4624","2022486.49486","2023253.54277","2024021.02847","2013329.75861","2014097.2069","2014864.41651","2015614.83234","2016381.82553","2017149.39996","2017916.28618","2018667.18463","2023262.57609","Mapping"
"Blocked","Female","tile","14","F_dime.wav","None","723.253130622","226","2027123.25257","2019435.10811","2020201.28386","2020968.67278","2021719.4624","2022486.49486","2023253.54277","2024021.02847","2013329.75861","2014097.2069","2014864.41651","2015614.83234","2016381.82553","2017149.39996","2017916.28618","2018667.18463","2024030.51503","Mapping"
"Blocked","Female","tile","14","F_depth.wav","None","735.898780404","226","2027123.25257","2019435.10811","2020201.28386","2020968.67278","2021719.4624","2022486.49486","2023253.54277","2024021.02847","2027890.56699","2014097.2069","2014864.41651","2015614.83234","2016381.82553","2017149.39996","2017916.28618","2018667.18463","2027132.42563","Mapping"
"Blocked","Female","tile","14","F_dime.wav","None","731.485386204","226","2027123.25257","2019435.10811","2020201.28386","2020968.67278","2021719.4624","2022486.49486","2023253.54277","2024021.02847","2027890.56699","2028657.52494","2014864.41651","2015614.83234","2016381.82553","2017149.39996","2017916.28618","2018667.18463","2027899.97502","Mapping"
"Blocked","Female","tile","14","F_tile.wav","None","729.178054375","226","2027123.25257","2019435.10811","2020201.28386","2020968.67278","2021719.4624","2022486.49486","2023253.54277","2024021.02847","2027890.56699","2028657.52494","2029425.01836","2015614.83234","2016381.82553","2017149.39996","2017916.28618","2018667.18463","2028666.62998","Mapping"
"Blocked","Female","tile","14","F_dime.wav","space","510.954801866","226","2027123.25257","2019435.10811","2020201.28386","2020968.67278","2021719.4624","2022486.49486","2023253.54277","2024021.02847","2027890.56699","2028657.52494","2029425.01836","2030192.26136","2016381.82553","2017149.39996","2017916.28618","2018667.18463","2029434.42763","Mapping"
"Blocked","Female","tile","14","F_tile.wav","None","720.344464295","226","2027123.25257","2019435.10811","2020201.28386","2020968.67278","2021719.4624","2022486.49486","2023253.54277","2024021.02847","2027890.56699","2028657.52494","2029425.01836","2030192.26136","2030942.83735","2017149.39996","2017916.28618","2018667.18463","2030201.72288","Mapping"
"Blocked","Female","tile","14","F_greet.wav","space","369.532337878","226","2027123.25257","2019435.10811","2020201.28386","2020968.67278","2021719.4624","2022486.49486","2023253.54277","2024021.02847","2027890.56699","2028657.52494","2029425.01836","2030192.26136","2030942.83735","2031709.73284","2017916.28618","2018667.18463","2030951.8147","Mapping"
"Blocked","Female","tile","14","F_done.wav","None","729.562352062","226","2027123.25257","2019435.10811","2020201.28386","2020968.67278","2021719.4624","2022486.49486","2023253.54277","2024021.02847","2027890.56699","2028657.52494","2029425.01836","2030192.26136","2030942.83735","2031709.73284","2032476.95636","2018667.18463","2031718.57756","Mapping"
"Blocked","Female","tile","14","F_tile.wav","None","725.458436529","226","2027123.25257","2019435.10811","2020201.28386","2020968.67278","2021719.4624","2022486.49486","2023253.54277","2024021.02847","2027890.56699","2028657.52494","2029425.01836","2030192.26136","2030942.83735","2031709.73284","2032476.95636","2033244.6053","2032486.06975","Mapping"
"Blocked","Female","tile","14","F_cave.wav","space","523.65115541","226","2027123.25257","2033995.10523","2020201.28386","2020968.67278","2021719.4624","2022486.49486","2023253.54277","2024021.02847","2027890.56699","2028657.52494","2029425.01836","2030192.26136","2030942.83735","2031709.73284","2032476.95636","2033244.6053","2033253.61172","Mapping"
"Blocked","Female","tile","14","F_cling.wav","None","733.102033322","226","2027123.25257","2033995.10523","2034762.26413","2020968.67278","2021719.4624","2022486.49486","2023253.54277","2024021.02847","2027890.56699","2028657.52494","2029425.01836","2030192.26136","2030942.83735","2031709.73284","2032476.95636","2033244.6053","2034004.51449","Mapping"
"Blocked","Female","tile","14","F_dime.wav","None","729.224120674","226","2027123.25257","2033995.10523","2034762.26413","2035529.02081","2021719.4624","2022486.49486","2023253.54277","2024021.02847","2027890.56699","2028657.52494","2029425.01836","2030192.26136","2030942.83735","2031709.73284","2032476.95636","2033244.6053","2034771.61064","Mapping"
"Blocked","Female","tile","14","F_park.wav","None","717.459294712","226","2027123.25257","2033995.10523","2034762.26413","2035529.02081","2036296.85402","2022486.49486","2023253.54277","2024021.02847","2027890.56699","2028657.52494","2029425.01836","2030192.26136","2030942.83735","2031709.73284","2032476.95636","2033244.6053","2035546.96099","Mapping"
"Blocked","Female","tile","14","F_tile.wav","None","722.260078299","226","2027123.25257","2033995.10523","2034762.26413","2035529.02081","2036296.85402","2037047.26397","2023253.54277","2024021.02847","2027890.56699","2028657.52494","2029425.01836","2030192.26136","2030942.83735","2031709.73284","2032476.95636","2033244.6053","2036306.22834","Mapping"
"Blocked","Female","tile","14","F_done.wav","space","568.307593931","226","2027123.25257","2033995.10523","2034762.26413","2035529.02081","2036296.85402","2037047.26397","2037814.66651","2024021.02847","2027890.56699","2028657.52494","2029425.01836","2030192.26136","2030942.83735","2031709.73284","2032476.95636","2033244.6053","2037056.84915","Mapping"
"Blocked","Female","tile","14","F_priest.wav","None","731.092740956","226","2027123.25257","2033995.10523","2034762.26413","2035529.02081","2036296.85402","2037047.26397","2037814.66651","2038581.74905","2027890.56699","2028657.52494","2029425.01836","2030192.26136","2030942.83735","2031709.73284","2032476.95636","2033244.6053","2037823.46361","Mapping"
"Blocked","Female","tile","18","F_done.wav","None","726.404804213","226","2041683.91317","2033995.10523","2034762.26413","2035529.02081","2036296.85402","2037047.26397","2037814.66651","2038581.74905","2027890.56699","2028657.52494","2029425.01836","2030192.26136","2030942.83735","2031709.73284","2032476.95636","2033244.6053","2038591.48665","Mapping"
"Blocked","Female","tile","18","F_tile.wav","None","734.40209101","226","2041683.91317","2033995.10523","2034762.26413","2035529.02081","2036296.85402","2037047.26397","2037814.66651","2038581.74905","2042451.24274","2028657.52494","2029425.01836","2030192.26136","2030942.83735","2031709.73284","2032476.95636","2033244.6053","2041694.76378","Mapping"
"Blocked","Female","tile","18","F_dime.wav","space","467.961695103","226","2041683.91317","2033995.10523","2034762.26413","2035529.02081","2036296.85402","2037047.26397","2037814.66651","2038581.74905","2042451.24274","2043218.48481","2029425.01836","2030192.26136","2030942.83735","2031709.73284","2032476.95636","2033244.6053","2042461.05145","Mapping"
"Blocked","Female","tile","18","F_bluff.wav","None","727.074774506","226","2041683.91317","2033995.10523","2034762.26413","2035529.02081","2036296.85402","2037047.26397","2037814.66651","2038581.74905","2042451.24274","2043218.48481","2043985.83416","2030192.26136","2030942.83735","2031709.73284","2032476.95636","2033244.6053","2043227.95807","Mapping"
"Blocked","Female","tile","18","F_tile.wav","None","723.295486881","226","2041683.91317","2033995.10523","2034762.26413","2035529.02081","2036296.85402","2037047.26397","2037814.66651","2038581.74905","2042451.24274","2043218.48481","2043985.83416","2044736.37397","2030942.83735","2031709.73284","2032476.95636","2033244.6053","2043995.30804","Mapping"
"Blocked","Female","tile","18","F_park.wav","space","575.605230173","226","2041683.91317","2033995.10523","2034762.26413","2035529.02081","2036296.85402","2037047.26397","2037814.66651","2038581.74905","2042451.24274","2043218.48481","2043985.83416","2044736.37397","2045503.45219","2031709.73284","2032476.95636","2033244.6053","2044745.29104","Mapping"
"Blocked","Female","tile","18","F_tile.wav","None","731.322144682","226","2041683.91317","2033995.10523","2034762.26413","2035529.02081","2036296.85402","2037047.26397","2037814.66651","2038581.74905","2042451.24274","2043218.48481","2043985.83416","2044736.37397","2045503.45219","2046270.74342","2032476.95636","2033244.6053","2045513.28254","Mapping"
"Blocked","Female","tile","18","F_greet.wav","space","336.58198308","226","2041683.91317","2033995.10523","2034762.26413","2035529.02081","2036296.85402","2037047.26397","2037814.66651","2038581.74905","2042451.24274","2043218.48481","2043985.83416","2044736.37397","2045503.45219","2046270.74342","2047037.96818","2033244.6053","2046280.31778","Mapping"
"Blocked","Female","tile","18","F_cling.wav","None","722.81936591","226","2041683.91317","2033995.10523","2034762.26413","2035529.02081","2036296.85402","2037047.26397","2037814.66651","2038581.74905","2042451.24274","2043218.48481","2043985.83416","2044736.37397","2045503.45219","2046270.74342","2047037.96818","2047788.48109","2047047.79173","Mapping"
"Blocked","Female","tile","18","F_ball.wav","None","735.930006544","226","2041683.91317","2048555.43316","2034762.26413","2035529.02081","2036296.85402","2037047.26397","2037814.66651","2038581.74905","2042451.24274","2043218.48481","2043985.83416","2044736.37397","2045503.45219","2046270.74342","2047037.96818","2047788.48109","2047798.21374","Mapping"
"Blocked","Female","tile","18","F_reek.wav","None","732.668268611","226","2041683.91317","2048555.43316","2049322.87959","2035529.02081","2036296.85402","2037047.26397","2037814.66651","2038581.74905","2042451.24274","2043218.48481","2043985.83416","2044736.37397","2045503.45219","2046270.74342","2047037.96818","2047788.48109","2048564.91539","Mapping"
"Blocked","Female","tile","18","F_knife.wav","None","728.291356354","226","2041683.91317","2048555.43316","2049322.87959","2050090.15413","2036296.85402","2037047.26397","2037814.66651","2038581.74905","2042451.24274","2043218.48481","2043985.83416","2044736.37397","2045503.45219","2046270.74342","2047037.96818","2047788.48109","2049332.63543","Mapping"
"Blocked","Female","tile","18","F_tile.wav","None","724.831440835","226","2041683.91317","2048555.43316","2049322.87959","2050090.15413","2050857.4367","2037047.26397","2037814.66651","2038581.74905","2042451.24274","2043218.48481","2043985.83416","2044736.37397","2045503.45219","2046270.74342","2047037.96818","2047788.48109","2050099.84072","Mapping"
"Blocked","Female","tile","18","F_cling.wav","space","453.692287323","226","2041683.91317","2048555.43316","2049322.87959","2050090.15413","2050857.4367","2051607.78359","2037814.66651","2038581.74905","2042451.24274","2043218.48481","2043985.83416","2044736.37397","2045503.45219","2046270.74342","2047037.96818","2047788.48109","2050867.02312","Mapping"
"Blocked","Female","tile","18","F_gnash.wav","None","733.049783681","226","2041683.91317","2048555.43316","2049322.87959","2050090.15413","2050857.4367","2051607.78359","2052374.80986","2038581.74905","2042451.24274","2043218.48481","2043985.83416","2044736.37397","2045503.45219","2046270.74342","2047037.96818","2047788.48109","2051617.53232","Mapping"
"Blocked","Female","tile","18","F_park.wav","None","729.922225291","226","2041683.91317","2048555.43316","2049322.87959","2050090.15413","2050857.4367","2051607.78359","2052374.80986","2053142.16911","2042451.24274","2043218.48481","2043985.83416","2044736.37397","2045503.45219","2046270.74342","2047037.96818","2047788.48109","2052384.20459","Mapping"
"Blocked","Female","cave","10","F_cad.wav","None","725.172145583","226","2056244.61087","2048555.43316","2049322.87959","2050090.15413","2050857.4367","2051607.78359","2052374.80986","2053142.16911","2042451.24274","2043218.48481","2043985.83416","2044736.37397","2045503.45219","2046270.74342","2047037.96818","2047788.48109","2053152.48207","Mapping"
"Blocked","Female","cave","10","F_depth.wav","None","735.228810168","226","2056244.61087","2048555.43316","2049322.87959","2050090.15413","2050857.4367","2051607.78359","2052374.80986","2053142.16911","2057011.42814","2043218.48481","2043985.83416","2044736.37397","2045503.45219","2046270.74342","2047037.96818","2047788.48109","2056254.08166","Mapping"
"Blocked","Female","cave","10","F_greet.wav","None","732.391871046","226","2056244.61087","2048555.43316","2049322.87959","2050090.15413","2050857.4367","2051607.78359","2052374.80986","2053142.16911","2057011.42814","2057779.35781","2043985.83416","2044736.37397","2045503.45219","2046270.74342","2047037.96818","2047788.48109","2057020.58667","Mapping"
"Blocked","Female","cave","10","F_knife.wav","None","727.328602632","226","2056244.61087","2048555.43316","2049322.87959","2050090.15413","2050857.4367","2051607.78359","2052374.80986","2053142.16911","2057011.42814","2057779.35781","2058546.42396","2044736.37397","2045503.45219","2046270.74342","2047037.96818","2047788.48109","2057789.02615","Mapping"
"Blocked","Female","cave","10","F_cave.wav","None","723.635573289","226","2056244.61087","2048555.43316","2049322.87959","2050090.15413","2050857.4367","2051607.78359","2052374.80986","2053142.16911","2057011.42814","2057779.35781","2058546.42396","2059314.12422","2045503.45219","2046270.74342","2047037.96818","2047788.48109","2058556.21783","Mapping"
"Blocked","Female","cave","10","F_jaw.wav","space","444.601777359","226","2056244.61087","2048555.43316","2049322.87959","2050090.15413","2050857.4367","2051607.78359","2052374.80986","2053142.16911","2057011.42814","2057779.35781","2058546.42396","2059314.12422","2060063.97273","2046270.74342","2047037.96818","2047788.48109","2059323.84111","Mapping"
"Blocked","Female","cave","10","F_jolt.wav","None","732.349823986","226","2056244.61087","2048555.43316","2049322.87959","2050090.15413","2050857.4367","2051607.78359","2052374.80986","2053142.16911","2057011.42814","2057779.35781","2058546.42396","2059314.12422","2060063.97273","2060831.52552","2047037.96818","2047788.48109","2060073.60429","Mapping"
"Blocked","Female","cave","10","F_cave.wav","None","727.26862377","226","2056244.61087","2048555.43316","2049322.87959","2050090.15413","2050857.4367","2051607.78359","2052374.80986","2053142.16911","2057011.42814","2057779.35781","2058546.42396","2059314.12422","2060063.97273","2060831.52552","2061598.14987","2047788.48109","2060842.19124","Mapping"
"Blocked","Female","cave","10","F_knife.wav","space","384.873945441","226","2056244.61087","2048555.43316","2049322.87959","2050090.15413","2050857.4367","2051607.78359","2052374.80986","2053142.16911","2057011.42814","2057779.35781","2058546.42396","2059314.12422","2060063.97273","2060831.52552","2061598.14987","2062349.04893","2061607.56964","Mapping"
"Blocked","Female","cave","10","F_cave.wav","None","737.113816431","226","2056244.61087","2063116.28018","2049322.87959","2050090.15413","2050857.4367","2051607.78359","2052374.80986","2053142.16911","2057011.42814","2057779.35781","2058546.42396","2059314.12422","2060063.97273","2060831.52552","2061598.14987","2062349.04893","2062358.13326","Mapping"
"Blocked","Female","cave","10","F_jolt.wav","space","490.083080018","226","2056244.61087","2063116.28018","2063883.74486","2050090.15413","2050857.4367","2051607.78359","2052374.80986","2053142.16911","2057011.42814","2057779.35781","2058546.42396","2059314.12422","2060063.97273","2060831.52552","2061598.14987","2062349.04893","2063126.30222","Mapping"
"Blocked","Female","cave","10","F_cave.wav","None","727.757111541","226","2056244.61087","2063116.28018","2063883.74486","2064650.89263","2050857.4367","2051607.78359","2052374.80986","2053142.16911","2057011.42814","2057779.35781","2058546.42396","2059314.12422","2060063.97273","2060831.52552","2061598.14987","2062349.04893","2063893.13217","Mapping"
"Blocked","Female","cave","10","F_greet.wav","space","387.646577263","226","2056244.61087","2063116.28018","2063883.74486","2064650.89263","2065401.68411","2051607.78359","2052374.80986","2053142.16911","2057011.42814","2057779.35781","2058546.42396","2059314.12422","2060063.97273","2060831.52552","2061598.14987","2062349.04893","2064660.68372","Mapping"
"Blocked","Female","cave","10","F_lash.wav","None","735.886722745","226","2056244.61087","2063116.28018","2063883.74486","2064650.89263","2065401.68411","2066168.13965","2052374.80986","2053142.16911","2057011.42814","2057779.35781","2058546.42396","2059314.12422","2060063.97273","2060831.52552","2061598.14987","2062349.04893","2065411.44613","Mapping"
"Blocked","Female","cave","10","F_romp.wav","None","734.065714641","226","2056244.61087","2063116.28018","2063883.74486","2064650.89263","2065401.68411","2066168.13965","2066935.64112","2053142.16911","2057011.42814","2057779.35781","2058546.42396","2059314.12422","2060063.97273","2060831.52552","2061598.14987","2062349.04893","2066177.28891","Mapping"
"Blocked","Female","cave","10","F_priest.wav","None","729.94479473","226","2056244.61087","2063116.28018","2063883.74486","2064650.89263","2065401.68411","2066168.13965","2066935.64112","2067703.3488","2057011.42814","2057779.35781","2058546.42396","2059314.12422","2060063.97273","2060831.52552","2061598.14987","2062349.04893","2066944.99226","Mapping"
"Blocked","Female","done","21","F_gnash.wav","None","725.813981378","226","2070805.28661","2063116.28018","2063883.74486","2064650.89263","2065401.68411","2066168.13965","2066935.64112","2067703.3488","2057011.42814","2057779.35781","2058546.42396","2059314.12422","2060063.97273","2060831.52552","2061598.14987","2062349.04893","2067712.71076","Mapping"
"Blocked","Female","done","21","F_done.wav","None","735.091848066","226","2070805.28661","2063116.28018","2063883.74486","2064650.89263","2065401.68411","2066168.13965","2066935.64112","2067703.3488","2071572.29124","2057779.35781","2058546.42396","2059314.12422","2060063.97273","2060831.52552","2061598.14987","2062349.04893","2070814.80687","Mapping"
"Blocked","Female","done","21","F_gnash.wav","space","506.154636678","226","2070805.28661","2063116.28018","2063883.74486","2064650.89263","2065401.68411","2066168.13965","2066935.64112","2067703.3488","2071572.29124","2072339.95842","2058546.42396","2059314.12422","2060063.97273","2060831.52552","2061598.14987","2062349.04893","2071581.95124","Mapping"
"Blocked","Female","done","21","F_done.wav","None","726.325656869","226","2070805.28661","2063116.28018","2063883.74486","2064650.89263","2065401.68411","2066168.13965","2066935.64112","2067703.3488","2071572.29124","2072339.95842","2073106.93894","2059314.12422","2060063.97273","2060831.52552","2061598.14987","2062349.04893","2072349.73869","Mapping"
"Blocked","Female","done","21","F_cling.wav","space","387.566811522","226","2070805.28661","2063116.28018","2063883.74486","2064650.89263","2065401.68411","2066168.13965","2066935.64112","2067703.3488","2071572.29124","2072339.95842","2073106.93894","2073857.52914","2060063.97273","2060831.52552","2061598.14987","2062349.04893","2073116.51824","Mapping"
"Blocked","Female","done","21","F_greet.wav","None","735.069897026","226","2070805.28661","2063116.28018","2063883.74486","2064650.89263","2065401.68411","2066168.13965","2066935.64112","2067703.3488","2071572.29124","2072339.95842","2073106.93894","2073857.52914","2074624.79966","2060831.52552","2061598.14987","2062349.04893","2073867.046","Mapping"
"Blocked","Female","done","21","F_done.wav","None","731.357390003","226","2070805.28661","2063116.28018","2063883.74486","2064650.89263","2065401.68411","2066168.13965","2066935.64112","2067703.3488","2071572.29124","2072339.95842","2073106.93894","2073857.52914","2074624.79966","2075391.96227","2061598.14987","2062349.04893","2074634.30538","Mapping"
"Blocked","Female","done","21","F_jolt.wav","space","510.397369333","226","2070805.28661","2063116.28018","2063883.74486","2064650.89263","2065401.68411","2066168.13965","2066935.64112","2067703.3488","2071572.29124","2072339.95842","2073106.93894","2073857.52914","2074624.79966","2075391.96227","2076159.28999","2062349.04893","2075401.6569","Mapping"
"Blocked","Female","done","21","F_cave.wav","None","722.34479076","226","2070805.28661","2063116.28018","2063883.74486","2064650.89263","2065401.68411","2066168.13965","2066935.64112","2067703.3488","2071572.29124","2072339.95842","2073106.93894","2073857.52914","2074624.79966","2075391.96227","2076159.28999","2076909.47858","2076168.98369","Mapping"
"Blocked","Female","done","21","F_done.wav","None","736.455594597","226","2070805.28661","2077676.65387","2063883.74486","2064650.89263","2065401.68411","2066168.13965","2066935.64112","2067703.3488","2071572.29124","2072339.95842","2073106.93894","2073857.52914","2074624.79966","2075391.96227","2076159.28999","2076909.47858","2076918.41234","Mapping"
"Blocked","Female","done","21","F_tile.wav","space","538.065563713","226","2070805.28661","2077676.65387","2078444.45523","2064650.89263","2065401.68411","2066168.13965","2066935.64112","2067703.3488","2071572.29124","2072339.95842","2073106.93894","2073857.52914","2074624.79966","2075391.96227","2076159.28999","2076909.47858","2077685.86125","Mapping"
"Blocked","Female","done","21","F_jolt.wav","None","726.900712063","226","2070805.28661","2077676.65387","2078444.45523","2079211.47285","2065401.68411","2066168.13965","2066935.64112","2067703.3488","2071572.29124","2072339.95842","2073106.93894","2073857.52914","2074624.79966","2075391.96227","2076159.28999","2076909.47858","2078454.06329","Mapping"
"Blocked","Female","done","21","F_gnash.wav","None","723.65443263","226","2070805.28661","2077676.65387","2078444.45523","2079211.47285","2079978.76253","2066168.13965","2066935.64112","2067703.3488","2071572.29124","2072339.95842","2073106.93894","2073857.52914","2074624.79966","2075391.96227","2076159.28999","2076909.47858","2079221.16933","Mapping"
"Blocked","Female","done","21","F_knife.wav","None","719.284631312","226","2070805.28661","2077676.65387","2078444.45523","2079211.47285","2079978.76253","2080728.88125","2066935.64112","2067703.3488","2071572.29124","2072339.95842","2073106.93894","2073857.52914","2074624.79966","2075391.96227","2076159.28999","2076909.47858","2079989.40445","Mapping"
"Blocked","Female","done","21","F_cave.wav","None","734.067878744","226","2070805.28661","2077676.65387","2078444.45523","2079211.47285","2079978.76253","2080728.88125","2081496.51597","2067703.3488","2071572.29124","2072339.95842","2073106.93894","2073857.52914","2074624.79966","2075391.96227","2076159.28999","2076909.47858","2080738.5329","Mapping"
"Blocked","Female","done","21","F_tile.wav","None","730.023942073","226","2070805.28661","2077676.65387","2078444.45523","2079211.47285","2079978.76253","2080728.88125","2081496.51597","2082263.82482","2071572.29124","2072339.95842","2073106.93894","2073857.52914","2074624.79966","2075391.96227","2076159.28999","2076909.47858","2081506.26346","Mapping"
"Blocked","Female","ball","4","F_jolt.wav","None","726.491371694","226","2085365.95741","2077676.65387","2078444.45523","2079211.47285","2079978.76253","2080728.88125","2081496.51597","2082263.82482","2071572.29124","2072339.95842","2073106.93894","2073857.52914","2074624.79966","2075391.96227","2076159.28999","2076909.47858","2082273.59056","Mapping"
"Blocked","Female","ball","4","F_ball.wav","None","735.658864898","226","2085365.95741","2077676.65387","2078444.45523","2079211.47285","2079978.76253","2080728.88125","2081496.51597","2082263.82482","2086132.90856","2072339.95842","2073106.93894","2073857.52914","2074624.79966","2075391.96227","2076159.28999","2076909.47858","2085375.17004","Mapping"
"Blocked","Female","ball","4","F_tile.wav","space","393.833676702","226","2085365.95741","2077676.65387","2078444.45523","2079211.47285","2079978.76253","2080728.88125","2081496.51597","2082263.82482","2086132.90856","2086900.55131","2073106.93894","2073857.52914","2074624.79966","2075391.96227","2076159.28999","2076909.47858","2086141.86365","Mapping"
"Blocked","Female","ball","4","F_depth.wav","None","726.946469164","226","2085365.95741","2077676.65387","2078444.45523","2079211.47285","2079978.76253","2080728.88125","2081496.51597","2082263.82482","2086132.90856","2086900.55131","2087667.66075","2073857.52914","2074624.79966","2075391.96227","2076159.28999","2076909.47858","2086910.3019","Mapping"
"Blocked","Female","ball","4","F_jaw.wav","None","723.335060524","226","2085365.95741","2077676.65387","2078444.45523","2079211.47285","2079978.76253","2080728.88125","2081496.51597","2082263.82482","2086132.90856","2086900.55131","2087667.66075","2088434.90993","2074624.79966","2075391.96227","2076159.28999","2076909.47858","2087677.39031","Mapping"
"Blocked","Female","ball","4","F_lash.wav","None","719.972842548","226","2085365.95741","2077676.65387","2078444.45523","2079211.47285","2079978.76253","2080728.88125","2081496.51597","2082263.82482","2086132.90856","2086900.55131","2087667.66075","2088434.90993","2089185.5159","2075391.96227","2076159.28999","2076909.47858","2088444.56777","Mapping"
"Blocked","Female","ball","4","F_ball.wav","None","733.152737143","226","2085365.95741","2077676.65387","2078444.45523","2079211.47285","2079978.76253","2080728.88125","2081496.51597","2082263.82482","2086132.90856","2086900.55131","2087667.66075","2088434.90993","2089185.5159","2089952.60216","2076159.28999","2076909.47858","2089194.99257","Mapping"
"Blocked","Female","ball","4","F_romp.wav","space","437.711626524","226","2085365.95741","2077676.65387","2078444.45523","2079211.47285","2079978.76253","2080728.88125","2081496.51597","2082263.82482","2086132.90856","2086900.55131","2087667.66075","2088434.90993","2089185.5159","2089952.60216","2090719.89308","2076909.47858","2089961.85436","Mapping"
"Blocked","Female","ball","4","F_gnash.wav","None","724.540203169","226","2085365.95741","2077676.65387","2078444.45523","2079211.47285","2079978.76253","2080728.88125","2081496.51597","2082263.82482","2086132.90856","2086900.55131","2087667.66075","2088434.90993","2089185.5159","2089952.60216","2090719.89308","2091487.25016","2090729.54009","Mapping"
"Blocked","Female","ball","4","F_romp.wav","None","721.190661076","226","2085365.95741","2092237.52872","2078444.45523","2079211.47285","2079978.76253","2080728.88125","2081496.51597","2082263.82482","2086132.90856","2086900.55131","2087667.66075","2088434.90993","2089185.5159","2089952.60216","2090719.89308","2091487.25016","2091496.6619","Mapping"
"Blocked","Female","ball","4","F_ball.wav","None","734.640460636","226","2085365.95741","2092237.52872","2093004.54572","2079211.47285","2079978.76253","2080728.88125","2081496.51597","2082263.82482","2086132.90856","2086900.55131","2087667.66075","2088434.90993","2089185.5159","2089952.60216","2090719.89308","2091487.25016","2092247.42678","Mapping"
"Blocked","Female","ball","4","F_romp.wav","space","537.52699052","226","2085365.95741","2092237.52872","2093004.54572","2093772.59843","2079978.76253","2080728.88125","2081496.51597","2082263.82482","2086132.90856","2086900.55131","2087667.66075","2088434.90993","2089185.5159","2089952.60216","2090719.89308","2091487.25016","2093013.96333","Mapping"
"Blocked","Female","ball","4","F_ball.wav","None","726.992844546","226","2085365.95741","2092237.52872","2093004.54572","2093772.59843","2094539.33594","2080728.88125","2081496.51597","2082263.82482","2086132.90856","2086900.55131","2087667.66075","2088434.90993","2089185.5159","2089952.60216","2090719.89308","2091487.25016","2093781.80612","Mapping"
"Blocked","Female","ball","4","F_cling.wav","space","426.053154864","226","2085365.95741","2092237.52872","2093004.54572","2093772.59843","2094539.33594","2095289.62192","2081496.51597","2082263.82482","2086132.90856","2086900.55131","2087667.66075","2088434.90993","2089185.5159","2089952.60216","2090719.89308","2091487.25016","2094549.3824","Mapping"
"Blocked","Female","ball","4","F_gnash.wav","None","736.945319106","226","2085365.95741","2092237.52872","2093004.54572","2093772.59843","2094539.33594","2095289.62192","2096056.89151","2082263.82482","2086132.90856","2086900.55131","2087667.66075","2088434.90993","2089185.5159","2089952.60216","2090719.89308","2091487.25016","2095298.54239","Mapping"
"Blocked","Female","ball","4","F_done.wav","None","733.473036729","226","2085365.95741","2092237.52872","2093004.54572","2093772.59843","2094539.33594","2095289.62192","2096056.89151","2096824.54292","2086132.90856","2086900.55131","2087667.66075","2088434.90993","2089185.5159","2089952.60216","2090719.89308","2091487.25016","2096065.7891","Mapping"
"Blocked","Female","done","24","F_depth.wav","None","728.897946829","226","2099943.33758","2092237.52872","2093004.54572","2093772.59843","2094539.33594","2095289.62192","2096056.89151","2096824.54292","2086132.90856","2086900.55131","2087667.66075","2088434.90993","2089185.5159","2089952.60216","2090719.89308","2091487.25016","2096834.05576","Mapping"
"Blocked","Female","done","24","F_priest.wav","None","735.209950828","226","2099943.33758","2092237.52872","2093004.54572","2093772.59843","2094539.33594","2095289.62192","2096056.89151","2096824.54292","2100710.52833","2086900.55131","2087667.66075","2088434.90993","2089185.5159","2089952.60216","2090719.89308","2091487.25016","2099952.72582","Mapping"
"Blocked","Female","done","24","F_done.wav","None","731.527124066","226","2099943.33758","2092237.52872","2093004.54572","2093772.59843","2094539.33594","2095289.62192","2096056.89151","2096824.54292","2100710.52833","2101477.57934","2087667.66075","2088434.90993","2089185.5159","2089952.60216","2090719.89308","2091487.25016","2100720.17411","Mapping"
"Blocked","Female","done","24","F_tile.wav","space","440.305558383","226","2099943.33758","2092237.52872","2093004.54572","2093772.59843","2094539.33594","2095289.62192","2096056.89151","2096824.54292","2100710.52833","2101477.57934","2102244.67363","2088434.90993","2089185.5159","2089952.60216","2090719.89308","2091487.25016","2101486.93759","Mapping"
"Blocked","Female","done","24","F_depth.wav","None","725.701134535","226","2099943.33758","2092237.52872","2093004.54572","2093772.59843","2094539.33594","2095289.62192","2096056.89151","2096824.54292","2100710.52833","2101477.57934","2102244.67363","2103011.8517","2089185.5159","2089952.60216","2090719.89308","2091487.25016","2102254.10144","Mapping"
"Blocked","Female","done","24","F_jaw.wav","None","722.675292927","226","2099943.33758","2092237.52872","2093004.54572","2093772.59843","2094539.33594","2095289.62192","2096056.89151","2096824.54292","2100710.52833","2101477.57934","2102244.67363","2103011.8517","2103762.58072","2089952.60216","2090719.89308","2091487.25016","2103021.0396","Mapping"
"Blocked","Female","done","24","F_done.wav","None","736.053365166","226","2099943.33758","2092237.52872","2093004.54572","2093772.59843","2094539.33594","2095289.62192","2096056.89151","2096824.54292","2100710.52833","2101477.57934","2102244.67363","2103011.8517","2103762.58072","2104529.71119","2090719.89308","2091487.25016","2103771.44956","Mapping"
"Blocked","Female","done","24","F_priest.wav","space","428.262789093","226","2099943.33758","2092237.52872","2093004.54572","2093772.59843","2094539.33594","2095289.62192","2096056.89151","2096824.54292","2100710.52833","2101477.57934","2102244.67363","2103011.8517","2103762.58072","2104529.71119","2105297.33416","2091487.25016","2104538.85735","Mapping"
"Blocked","Female","done","24","F_tile.wav","None","727.159486909","226","2099943.33758","2092237.52872","2093004.54572","2093772.59843","2094539.33594","2095289.62192","2096056.89151","2096824.54292","2100710.52833","2101477.57934","2102244.67363","2103011.8517","2103762.58072","2104529.71119","2105297.33416","2106064.34961","2105306.54771","Mapping"
"Blocked","Female","done","24","F_bluff.wav","None","723.463675007","226","2099943.33758","2106832.33925","2093004.54572","2093772.59843","2094539.33594","2095289.62192","2096056.89151","2096824.54292","2100710.52833","2101477.57934","2102244.67363","2103011.8517","2103762.58072","2104529.71119","2105297.33416","2106064.34961","2106073.98951","Mapping"
"Blocked","Female","done","24","F_tile.wav","None","719.258351892","226","2099943.33758","2106832.33925","2107582.41747","2093772.59843","2094539.33594","2095289.62192","2096056.89151","2096824.54292","2100710.52833","2101477.57934","2102244.67363","2103011.8517","2103762.58072","2104529.71119","2105297.33416","2106064.34961","2106842.08334","Mapping"
"Blocked","Female","done","24","F_done.wav","None","733.389251749","226","2099943.33758","2106832.33925","2107582.41747","2108349.61564","2094539.33594","2095289.62192","2096056.89151","2096824.54292","2100710.52833","2101477.57934","2102244.67363","2103011.8517","2103762.58072","2104529.71119","2105297.33416","2106064.34961","2107592.32883","Mapping"
"Blocked","Female","done","24","F_depth.wav","space","423.672859091","226","2099943.33758","2106832.33925","2107582.41747","2108349.61564","2109116.89512","2095289.62192","2096056.89151","2096824.54292","2100710.52833","2101477.57934","2102244.67363","2103011.8517","2103762.58072","2104529.71119","2105297.33416","2106064.34961","2108359.31398","Mapping"
"Blocked","Female","done","24","F_done.wav","None","725.339406228","226","2099943.33758","2106832.33925","2107582.41747","2108349.61564","2109116.89512","2109883.90253","2096056.89151","2096824.54292","2100710.52833","2101477.57934","2102244.67363","2103011.8517","2103762.58072","2104529.71119","2105297.33416","2106064.34961","2109126.45464","Mapping"
"Blocked","Female","done","24","F_jolt.wav","space","513.643648766","226","2099943.33758","2106832.33925","2107582.41747","2108349.61564","2109116.89512","2109883.90253","2110634.2822","2096824.54292","2100710.52833","2101477.57934","2102244.67363","2103011.8517","2103762.58072","2104529.71119","2105297.33416","2106064.34961","2109893.31891","Mapping"
"Blocked","Female","done","24","F_priest.wav","None","734.804629639","226","2099943.33758","2106832.33925","2107582.41747","2108349.61564","2109116.89512","2109883.90253","2110634.2822","2111401.74471","2100710.52833","2101477.57934","2102244.67363","2103011.8517","2103762.58072","2104529.71119","2105297.33416","2106064.34961","2110643.45216","Mapping"
"Blocked","Female","tile","13","F_bluff.wav","None","730.759147089","226","2114520.71466","2106832.33925","2107582.41747","2108349.61564","2109116.89512","2109883.90253","2110634.2822","2111401.74471","2100710.52833","2101477.57934","2102244.67363","2103011.8517","2103762.58072","2104529.71119","2105297.33416","2106064.34961","2111411.48602","Mapping"
"Blocked","Female","tile","13","F_greet.wav","None","735.699056881","226","2114520.71466","2106832.33925","2107582.41747","2108349.61564","2109116.89512","2109883.90253","2110634.2822","2111401.74471","2115287.47041","2101477.57934","2102244.67363","2103011.8517","2103762.58072","2104529.71119","2105297.33416","2106064.34961","2114530.19565","Mapping"
"Blocked","Female","tile","13","F_reek.wav","None","733.305157686","226","2114520.71466","2106832.33925","2107582.41747","2108349.61564","2109116.89512","2109883.90253","2110634.2822","2111401.74471","2115287.47041","2116054.71341","2102244.67363","2103011.8517","2103762.58072","2104529.71119","2105297.33416","2106064.34961","2115296.68057","Mapping"
"Blocked","Female","tile","13","F_tile.wav","None","730.426480761","226","2114520.71466","2106832.33925","2107582.41747","2108349.61564","2109116.89512","2109883.90253","2110634.2822","2111401.74471","2115287.47041","2116054.71341","2116821.94343","2103011.8517","2103762.58072","2104529.71119","2105297.33416","2106064.34961","2116063.74673","Mapping"
"Blocked","Female","tile","13","F_depth.wav","space","535.593135457","226","2114520.71466","2106832.33925","2107582.41747","2108349.61564","2109116.89512","2109883.90253","2110634.2822","2111401.74471","2115287.47041","2116054.71341","2116821.94343","2117589.7587","2103762.58072","2104529.71119","2105297.33416","2106064.34961","2116831.17801","Mapping"
"Blocked","Female","tile","13","F_tile.wav","None","721.672965446","226","2114520.71466","2106832.33925","2107582.41747","2108349.61564","2109116.89512","2109883.90253","2110634.2822","2111401.74471","2115287.47041","2116054.71341","2116821.94343","2117589.7587","2118340.1736","2104529.71119","2105297.33416","2106064.34961","2117599.17353","Mapping"
"Blocked","Female","tile","13","F_reek.wav","space","632.967606478","226","2114520.71466","2106832.33925","2107582.41747","2108349.61564","2109116.89512","2109883.90253","2110634.2822","2111401.74471","2115287.47041","2116054.71341","2116821.94343","2117589.7587","2118340.1736","2119107.01654","2105297.33416","2106064.34961","2118349.75415","Mapping"
"Blocked","Female","tile","13","F_ball.wav","None","731.67150619","226","2114520.71466","2106832.33925","2107582.41747","2108349.61564","2109116.89512","2109883.90253","2110634.2822","2111401.74471","2115287.47041","2116054.71341","2116821.94343","2117589.7587","2118340.1736","2119107.01654","2119874.25212","2106064.34961","2119116.03254","Mapping"
"Blocked","Female","tile","13","F_tile.wav","None","727.976621827","226","2114520.71466","2106832.33925","2107582.41747","2108349.61564","2109116.89512","2109883.90253","2110634.2822","2111401.74471","2115287.47041","2116054.71341","2116821.94343","2117589.7587","2118340.1736","2119107.01654","2119874.25212","2120642.14778","2119883.5674","Mapping"
"Blocked","Female","tile","13","F_lash.wav","space","426.862560562","226","2114520.71466","2121409.15333","2107582.41747","2108349.61564","2109116.89512","2109883.90253","2110634.2822","2111401.74471","2115287.47041","2116054.71341","2116821.94343","2117589.7587","2118340.1736","2119107.01654","2119874.25212","2120642.14778","2120651.80159","Mapping"
"Blocked","Female","tile","13","F_park.wav","None","719.925230485","226","2114520.71466","2121409.15333","2122159.21548","2108349.61564","2109116.89512","2109883.90253","2110634.2822","2111401.74471","2115287.47041","2116054.71341","2116821.94343","2117589.7587","2118340.1736","2119107.01654","2119874.25212","2120642.14778","2121418.8999","Mapping"
"Blocked","Female","tile","13","F_romp.wav","None","734.213497606","226","2114520.71466","2121409.15333","2122159.21548","2122927.00447","2109116.89512","2109883.90253","2110634.2822","2111401.74471","2115287.47041","2116054.71341","2116821.94343","2117589.7587","2118340.1736","2119107.01654","2119874.25212","2120642.14778","2122168.66246","Mapping"
"Blocked","Female","tile","13","F_jaw.wav","None","730.034453853","226","2114520.71466","2121409.15333","2122159.21548","2122927.00447","2123694.09288","2109883.90253","2110634.2822","2111401.74471","2115287.47041","2116054.71341","2116821.94343","2117589.7587","2118340.1736","2119107.01654","2119874.25212","2120642.14778","2122936.68302","Mapping"
"Blocked","Female","tile","13","F_tile.wav","None","726.806415361","226","2114520.71466","2121409.15333","2122159.21548","2122927.00447","2123694.09288","2124461.58106","2110634.2822","2111401.74471","2115287.47041","2116054.71341","2116821.94343","2117589.7587","2118340.1736","2119107.01654","2119874.25212","2120642.14778","2123703.95817","Mapping"
"Blocked","Female","tile","13","F_reek.wav","space","423.395843245","226","2114520.71466","2121409.15333","2122159.21548","2122927.00447","2123694.09288","2124461.58106","2125212.03955","2111401.74471","2115287.47041","2116054.71341","2116821.94343","2117589.7587","2118340.1736","2119107.01654","2119874.25212","2120642.14778","2124471.08369","Mapping"
"Blocked","Female","tile","13","F_gnash.wav","None","735.518501955","226","2114520.71466","2121409.15333","2122159.21548","2122927.00447","2123694.09288","2124461.58106","2125212.03955","2125979.04047","2115287.47041","2116054.71341","2116821.94343","2117589.7587","2118340.1736","2119107.01654","2119874.25212","2120642.14778","2125221.60217","Mapping"
"Blocked","Female","ball","3","F_done.wav","None","732.799974794","226","2129098.05681","2121409.15333","2122159.21548","2122927.00447","2123694.09288","2124461.58106","2125212.03955","2125979.04047","2115287.47041","2116054.71341","2116821.94343","2117589.7587","2118340.1736","2119107.01654","2119874.25212","2120642.14778","2125988.46705","Mapping"
"Blocked","Female","ball","3","F_priest.wav","None","735.576625797","226","2129098.05681","2121409.15333","2122159.21548","2122927.00447","2123694.09288","2124461.58106","2125212.03955","2125979.04047","2129865.37092","2116054.71341","2116821.94343","2117589.7587","2118340.1736","2119107.01654","2119874.25212","2120642.14778","2129107.53749","Mapping"
"Blocked","Female","ball","3","F_greet.wav","None","732.100942638","226","2129098.05681","2121409.15333","2122159.21548","2122927.00447","2123694.09288","2124461.58106","2125212.03955","2125979.04047","2129865.37092","2130632.57094","2116821.94343","2117589.7587","2118340.1736","2119107.01654","2119874.25212","2120642.14778","2129875.02659","Mapping"
"Blocked","Female","ball","3","F_reek.wav","None","729.536690982","226","2129098.05681","2121409.15333","2122159.21548","2122927.00447","2123694.09288","2124461.58106","2125212.03955","2125979.04047","2129865.37092","2130632.57094","2131399.75984","2117589.7587","2118340.1736","2119107.01654","2119874.25212","2120642.14778","2130641.68217","Mapping"
"Blocked","Female","ball","3","F_jaw.wav","None","725.585505192","226","2129098.05681","2121409.15333","2122159.21548","2122927.00447","2123694.09288","2124461.58106","2125212.03955","2125979.04047","2129865.37092","2130632.57094","2131399.75984","2132166.98398","2118340.1736","2119107.01654","2119874.25212","2120642.14778","2131409.69623","Mapping"
"Blocked","Female","ball","3","F_cave.wav","None","723.088652536","226","2129098.05681","2121409.15333","2122159.21548","2122927.00447","2123694.09288","2124461.58106","2125212.03955","2125979.04047","2129865.37092","2130632.57094","2131399.75984","2132166.98398","2132917.73124","2119107.01654","2119874.25212","2120642.14778","2132176.44395","Mapping"
"Blocked","Female","ball","3","F_ball.wav","None","736.255871132","226","2129098.05681","2121409.15333","2122159.21548","2122927.00447","2123694.09288","2124461.58106","2125212.03955","2125979.04047","2129865.37092","2130632.57094","2131399.75984","2132166.98398","2132917.73124","2133684.78255","2119874.25212","2120642.14778","2132927.16462","Mapping"
"Blocked","Female","ball","3","F_dime.wav","space","416.266395245","226","2129098.05681","2121409.15333","2122159.21548","2122927.00447","2123694.09288","2124461.58106","2125212.03955","2125979.04047","2129865.37092","2130632.57094","2131399.75984","2132166.98398","2132917.73124","2133684.78255","2134451.75534","2120642.14778","2133693.99735","Mapping"
"Blocked","Female","ball","3","F_ball.wav","None","728.551677079","226","2129098.05681","2121409.15333","2122159.21548","2122927.00447","2123694.09288","2124461.58106","2125212.03955","2125979.04047","2129865.37092","2130632.57094","2131399.75984","2132166.98398","2132917.73124","2133684.78255","2134451.75534","2135218.97917","2134461.17017","Mapping"
"Blocked","Female","ball","3","F_romp.wav","space","529.286696576","226","2129098.05681","2135986.45219","2122159.21548","2122927.00447","2123694.09288","2124461.58106","2125212.03955","2125979.04047","2129865.37092","2130632.57094","2131399.75984","2132166.98398","2132917.73124","2133684.78255","2134451.75534","2135218.97917","2135228.9267","Mapping"
"Blocked","Female","ball","3","F_ball.wav","None","720.171638532","226","2129098.05681","2135986.45219","2136736.58885","2122927.00447","2123694.09288","2124461.58106","2125212.03955","2125979.04047","2129865.37092","2130632.57094","2131399.75984","2132166.98398","2132917.73124","2133684.78255","2134451.75534","2135218.97917","2135996.31346","Mapping"
"Blocked","Female","ball","3","F_tile.wav","space","284.705200698","226","2129098.05681","2135986.45219","2136736.58885","2137503.7663","2123694.09288","2124461.58106","2125212.03955","2125979.04047","2129865.37092","2130632.57094","2131399.75984","2132166.98398","2132917.73124","2133684.78255","2134451.75534","2135218.97917","2136745.52477","Mapping"
"Blocked","Female","ball","3","F_ball.wav","None","729.737960326","226","2129098.05681","2135986.45219","2136736.58885","2137503.7663","2138271.84313","2124461.58106","2125212.03955","2125979.04047","2129865.37092","2130632.57094","2131399.75984","2132166.98398","2132917.73124","2133684.78255","2134451.75534","2135218.97917","2137513.0992","Mapping"
"Blocked","Female","ball","3","F_greet.wav","space","428.99304739","226","2129098.05681","2135986.45219","2136736.58885","2137503.7663","2138271.84313","2139038.78531","2125212.03955","2125979.04047","2129865.37092","2130632.57094","2131399.75984","2132166.98398","2132917.73124","2133684.78255","2134451.75534","2135218.97917","2138281.15037","Mapping"
"Blocked","Female","ball","3","F_gnash.wav","None","720.909935189","226","2129098.05681","2135986.45219","2136736.58885","2137503.7663","2138271.84313","2139038.78531","2139789.20671","2125979.04047","2129865.37092","2130632.57094","2131399.75984","2132166.98398","2132917.73124","2133684.78255","2134451.75534","2135218.97917","2139048.13707","Mapping"
"Blocked","Female","ball","3","F_cad.wav","None","735.138841788","226","2129098.05681","2135986.45219","2136736.58885","2137503.7663","2138271.84313","2139038.78531","2139789.20671","2140556.38447","2129865.37092","2130632.57094","2131399.75984","2132166.98398","2132917.73124","2133684.78255","2134451.75534","2135218.97917","2139798.52044","Mapping"
"Blocked","Female","ball","1","F_depth.wav","None","731.648009329","226","2143675.29229","2135986.45219","2136736.58885","2137503.7663","2138271.84313","2139038.78531","2139789.20671","2140556.38447","2129865.37092","2130632.57094","2131399.75984","2132166.98398","2132917.73124","2133684.78255","2134451.75534","2135218.97917","2140566.2241","Mapping"
"Blocked","Female","ball","1","F_jaw.wav","None","734.509681992","226","2143675.29229","2135986.45219","2136736.58885","2137503.7663","2138271.84313","2139038.78531","2139789.20671","2140556.38447","2144442.70873","2130632.57094","2131399.75984","2132166.98398","2132917.73124","2133684.78255","2134451.75534","2135218.97917","2143685.31649","Mapping"
"Blocked","Female","ball","1","F_cad.wav","None","732.289226784","226","2143675.29229","2135986.45219","2136736.58885","2137503.7663","2138271.84313","2139038.78531","2139789.20671","2140556.38447","2144442.70873","2145209.64844","2131399.75984","2132166.98398","2132917.73124","2133684.78255","2134451.75534","2135218.97917","2144452.19158","Mapping"
"Blocked","Female","ball","1","F_ball.wav","None","729.079429351","226","2143675.29229","2135986.45219","2136736.58885","2137503.7663","2138271.84313","2139038.78531","2139789.20671","2140556.38447","2144442.70873","2145209.64844","2145977.01263","2132166.98398","2132917.73124","2133684.78255","2134451.75534","2135218.97917","2145219.30287","Mapping"
"Blocked","Female","ball","1","F_jolt.wav","space","434.84531634","226","2143675.29229","2135986.45219","2136736.58885","2137503.7663","2138271.84313","2139038.78531","2139789.20671","2140556.38447","2144442.70873","2145209.64844","2145977.01263","2146744.42815","2132917.73124","2133684.78255","2134451.75534","2135218.97917","2145987.05353","Mapping"
"Blocked","Female","ball","1","F_jaw.wav","None","720.890148368","226","2143675.29229","2135986.45219","2136736.58885","2137503.7663","2138271.84313","2139038.78531","2139789.20671","2140556.38447","2144442.70873","2145209.64844","2145977.01263","2146744.42815","2147494.76576","2133684.78255","2134451.75534","2135218.97917","2146753.91223","Mapping"
"Blocked","Female","ball","1","F_ball.wav","None","734.31088595","226","2143675.29229","2135986.45219","2136736.58885","2137503.7663","2138271.84313","2139038.78531","2139789.20671","2140556.38447","2144442.70873","2145209.64844","2145977.01263","2146744.42815","2147494.76576","2148261.7302","2134451.75534","2135218.97917","2147504.49409","Mapping"
"Blocked","Female","ball","1","F_park.wav","space","460.910776164","226","2143675.29229","2135986.45219","2136736.58885","2137503.7663","2138271.84313","2139038.78531","2139789.20671","2140556.38447","2144442.70873","2145209.64844","2145977.01263","2146744.42815","2147494.76576","2148261.7302","2149029.33647","2135218.97917","2148272.91348","Mapping"
"Blocked","Female","ball","1","F_jolt.wav","None","727.460618014","226","2143675.29229","2135986.45219","2136736.58885","2137503.7663","2138271.84313","2139038.78531","2139789.20671","2140556.38447","2144442.70873","2145209.64844","2145977.01263","2146744.42815","2147494.76576","2148261.7302","2149029.33647","2149796.02173","2149038.89537","Mapping"
"Blocked","Female","ball","1","F_ball.wav","None","727.185457188","226","2143675.29229","2150563.46476","2136736.58885","2137503.7663","2138271.84313","2139038.78531","2139789.20671","2140556.38447","2144442.70873","2145209.64844","2145977.01263","2146744.42815","2147494.76576","2148261.7302","2149029.33647","2149796.02173","2149805.15893","Mapping"
"Blocked","Female","ball","1","F_cave.wav","space","575.567202293","226","2143675.29229","2150563.46476","2151314.32858","2137503.7663","2138271.84313","2139038.78531","2139789.20671","2140556.38447","2144442.70873","2145209.64844","2145977.01263","2146744.42815","2147494.76576","2148261.7302","2149029.33647","2149796.02173","2150574.19665","Mapping"
"Blocked","Female","ball","1","F_ball.wav","None","735.113489965","226","2143675.29229","2150563.46476","2151314.32858","2152081.54159","2138271.84313","2139038.78531","2139789.20671","2140556.38447","2144442.70873","2145209.64844","2145977.01263","2146744.42815","2147494.76576","2148261.7302","2149029.33647","2149796.02173","2151323.86986","Mapping"
