"Condition","Talker","Target","Trial","current_stimulus","response_response","response_time_response","subject_nr","time_Audio1","time_Audio10","time_Audio11","time_Audio12","time_Audio13","time_Audio14","time_Audio15","time_Audio16","time_Audio2","time_Audio3","time_Audio4","time_Audio5","time_Audio6","time_Audio7","time_Audio8","time_Audio9","time_response"
"Blocked","Male","cave","7","M_greet.wav","NA","NA","133","1594234.0079","NA","NA","NA","NA","NA","NA","NA","NA","NA","NA","NA","NA","NA","NA","NA","NA"
"Blocked","Male","cave","7","M_done.wav","None","718.614042737","133","1594234.0079","NA","NA","NA","NA","NA","NA","NA","1595001.04994","NA","NA","NA","NA","NA","NA","NA","1594248.22846"
"Blocked","Male","cave","7","M_cling.wav","None","721.981516574","133","1594234.0079","NA","NA","NA","NA","NA","NA","NA","1595001.04994","1595767.39109","NA","NA","NA","NA","NA","NA","1595011.31529"
"Blocked","Male","cave","7","M_done.wav","None","722.75444027","133","1594234.0079","NA","NA","NA","NA","NA","NA","NA","1595001.04994","1595767.39109","1596533.50037","NA","NA","NA","NA","NA","1595777.37417"
"Blocked","Male","cave","7","M_cave.wav","None","720.913954428","133","1594234.0079","NA","NA","NA","NA","NA","NA","NA","1595001.04994","1595767.39109","1596533.50037","1597300.9165","NA","NA","NA","NA","1596542.86975"
"Blocked","Male","cave","7","M_jaw.wav","space","584.76221154","133","1594234.0079","NA","NA","NA","NA","NA","NA","NA","1595001.04994","1595767.39109","1596533.50037","1597300.9165","1598067.34051","NA","NA","NA","1597310.76355"
"Blocked","Male","cave","7","M_reek.wav","None","720.650232863","133","1594234.0079","NA","NA","NA","NA","NA","NA","NA","1595001.04994","1595767.39109","1596533.50037","1597300.9165","1598067.34051","1598833.47421","NA","NA","1598076.94857"
"Blocked","Male","cave","7","M_ball.wav","None","724.212483503","133","1594234.0079","NA","NA","NA","NA","NA","NA","NA","1595001.04994","1595767.39109","1596533.50037","1597300.9165","1598067.34051","1598833.47421","1599600.89684","NA","1598842.48403"
"Blocked","Male","cave","7","M_cave.wav","None","722.337370622","133","1594234.0079","NA","NA","NA","NA","NA","NA","NA","1595001.04994","1595767.39109","1596533.50037","1597300.9165","1598067.34051","1598833.47421","1599600.89684","1600367.27633","1599611.42128"
"Blocked","Male","cave","7","M_lash.wav","space","486.666139099","133","1594234.0079","1601134.01105","NA","NA","NA","NA","NA","NA","1595001.04994","1595767.39109","1596533.50037","1597300.9165","1598067.34051","1598833.47421","1599600.89684","1600367.27633","1600376.7904"
"Blocked","Male","cave","7","M_cave.wav","None","720.335189137","133","1594234.0079","1601134.01105","1601883.21432","NA","NA","NA","NA","NA","1595001.04994","1595767.39109","1596533.50037","1597300.9165","1598067.34051","1598833.47421","1599600.89684","1600367.27633","1601143.70784"
"Blocked","Male","cave","7","M_greet.wav","space","571.300663636","133","1594234.0079","1601134.01105","1601883.21432","1602650.12806","NA","NA","NA","NA","1595001.04994","1595767.39109","1596533.50037","1597300.9165","1598067.34051","1598833.47421","1599600.89684","1600367.27633","1601892.03802"
"Blocked","Male","cave","7","M_cad.wav","None","732.401146204","133","1594234.0079","1601134.01105","1601883.21432","1602650.12806","1603417.16391","NA","NA","NA","1595001.04994","1595767.39109","1596533.50037","1597300.9165","1598067.34051","1598833.47421","1599600.89684","1600367.27633","1602658.88405"
"Blocked","Male","cave","7","M_jaw.wav","None","731.269276701","133","1594234.0079","1601134.01105","1601883.21432","1602650.12806","1603417.16391","1604183.42808","NA","NA","1595001.04994","1595767.39109","1596533.50037","1597300.9165","1598067.34051","1598833.47421","1599600.89684","1600367.27633","1603426.89039"
"Blocked","Male","cave","7","M_cave.wav","None","729.712299304","133","1594234.0079","1601134.01105","1601883.21432","1602650.12806","1603417.16391","1604183.42808","1604950.4052","NA","1595001.04994","1595767.39109","1596533.50037","1597300.9165","1598067.34051","1598833.47421","1599600.89684","1600367.27633","1604192.19953"
"Blocked","Male","cave","7","M_dime.wav","space","615.492729587","133","1594234.0079","1601134.01105","1601883.21432","1602650.12806","1603417.16391","1604183.42808","1604950.4052","1605717.12416","1595001.04994","1595767.39109","1596533.50037","1597300.9165","1598067.34051","1598833.47421","1599600.89684","1600367.27633","1604959.86609"
"Blocked","Male","done","24","M_lash.wav","None","726.078321342","133","1608867.37217","1601134.01105","1601883.21432","1602650.12806","1603417.16391","1604183.42808","1604950.4052","1605717.12416","1595001.04994","1595767.39109","1596533.50037","1597300.9165","1598067.34051","1598833.47421","1599600.89684","1600367.27633","1605726.41532"
"Blocked","Male","done","24","M_cling.wav","None","720.04487901","133","1608867.37217","1601134.01105","1601883.21432","1602650.12806","1603417.16391","1604183.42808","1604950.4052","1605717.12416","1609616.3043","1595767.39109","1596533.50037","1597300.9165","1598067.34051","1598833.47421","1599600.89684","1600367.27633","1608877.36607"
"Blocked","Male","done","24","M_done.wav","None","742.281893268","133","1608867.37217","1601134.01105","1601883.21432","1602650.12806","1603417.16391","1604183.42808","1604950.4052","1605717.12416","1609616.3043","1610383.21154","1596533.50037","1597300.9165","1598067.34051","1598833.47421","1599600.89684","1600367.27633","1609619.68661"
"Blocked","Male","done","24","M_cad.wav","space","614.961576415","133","1608867.37217","1601134.01105","1601883.21432","1602650.12806","1603417.16391","1604183.42808","1604950.4052","1605717.12416","1609616.3043","1610383.21154","1611150.80638","1597300.9165","1598067.34051","1598833.47421","1599600.89684","1600367.27633","1610392.17931"
"Blocked","Male","done","24","M_ball.wav","None","730.048057274","133","1608867.37217","1601134.01105","1601883.21432","1602650.12806","1603417.16391","1604183.42808","1604950.4052","1605717.12416","1609616.3043","1610383.21154","1611150.80638","1611916.60277","1598067.34051","1598833.47421","1599600.89684","1600367.27633","1611159.98253"
"Blocked","Male","done","24","M_done.wav","None","728.864556528","133","1608867.37217","1601134.01105","1601883.21432","1602650.12806","1603417.16391","1604183.42808","1604950.4052","1605717.12416","1609616.3043","1610383.21154","1611150.80638","1611916.60277","1612683.61049","1598833.47421","1599600.89684","1600367.27633","1611925.23324"
"Blocked","Male","done","24","M_gnash.wav","space","529.964396032","133","1608867.37217","1601134.01105","1601883.21432","1602650.12806","1603417.16391","1604183.42808","1604950.4052","1605717.12416","1609616.3043","1610383.21154","1611150.80638","1611916.60277","1612683.61049","1613450.21258","1599600.89684","1600367.27633","1612693.10756"
"Blocked","Male","done","24","M_bluff.wav","None","724.9854072","133","1608867.37217","1601134.01105","1601883.21432","1602650.12806","1603417.16391","1604183.42808","1604950.4052","1605717.12416","1609616.3043","1610383.21154","1611150.80638","1611916.60277","1612683.61049","1613450.21258","1614216.45635","1600367.27633","1613459.77829"
"Blocked","Male","done","24","M_tile.wav","None","726.697896956","133","1608867.37217","1601134.01105","1601883.21432","1602650.12806","1603417.16391","1604183.42808","1604950.4052","1605717.12416","1609616.3043","1610383.21154","1611150.80638","1611916.60277","1612683.61049","1613450.21258","1614216.45635","1614983.57197","1614225.43463"
"Blocked","Male","done","24","M_gnash.wav","None","726.040602545","133","1608867.37217","1615749.93848","1601883.21432","1602650.12806","1603417.16391","1604183.42808","1604950.4052","1605717.12416","1609616.3043","1610383.21154","1611150.80638","1611916.60277","1612683.61049","1613450.21258","1614216.45635","1614983.57197","1614992.94352"
"Blocked","Male","done","24","M_depth.wav","None","723.874870455","133","1608867.37217","1615749.93848","1616516.9564","1602650.12806","1603417.16391","1604183.42808","1604950.4052","1605717.12416","1609616.3043","1610383.21154","1611150.80638","1611916.60277","1612683.61049","1613450.21258","1614216.45635","1614983.57197","1615759.04321"
"Blocked","Male","done","24","M_greet.wav","None","723.256531521","133","1608867.37217","1615749.93848","1616516.9564","1617283.4407","1603417.16391","1604183.42808","1604950.4052","1605717.12416","1609616.3043","1610383.21154","1611150.80638","1611916.60277","1612683.61049","1613450.21258","1614216.45635","1614983.57197","1616527.11385"
"Blocked","Male","done","24","M_done.wav","None","721.91906441","133","1608867.37217","1615749.93848","1616516.9564","1617283.4407","1618033.00044","1604183.42808","1604950.4052","1605717.12416","1609616.3043","1610383.21154","1611150.80638","1611916.60277","1612683.61049","1613450.21258","1614216.45635","1614983.57197","1617292.21926"
"Blocked","Male","done","24","M_ball.wav","space","524.712843355","133","1608867.37217","1615749.93848","1616516.9564","1617283.4407","1618033.00044","1618800.30775","1604950.4052","1605717.12416","1609616.3043","1610383.21154","1611150.80638","1611916.60277","1612683.61049","1613450.21258","1614216.45635","1614983.57197","1618042.19483"
"Blocked","Male","done","24","M_done.wav","None","731.833201833","133","1608867.37217","1615749.93848","1616516.9564","1617283.4407","1618033.00044","1618800.30775","1619566.68167","1605717.12416","1609616.3043","1610383.21154","1611150.80638","1611916.60277","1612683.61049","1613450.21258","1614216.45635","1614983.57197","1618810.02123"
"Blocked","Male","done","24","M_depth.wav","space","710.512565915","133","1608867.37217","1615749.93848","1616516.9564","1617283.4407","1618033.00044","1618800.30775","1619566.68167","1620333.33014","1609616.3043","1610383.21154","1611150.80638","1611916.60277","1612683.61049","1613450.21258","1614216.45635","1614983.57197","1619576.33734"
"Blocked","Male","tile","15","M_greet.wav","None","726.986970287","133","1623466.87342","1615749.93848","1616516.9564","1617283.4407","1618033.00044","1618800.30775","1619566.68167","1620333.33014","1609616.3043","1610383.21154","1611150.80638","1611916.60277","1612683.61049","1613450.21258","1614216.45635","1614983.57197","1620342.33099"
"Blocked","Male","tile","15","M_park.wav","None","719.906680286","133","1623466.87342","1615749.93848","1616516.9564","1617283.4407","1618033.00044","1618800.30775","1619566.68167","1620333.33014","1624233.65668","1610383.21154","1611150.80638","1611916.60277","1612683.61049","1613450.21258","1614216.45635","1614983.57197","1623476.94307"
"Blocked","Male","tile","15","M_park.wav","None","720.03745893","133","1623466.87342","1615749.93848","1616516.9564","1617283.4407","1618033.00044","1618800.30775","1619566.68167","1620333.33014","1624233.65668","1624983.27857","1611150.80638","1611916.60277","1612683.61049","1613450.21258","1614216.45635","1614983.57197","1624243.83732"
"Blocked","Male","tile","15","M_tile.wav","None","737.524702679","133","1623466.87342","1615749.93848","1616516.9564","1617283.4407","1618033.00044","1618800.30775","1619566.68167","1620333.33014","1624233.65668","1624983.27857","1625749.78667","1611916.60277","1612683.61049","1613450.21258","1614216.45635","1614983.57197","1624990.3972"
"Blocked","Male","tile","15","M_reek.wav","space","559.267169447","133","1623466.87342","1615749.93848","1616516.9564","1617283.4407","1618033.00044","1618800.30775","1619566.68167","1620333.33014","1624233.65668","1624983.27857","1625749.78667","1626516.72019","1612683.61049","1613450.21258","1614216.45635","1614983.57197","1625759.3768"
"Blocked","Male","tile","15","M_knife.wav","None","729.5790473","133","1623466.87342","1615749.93848","1616516.9564","1617283.4407","1618033.00044","1618800.30775","1619566.68167","1620333.33014","1624233.65668","1624983.27857","1625749.78667","1626516.72019","1627282.86379","1613450.21258","1614216.45635","1614983.57197","1626525.70651"
"Blocked","Male","tile","15","M_cave.wav","None","730.667323689","133","1623466.87342","1615749.93848","1616516.9564","1617283.4407","1618033.00044","1618800.30775","1619566.68167","1620333.33014","1624233.65668","1624983.27857","1625749.78667","1626516.72019","1627282.86379","1628049.75093","1614216.45635","1614983.57197","1627291.72582"
"Blocked","Male","tile","15","M_tile.wav","None","727.358592092","133","1623466.87342","1615749.93848","1616516.9564","1617283.4407","1618033.00044","1618800.30775","1619566.68167","1620333.33014","1624233.65668","1624983.27857","1625749.78667","1626516.72019","1627282.86379","1628049.75093","1628816.74567","1614983.57197","1628059.02169"
"Blocked","Male","tile","15","M_cling.wav","space","443.79175338","133","1623466.87342","1615749.93848","1616516.9564","1617283.4407","1618033.00044","1618800.30775","1619566.68167","1620333.33014","1624233.65668","1624983.27857","1625749.78667","1626516.72019","1627282.86379","1628049.75093","1628816.74567","1629583.55429","1628826.80883"
"Blocked","Male","tile","15","M_gnash.wav","None","720.362396096","133","1623466.87342","1630332.45643","1616516.9564","1617283.4407","1618033.00044","1618800.30775","1619566.68167","1620333.33014","1624233.65668","1624983.27857","1625749.78667","1626516.72019","1627282.86379","1628049.75093","1628816.74567","1629583.55429","1629593.18182"
"Blocked","Male","tile","15","M_lash.wav","None","736.097885529","133","1623466.87342","1630332.45643","1631099.63697","1617283.4407","1618033.00044","1618800.30775","1619566.68167","1620333.33014","1624233.65668","1624983.27857","1625749.78667","1626516.72019","1627282.86379","1628049.75093","1628816.74567","1629583.55429","1630341.59238"
"Blocked","Male","tile","15","M_tile.wav","None","732.91251238","133","1623466.87342","1630332.45643","1631099.63697","1631866.29873","1618033.00044","1618800.30775","1619566.68167","1620333.33014","1624233.65668","1624983.27857","1625749.78667","1626516.72019","1627282.86379","1628049.75093","1628816.74567","1629583.55429","1631108.86754"
"Blocked","Male","tile","15","M_ball.wav","space","362.896942766","133","1623466.87342","1630332.45643","1631099.63697","1631866.29873","1632633.48299","1618800.30775","1619566.68167","1620333.33014","1624233.65668","1624983.27857","1625749.78667","1626516.72019","1627282.86379","1628049.75093","1628816.74567","1629583.55429","1631875.6205"
"Blocked","Male","tile","15","M_gnash.wav","None","726.538056275","133","1623466.87342","1630332.45643","1631099.63697","1631866.29873","1632633.48299","1633399.18973","1619566.68167","1620333.33014","1624233.65668","1624983.27857","1625749.78667","1626516.72019","1627282.86379","1628049.75093","1628816.74567","1629583.55429","1632642.92286"
"Blocked","Male","tile","15","M_tile.wav","None","725.376815768","133","1623466.87342","1630332.45643","1631099.63697","1631866.29873","1632633.48299","1633399.18973","1634166.31463","1620333.33014","1624233.65668","1624983.27857","1625749.78667","1626516.72019","1627282.86379","1628049.75093","1628816.74567","1629583.55429","1633408.01652"
"Blocked","Male","tile","15","M_reek.wav","space","686.942722066","133","1623466.87342","1630332.45643","1631099.63697","1631866.29873","1632633.48299","1633399.18973","1634166.31463","1634933.23764","1624233.65668","1624983.27857","1625749.78667","1626516.72019","1627282.86379","1628049.75093","1628816.74567","1629583.55429","1634175.48707"
"Blocked","Male","tile","14","M_depth.wav","None","718.889821903","133","1638049.9689","1630332.45643","1631099.63697","1631866.29873","1632633.48299","1633399.18973","1634166.31463","1634933.23764","1624233.65668","1624983.27857","1625749.78667","1626516.72019","1627282.86379","1628049.75093","1628816.74567","1629583.55429","1634943.31934"
"Blocked","Male","tile","14","M_bluff.wav","None","719.292669673","133","1638049.9689","1630332.45643","1631099.63697","1631866.29873","1632633.48299","1633399.18973","1634166.31463","1634933.23764","1638799.45042","1624983.27857","1625749.78667","1626516.72019","1627282.86379","1628049.75093","1628816.74567","1629583.55429","1638059.52347"
"Blocked","Male","tile","14","M_tile.wav","None","733.912675758","133","1638049.9689","1630332.45643","1631099.63697","1631866.29873","1632633.48299","1633399.18973","1634166.31463","1634933.23764","1638799.45042","1639566.13321","1625749.78667","1626516.72019","1627282.86379","1628049.75093","1628816.74567","1629583.55429","1638808.83619"
"Blocked","Male","tile","14","M_depth.wav","space","486.319559976","133","1638049.9689","1630332.45643","1631099.63697","1631866.29873","1632633.48299","1633399.18973","1634166.31463","1634933.23764","1638799.45042","1639566.13321","1640332.72509","1626516.72019","1627282.86379","1628049.75093","1628816.74567","1629583.55429","1639575.95274"
"Blocked","Male","tile","14","M_jolt.wav","None","728.191494592","133","1638049.9689","1630332.45643","1631099.63697","1631866.29873","1632633.48299","1633399.18973","1634166.31463","1634933.23764","1638799.45042","1639566.13321","1640332.72509","1641099.41128","1627282.86379","1628049.75093","1628816.74567","1629583.55429","1640342.22649"
"Blocked","Male","tile","14","M_tile.wav","None","728.824673686","133","1638049.9689","1630332.45643","1631099.63697","1631866.29873","1632633.48299","1633399.18973","1634166.31463","1634933.23764","1638799.45042","1639566.13321","1640332.72509","1641099.41128","1641866.17599","1628049.75093","1628816.74567","1629583.55429","1641108.7247"
"Blocked","Male","tile","14","M_done.wav","space","466.55219153","133","1638049.9689","1630332.45643","1631099.63697","1631866.29873","1632633.48299","1633399.18973","1634166.31463","1634933.23764","1638799.45042","1639566.13321","1640332.72509","1641099.41128","1641866.17599","1642632.9911","1628816.74567","1629583.55429","1641875.63163"
"Blocked","Male","tile","14","M_tile.wav","None","721.185096074","133","1638049.9689","1630332.45643","1631099.63697","1631866.29873","1632633.48299","1633399.18973","1634166.31463","1634933.23764","1638799.45042","1639566.13321","1640332.72509","1641099.41128","1641866.17599","1642632.9911","1643399.31","1629583.55429","1642643.03386"
"Blocked","Male","tile","14","M_reek.wav","space","452.835887903","133","1638049.9689","1630332.45643","1631099.63697","1631866.29873","1632633.48299","1633399.18973","1634166.31463","1634933.23764","1638799.45042","1639566.13321","1640332.72509","1641099.41128","1641866.17599","1642632.9911","1643399.31","1644148.84964","1643409.32894"
"Blocked","Male","tile","14","M_jolt.wav","None","734.014083282","133","1638049.9689","1644915.55221","1631099.63697","1631866.29873","1632633.48299","1633399.18973","1634166.31463","1634933.23764","1638799.45042","1639566.13321","1640332.72509","1641099.41128","1641866.17599","1642632.9911","1643399.31","1644148.84964","1644157.94757"
"Blocked","Male","tile","14","M_dime.wav","None","731.864118716","133","1638049.9689","1644915.55221","1645682.61311","1631866.29873","1632633.48299","1633399.18973","1634166.31463","1634933.23764","1638799.45042","1639566.13321","1640332.72509","1641099.41128","1641866.17599","1642632.9911","1643399.31","1644148.84964","1644924.23369"
"Blocked","Male","tile","14","M_tile.wav","None","728.118530707","133","1638049.9689","1644915.55221","1645682.61311","1646449.17378","1632633.48299","1633399.18973","1634166.31463","1634933.23764","1638799.45042","1639566.13321","1640332.72509","1641099.41128","1641866.17599","1642632.9911","1643399.31","1644148.84964","1645691.99393"
"Blocked","Male","tile","14","M_bluff.wav","space","451.473377994","133","1638049.9689","1644915.55221","1645682.61311","1646449.17378","1647216.05845","1633399.18973","1634166.31463","1634933.23764","1638799.45042","1639566.13321","1640332.72509","1641099.41128","1641866.17599","1642632.9911","1643399.31","1644148.84964","1646458.58149"
"Blocked","Male","tile","14","M_knife.wav","None","721.613914007","133","1638049.9689","1644915.55221","1645682.61311","1646449.17378","1647216.05845","1647982.83924","1634166.31463","1634933.23764","1638799.45042","1639566.13321","1640332.72509","1641099.41128","1641866.17599","1642632.9911","1643399.31","1644148.84964","1647226.2057"
"Blocked","Male","tile","14","M_priest.wav","None","718.989683664","133","1638049.9689","1644915.55221","1645682.61311","1646449.17378","1647216.05845","1647982.83924","1648749.17823","1634933.23764","1638799.45042","1639566.13321","1640332.72509","1641099.41128","1641866.17599","1642632.9911","1643399.31","1644148.84964","1647992.68814"
"Blocked","Male","tile","14","M_cad.wav","None","720.312310616","133","1638049.9689","1644915.55221","1645682.61311","1646449.17378","1647216.05845","1647982.83924","1648749.17823","1649498.99304","1638799.45042","1639566.13321","1640332.72509","1641099.41128","1641866.17599","1642632.9911","1643399.31","1644148.84964","1648758.57636"
"Blocked","Male","done","19","M_jaw.wav","None","734.474436729","133","1652632.66277","1644915.55221","1645682.61311","1646449.17378","1647216.05845","1647982.83924","1648749.17823","1649498.99304","1638799.45042","1639566.13321","1640332.72509","1641099.41128","1641866.17599","1642632.9911","1643399.31","1644148.84964","1649508.54575"
"Blocked","Male","done","19","M_done.wav","None","720.015817089","133","1652632.66277","1644915.55221","1645682.61311","1646449.17378","1647216.05845","1647982.83924","1648749.17823","1649498.99304","1653382.15078","1639566.13321","1640332.72509","1641099.41128","1641866.17599","1642632.9911","1643399.31","1644148.84964","1652642.41273"
"Blocked","Male","done","19","M_gnash.wav","space","566.255327081","133","1652632.66277","1644915.55221","1645682.61311","1646449.17378","1647216.05845","1647982.83924","1648749.17823","1649498.99304","1653382.15078","1654148.97207","1640332.72509","1641099.41128","1641866.17599","1642632.9911","1643399.31","1644148.84964","1653391.6024"
"Blocked","Male","done","19","M_knife.wav","None","731.018231134","133","1652632.66277","1644915.55221","1645682.61311","1646449.17378","1647216.05845","1647982.83924","1648749.17823","1649498.99304","1653382.15078","1654148.97207","1654915.81624","1641099.41128","1641866.17599","1642632.9911","1643399.31","1644148.84964","1654158.40514"
"Blocked","Male","done","19","M_done.wav","None","728.659886285","133","1652632.66277","1644915.55221","1645682.61311","1646449.17378","1647216.05845","1647982.83924","1648749.17823","1649498.99304","1653382.15078","1654148.97207","1654915.81624","1655681.88285","1641866.17599","1642632.9911","1643399.31","1644148.84964","1654924.79391"
"Blocked","Male","done","19","M_ball.wav","space","499.003855977","133","1652632.66277","1644915.55221","1645682.61311","1646449.17378","1647216.05845","1647982.83924","1648749.17823","1649498.99304","1653382.15078","1654148.97207","1654915.81624","1655681.88285","1656449.26374","1642632.9911","1643399.31","1644148.84964","1655690.79466"
"Blocked","Male","done","19","M_greet.wav","None","721.993265091","133","1652632.66277","1644915.55221","1645682.61311","1646449.17378","1647216.05845","1647982.83924","1648749.17823","1649498.99304","1653382.15078","1654148.97207","1654915.81624","1655681.88285","1656449.26374","1657215.8816","1643399.31","1644148.84964","1656459.32134"
"Blocked","Male","done","19","M_bluff.wav","None","719.07470515","133","1652632.66277","1644915.55221","1645682.61311","1646449.17378","1647216.05845","1647982.83924","1648749.17823","1649498.99304","1653382.15078","1654148.97207","1654915.81624","1655681.88285","1656449.26374","1657215.8816","1657964.97697","1644148.84964","1657226.19488"
"Blocked","Male","done","19","M_jaw.wav","None","735.310430871","133","1652632.66277","1644915.55221","1645682.61311","1646449.17378","1647216.05845","1647982.83924","1648749.17823","1649498.99304","1653382.15078","1654148.97207","1654915.81624","1655681.88285","1656449.26374","1657215.8816","1657964.97697","1658732.17391","1657973.99606"
"Blocked","Male","done","19","M_gnash.wav","None","731.809086632","133","1652632.66277","1659498.38985","1645682.61311","1646449.17378","1647216.05845","1647982.83924","1648749.17823","1649498.99304","1653382.15078","1654148.97207","1654915.81624","1655681.88285","1656449.26374","1657215.8816","1657964.97697","1658732.17391","1658741.58441"
"Blocked","Male","done","19","M_done.wav","None","730.647846125","133","1652632.66277","1659498.38985","1660265.52618","1646449.17378","1647216.05845","1647982.83924","1648749.17823","1649498.99304","1653382.15078","1654148.97207","1654915.81624","1655681.88285","1656449.26374","1657215.8816","1657964.97697","1658732.17391","1659507.11615"
"Blocked","Male","done","19","M_depth.wav","space","474.430138827","133","1652632.66277","1659498.38985","1660265.52618","1661032.43281","1647216.05845","1647982.83924","1648749.17823","1649498.99304","1653382.15078","1654148.97207","1654915.81624","1655681.88285","1656449.26374","1657215.8816","1657964.97697","1658732.17391","1660275.20164"
"Blocked","Male","done","19","M_bluff.wav","None","723.046914558","133","1652632.66277","1659498.38985","1660265.52618","1661032.43281","1661799.2105","1647982.83924","1648749.17823","1649498.99304","1653382.15078","1654148.97207","1654915.81624","1655681.88285","1656449.26374","1657215.8816","1657964.97697","1658732.17391","1661042.29686"
"Blocked","Male","done","19","M_done.wav","None","720.518526621","133","1652632.66277","1659498.38985","1660265.52618","1661032.43281","1661799.2105","1662548.98883","1648749.17823","1649498.99304","1653382.15078","1654148.97207","1654915.81624","1655681.88285","1656449.26374","1657215.8816","1657964.97697","1658732.17391","1661809.16978"
"Blocked","Male","done","19","M_jolt.wav","space","639.538076008","133","1652632.66277","1659498.38985","1660265.52618","1661032.43281","1661799.2105","1662548.98883","1663314.92652","1649498.99304","1653382.15078","1654148.97207","1654915.81624","1655681.88285","1656449.26374","1657215.8816","1657964.97697","1658732.17391","1662558.06295"
"Blocked","Male","done","19","M_bluff.wav","None","733.650190872","133","1652632.66277","1659498.38985","1660265.52618","1661032.43281","1661799.2105","1662548.98883","1663314.92652","1664082.04307","1653382.15078","1654148.97207","1654915.81624","1655681.88285","1656449.26374","1657215.8816","1657964.97697","1658732.17391","1663323.64139"
"Blocked","Male","tile","16","M_dime.wav","None","729.588013142","133","1667215.64787","1659498.38985","1660265.52618","1661032.43281","1661799.2105","1662548.98883","1663314.92652","1664082.04307","1653382.15078","1654148.97207","1654915.81624","1655681.88285","1656449.26374","1657215.8816","1657964.97697","1658732.17391","1664091.63443"
"Blocked","Male","tile","16","M_tile.wav","None","720.218941453","133","1667215.64787","1659498.38985","1660265.52618","1661032.43281","1661799.2105","1662548.98883","1663314.92652","1664082.04307","1667964.97388","1654148.97207","1654915.81624","1655681.88285","1656449.26374","1657215.8816","1657964.97697","1658732.17391","1667225.31591"
"Blocked","Male","tile","16","M_jaw.wav","space","567.522612633","133","1667215.64787","1659498.38985","1660265.52618","1661032.43281","1661799.2105","1662548.98883","1663314.92652","1664082.04307","1667964.97388","1668731.92255","1654915.81624","1655681.88285","1656449.26374","1657215.8816","1657964.97697","1658732.17391","1667973.90053"
"Blocked","Male","tile","16","M_tile.wav","None","731.990878354","133","1667215.64787","1659498.38985","1660265.52618","1661032.43281","1661799.2105","1662548.98883","1663314.92652","1664082.04307","1667964.97388","1668731.92255","1669498.09923","1655681.88285","1656449.26374","1657215.8816","1657964.97697","1658732.17391","1668741.26102"
"Blocked","Male","tile","16","M_priest.wav","space","458.47575739","133","1667215.64787","1659498.38985","1660265.52618","1661032.43281","1661799.2105","1662548.98883","1663314.92652","1664082.04307","1667964.97388","1668731.92255","1669498.09923","1670265.13199","1656449.26374","1657215.8816","1657964.97697","1658732.17391","1669506.90685"
"Blocked","Male","tile","16","M_tile.wav","None","726.639463915","133","1667215.64787","1659498.38985","1660265.52618","1661032.43281","1661799.2105","1662548.98883","1663314.92652","1664082.04307","1667964.97388","1668731.92255","1669498.09923","1670265.13199","1671032.21577","1657215.8816","1657964.97697","1658732.17391","1670274.58052"
"Blocked","Male","tile","16","M_jaw.wav","space","354.785881587","133","1667215.64787","1659498.38985","1660265.52618","1661032.43281","1661799.2105","1662548.98883","1663314.92652","1664082.04307","1667964.97388","1668731.92255","1669498.09923","1670265.13199","1671032.21577","1671798.83517","1657964.97697","1658732.17391","1671042.53615"
"Blocked","Male","tile","16","M_priest.wav","None","719.803726766","133","1667215.64787","1659498.38985","1660265.52618","1661032.43281","1661799.2105","1662548.98883","1663314.92652","1664082.04307","1667964.97388","1668731.92255","1669498.09923","1670265.13199","1671032.21577","1671798.83517","1672548.18344","1658732.17391","1671809.08971"
"Blocked","Male","tile","16","M_reek.wav","None","735.317232669","133","1667215.64787","1659498.38985","1660265.52618","1661032.43281","1661799.2105","1662548.98883","1663314.92652","1664082.04307","1667964.97388","1668731.92255","1669498.09923","1670265.13199","1671032.21577","1671798.83517","1672548.18344","1673314.54717","1672557.77419"
"Blocked","Male","tile","16","M_cave.wav","None","734.011300723","133","1667215.64787","1674081.74905","1660265.52618","1661032.43281","1661799.2105","1662548.98883","1663314.92652","1664082.04307","1667964.97388","1668731.92255","1669498.09923","1670265.13199","1671032.21577","1671798.83517","1672548.18344","1673314.54717","1673323.39405"
"Blocked","Male","tile","16","M_tile.wav","None","730.975874932","133","1667215.64787","1674081.74905","1674848.04506","1661032.43281","1661799.2105","1662548.98883","1663314.92652","1664082.04307","1667964.97388","1668731.92255","1669498.09923","1670265.13199","1671032.21577","1671798.83517","1672548.18344","1673314.54717","1674090.81915"
"Blocked","Male","tile","16","M_reek.wav","space","531.824977952","133","1667215.64787","1674081.74905","1674848.04506","1675615.0769","1661799.2105","1662548.98883","1663314.92652","1664082.04307","1667964.97388","1668731.92255","1669498.09923","1670265.13199","1671032.21577","1671798.83517","1672548.18344","1673314.54717","1674857.37239"
"Blocked","Male","tile","16","M_done.wav","None","724.329967867","133","1667215.64787","1674081.74905","1674848.04506","1675615.0769","1676382.14985","1662548.98883","1663314.92652","1664082.04307","1667964.97388","1668731.92255","1669498.09923","1670265.13199","1671032.21577","1671798.83517","1672548.18344","1673314.54717","1675624.85191"
"Blocked","Male","tile","16","M_ball.wav","None","721.715012565","133","1667215.64787","1674081.74905","1674848.04506","1675615.0769","1676382.14985","1677148.06219","1663314.92652","1664082.04307","1667964.97388","1668731.92255","1669498.09923","1670265.13199","1671032.21577","1671798.83517","1672548.18344","1673314.54717","1676391.93198"
"Blocked","Male","tile","16","M_cave.wav","None","714.487248682","133","1667215.64787","1674081.74905","1674848.04506","1675615.0769","1676382.14985","1677148.06219","1677897.79352","1664082.04307","1667964.97388","1668731.92255","1669498.09923","1670265.13199","1671032.21577","1671798.83517","1672548.18344","1673314.54717","1677163.57724"
"Blocked","Male","tile","16","M_lash.wav","None","735.498405877","133","1667215.64787","1674081.74905","1674848.04506","1675615.0769","1676382.14985","1677148.06219","1677897.79352","1678664.40643","1667964.97388","1668731.92255","1669498.09923","1670265.13199","1671032.21577","1671798.83517","1672548.18344","1673314.54717","1677906.75418"
"Blocked","Male","ball","6","M_done.wav","None","733.136969502","133","1681798.55136","1674081.74905","1674848.04506","1675615.0769","1676382.14985","1677148.06219","1677897.79352","1678664.40643","1667964.97388","1668731.92255","1669498.09923","1670265.13199","1671032.21577","1671798.83517","1672548.18344","1673314.54717","1678673.52384"
"Blocked","Male","ball","6","M_lash.wav","None","720.414336538","133","1681798.55136","1674081.74905","1674848.04506","1675615.0769","1676382.14985","1677148.06219","1677897.79352","1678664.40643","1682547.60777","1668731.92255","1669498.09923","1670265.13199","1671032.21577","1671798.83517","1672548.18344","1673314.54717","1681808.13932"
"Blocked","Male","ball","6","M_greet.wav","None","736.118599889","133","1681798.55136","1674081.74905","1674848.04506","1675615.0769","1676382.14985","1677148.06219","1677897.79352","1678664.40643","1682547.60777","1683314.87427","1669498.09923","1670265.13199","1671032.21577","1671798.83517","1672548.18344","1673314.54717","1682556.61573"
"Blocked","Male","ball","6","M_dime.wav","None","732.461125008","133","1681798.55136","1674081.74905","1674848.04506","1675615.0769","1676382.14985","1677148.06219","1677897.79352","1678664.40643","1682547.60777","1683314.87427","1684081.48718","1670265.13199","1671032.21577","1671798.83517","1672548.18344","1673314.54717","1683324.45234"
"Blocked","Male","ball","6","M_dime.wav","None","730.688038049","133","1681798.55136","1674081.74905","1674848.04506","1675615.0769","1676382.14985","1677148.06219","1677897.79352","1678664.40643","1682547.60777","1683314.87427","1684081.48718","1684848.10226","1671032.21577","1671798.83517","1672548.18344","1673314.54717","1684090.48556"
"Blocked","Male","ball","6","M_ball.wav","None","727.796994383","133","1681798.55136","1674081.74905","1674848.04506","1675615.0769","1676382.14985","1677148.06219","1677897.79352","1678664.40643","1682547.60777","1683314.87427","1684081.48718","1684848.10226","1685614.70497","1671798.83517","1672548.18344","1673314.54717","1684857.67352"
"Blocked","Male","ball","6","M_jolt.wav","space","508.601403795","133","1681798.55136","1674081.74905","1674848.04506","1675615.0769","1676382.14985","1677148.06219","1677897.79352","1678664.40643","1682547.60777","1683314.87427","1684081.48718","1684848.10226","1685614.70497","1686381.79771","1672548.18344","1673314.54717","1685624.30159"
"Blocked","Male","ball","6","M_knife.wav","None","721.705428208","133","1681798.55136","1674081.74905","1674848.04506","1675615.0769","1676382.14985","1677148.06219","1677897.79352","1678664.40643","1682547.60777","1683314.87427","1684081.48718","1684848.10226","1685614.70497","1686381.79771","1687148.24954","1673314.54717","1686391.41844"
"Blocked","Male","ball","6","M_ball.wav","None","719.113351428","133","1681798.55136","1674081.74905","1674848.04506","1675615.0769","1676382.14985","1677148.06219","1677897.79352","1678664.40643","1682547.60777","1683314.87427","1684081.48718","1684848.10226","1685614.70497","1686381.79771","1687148.24954","1687897.97593","1687158.22242"
"Blocked","Male","ball","6","M_romp.wav","space","633.456712589","133","1681798.55136","1688664.02121","1674848.04506","1675615.0769","1676382.14985","1677148.06219","1677897.79352","1678664.40643","1682547.60777","1683314.87427","1684081.48718","1684848.10226","1685614.70497","1686381.79771","1687148.24954","1687897.97593","1687907.32985"
"Blocked","Male","ball","6","M_ball.wav","None","735.375665594","133","1681798.55136","1688664.02121","1689430.84405","1675615.0769","1676382.14985","1677148.06219","1677897.79352","1678664.40643","1682547.60777","1683314.87427","1684081.48718","1684848.10226","1685614.70497","1686381.79771","1687148.24954","1687897.97593","1688673.06812"
"Blocked","Male","ball","6","M_done.wav","space","605.303431279","133","1681798.55136","1688664.02121","1689430.84405","1690197.88763","1676382.14985","1677148.06219","1677897.79352","1678664.40643","1682547.60777","1683314.87427","1684081.48718","1684848.10226","1685614.70497","1686381.79771","1687148.24954","1687897.97593","1689439.43772"
"Blocked","Male","ball","6","M_lash.wav","None","728.854972287","133","1681798.55136","1688664.02121","1689430.84405","1690197.88763","1690964.58711","1677148.06219","1677897.79352","1678664.40643","1682547.60777","1683314.87427","1684081.48718","1684848.10226","1685614.70497","1686381.79771","1687148.24954","1687897.97593","1690207.28607"
"Blocked","Male","ball","6","M_ball.wav","None","726.43201123","133","1681798.55136","1688664.02121","1689430.84405","1690197.88763","1690964.58711","1691731.55464","1677897.79352","1678664.40643","1682547.60777","1683314.87427","1684081.48718","1684848.10226","1685614.70497","1686381.79771","1687148.24954","1687897.97593","1690973.8792"
"Blocked","Male","ball","6","M_park.wav","space","479.340059217","133","1681798.55136","1688664.02121","1689430.84405","1690197.88763","1690964.58711","1691731.55464","1692498.22784","1678664.40643","1682547.60777","1683314.87427","1684081.48718","1684848.10226","1685614.70497","1686381.79771","1687148.24954","1687897.97593","1691741.37603"
"Blocked","Male","ball","6","M_tile.wav","None","720.820894348","133","1681798.55136","1688664.02121","1689430.84405","1690197.88763","1690964.58711","1691731.55464","1692498.22784","1693247.33279","1682547.60777","1683314.87427","1684081.48718","1684848.10226","1685614.70497","1686381.79771","1687148.24954","1687897.97593","1692507.96482"
"Blocked","Male","tile","18","M_romp.wav","None","736.789188464","133","1696381.45639","1688664.02121","1689430.84405","1690197.88763","1690964.58711","1691731.55464","1692498.22784","1693247.33279","1682547.60777","1683314.87427","1684081.48718","1684848.10226","1685614.70497","1686381.79771","1687148.24954","1687897.97593","1693256.16577"
"Blocked","Male","tile","18","M_cad.wav","None","720.373835415","133","1696381.45639","1688664.02121","1689430.84405","1690197.88763","1690964.58711","1691731.55464","1692498.22784","1693247.33279","1697130.99572","1683314.87427","1684081.48718","1684848.10226","1685614.70497","1686381.79771","1687148.24954","1687897.97593","1696391.11453"
"Blocked","Male","tile","18","M_ball.wav","None","735.591775039","133","1696381.45639","1688664.02121","1689430.84405","1690197.88763","1690964.58711","1691731.55464","1692498.22784","1693247.33279","1697130.99572","1697897.27875","1684081.48718","1684848.10226","1685614.70497","1686381.79771","1687148.24954","1687897.97593","1697140.41983"
"Blocked","Male","tile","18","M_jolt.wav","None","734.211951727","133","1696381.45639","1688664.02121","1689430.84405","1690197.88763","1690964.58711","1691731.55464","1692498.22784","1693247.33279","1697130.99572","1697897.27875","1698664.18723","1684848.10226","1685614.70497","1686381.79771","1687148.24954","1687897.97593","1697906.08081"
"Blocked","Male","tile","18","M_tile.wav","None","731.061824015","133","1696381.45639","1688664.02121","1689430.84405","1690197.88763","1690964.58711","1691731.55464","1692498.22784","1693247.33279","1697130.99572","1697897.27875","1698664.18723","1699431.01965","1685614.70497","1686381.79771","1687148.24954","1687897.97593","1698673.72264"
"Blocked","Male","tile","18","M_ball.wav","space","531.821576995","133","1696381.45639","1688664.02121","1689430.84405","1690197.88763","1690964.58711","1691731.55464","1692498.22784","1693247.33279","1697130.99572","1697897.27875","1698664.18723","1699431.01965","1700197.57413","1686381.79771","1687148.24954","1687897.97593","1699440.60453"
"Blocked","Male","tile","18","M_cling.wav","None","725.586741813","133","1696381.45639","1688664.02121","1689430.84405","1690197.88763","1690964.58711","1691731.55464","1692498.22784","1693247.33279","1697130.99572","1697897.27875","1698664.18723","1699431.01965","1700197.57413","1700964.54723","1687148.24954","1687897.97593","1700207.45797"
"Blocked","Male","tile","18","M_tile.wav","None","722.691678908","133","1696381.45639","1688664.02121","1689430.84405","1690197.88763","1690964.58711","1691731.55464","1692498.22784","1693247.33279","1697130.99572","1697897.27875","1698664.18723","1699431.01965","1700197.57413","1700964.54723","1701730.65898","1687897.97593","1700974.65336"
"Blocked","Male","tile","18","M_cling.wav","space","464.75406189","133","1696381.45639","1688664.02121","1689430.84405","1690197.88763","1690964.58711","1691731.55464","1692498.22784","1693247.33279","1697130.99572","1697897.27875","1698664.18723","1699431.01965","1700197.57413","1700964.54723","1701730.65898","1702480.55788","1701739.65303"
"Blocked","Male","tile","18","M_dime.wav","None","735.940209124","133","1696381.45639","1703247.37515","1689430.84405","1690197.88763","1690964.58711","1691731.55464","1692498.22784","1693247.33279","1697130.99572","1697897.27875","1698664.18723","1699431.01965","1700197.57413","1700964.54723","1701730.65898","1702480.55788","1702489.63046"
"Blocked","Male","tile","18","M_tile.wav","None","734.240086167","133","1696381.45639","1703247.37515","1704013.90273","1690197.88763","1690964.58711","1691731.55464","1692498.22784","1693247.33279","1697130.99572","1697897.27875","1698664.18723","1699431.01965","1700197.57413","1700964.54723","1701730.65898","1702480.55788","1703256.49287"
"Blocked","Male","tile","18","M_ball.wav","space","549.565431313","133","1696381.45639","1703247.37515","1704013.90273","1704781.06875","1690964.58711","1691731.55464","1692498.22784","1693247.33279","1697130.99572","1697897.27875","1698664.18723","1699431.01965","1700197.57413","1700964.54723","1701730.65898","1702480.55788","1704022.76229"
"Blocked","Male","tile","18","M_tile.wav","None","728.950505611","133","1696381.45639","1703247.37515","1704013.90273","1704781.06875","1705547.03704","1691731.55464","1692498.22784","1693247.33279","1697130.99572","1697897.27875","1698664.18723","1699431.01965","1700197.57413","1700964.54723","1701730.65898","1702480.55788","1704790.19172"
"Blocked","Male","tile","18","M_knife.wav","space","520.201133331","133","1696381.45639","1703247.37515","1704013.90273","1704781.06875","1705547.03704","1706313.84381","1692498.22784","1693247.33279","1697130.99572","1697897.27875","1698664.18723","1699431.01965","1700197.57413","1700964.54723","1701730.65898","1702480.55788","1705556.11086"
"Blocked","Male","tile","18","M_lash.wav","None","724.328421988","133","1696381.45639","1703247.37515","1704013.90273","1704781.06875","1705547.03704","1706313.84381","1707081.31281","1693247.33279","1697130.99572","1697897.27875","1698664.18723","1699431.01965","1700197.57413","1700964.54723","1701730.65898","1702480.55788","1706322.92875"
"Blocked","Male","tile","18","M_romp.wav","None","720.770190703","133","1696381.45639","1703247.37515","1704013.90273","1704781.06875","1705547.03704","1706313.84381","1707081.31281","1707847.68921","1697130.99572","1697897.27875","1698664.18723","1699431.01965","1700197.57413","1700964.54723","1701730.65898","1702480.55788","1707090.93447"
"Blocked","Male","cave","11","M_cad.wav","None","718.798616901","133","1710964.31257","1703247.37515","1704013.90273","1704781.06875","1705547.03704","1706313.84381","1707081.31281","1707847.68921","1697130.99572","1697897.27875","1698664.18723","1699431.01965","1700197.57413","1700964.54723","1701730.65898","1702480.55788","1707857.43825"
"Blocked","Male","cave","11","M_cave.wav","None","720.124335494","133","1710964.31257","1703247.37515","1704013.90273","1704781.06875","1705547.03704","1706313.84381","1707081.31281","1707847.68921","1711713.36898","1697897.27875","1698664.18723","1699431.01965","1700197.57413","1700964.54723","1701730.65898","1702480.55788","1710974.1828"
"Blocked","Male","cave","11","M_romp.wav","space","617.694325396","133","1710964.31257","1703247.37515","1704013.90273","1704781.06875","1705547.03704","1706313.84381","1707081.31281","1707847.68921","1711713.36898","1712480.62342","1698664.18723","1699431.01965","1700197.57413","1700964.54723","1701730.65898","1702480.55788","1711722.42146"
"Blocked","Male","cave","11","M_jolt.wav","None","732.619110611","133","1710964.31257","1703247.37515","1704013.90273","1704781.06875","1705547.03704","1706313.84381","1707081.31281","1707847.68921","1711713.36898","1712480.62342","1713247.2317","1699431.01965","1700197.57413","1700964.54723","1701730.65898","1702480.55788","1712489.61747"
"Blocked","Male","cave","11","M_tile.wav","None","729.868120747","133","1710964.31257","1703247.37515","1704013.90273","1704781.06875","1705547.03704","1706313.84381","1707081.31281","1707847.68921","1711713.36898","1712480.62342","1713247.2317","1714013.84121","1700197.57413","1700964.54723","1701730.65898","1702480.55788","1713257.24199"
"Blocked","Male","cave","11","M_cave.wav","None","728.576719761","133","1710964.31257","1703247.37515","1704013.90273","1704781.06875","1705547.03704","1706313.84381","1707081.31281","1707847.68921","1711713.36898","1712480.62342","1713247.2317","1714013.84121","1714781.23106","1700964.54723","1701730.65898","1702480.55788","1714023.03374"
"Blocked","Male","cave","11","M_park.wav","space","701.435968513","133","1710964.31257","1703247.37515","1704013.90273","1704781.06875","1705547.03704","1706313.84381","1707081.31281","1707847.68921","1711713.36898","1712480.62342","1713247.2317","1714013.84121","1714781.23106","1715547.24975","1701730.65898","1702480.55788","1714790.55067"
"Blocked","Male","cave","11","M_dime.wav","None","722.82307595","133","1710964.31257","1703247.37515","1704013.90273","1704781.06875","1705547.03704","1706313.84381","1707081.31281","1707847.68921","1711713.36898","1712480.62342","1713247.2317","1714013.84121","1714781.23106","1715547.24975","1716314.10289","1702480.55788","1715556.43425"
"Blocked","Male","cave","11","M_park.wav","None","719.294833834","133","1710964.31257","1703247.37515","1704013.90273","1704781.06875","1705547.03704","1706313.84381","1707081.31281","1707847.68921","1711713.36898","1712480.62342","1713247.2317","1714013.84121","1714781.23106","1715547.24975","1716314.10289","1717063.1794","1716324.10236"
"Blocked","Male","cave","11","M_cad.wav","None","735.759345","133","1710964.31257","1717830.02203","1704013.90273","1704781.06875","1705547.03704","1706313.84381","1707081.31281","1707847.68921","1711713.36898","1712480.62342","1713247.2317","1714013.84121","1714781.23106","1715547.24975","1716314.10289","1717063.1794","1717072.01948"
"Blocked","Male","cave","11","M_cave.wav","None","733.362663188","133","1710964.31257","1717830.02203","1718596.62968","1704781.06875","1705547.03704","1706313.84381","1707081.31281","1707847.68921","1711713.36898","1712480.62342","1713247.2317","1714013.84121","1714781.23106","1715547.24975","1716314.10289","1717063.1794","1717838.9966"
"Blocked","Male","cave","11","M_depth.wav","space","622.268796898","133","1710964.31257","1717830.02203","1718596.62968","1719363.58237","1705547.03704","1706313.84381","1707081.31281","1707847.68921","1711713.36898","1712480.62342","1713247.2317","1714013.84121","1714781.23106","1715547.24975","1716314.10289","1717063.1794","1718605.63053"
"Blocked","Male","cave","11","M_reek.wav","None","727.355500334","133","1710964.31257","1717830.02203","1718596.62968","1719363.58237","1720130.36224","1706313.84381","1707081.31281","1707847.68921","1711713.36898","1712480.62342","1713247.2317","1714013.84121","1714781.23106","1715547.24975","1716314.10289","1717063.1794","1719372.80459"
"Blocked","Male","cave","11","M_cave.wav","None","725.38578161","133","1710964.31257","1717830.02203","1718596.62968","1719363.58237","1720130.36224","1720896.78872","1707081.31281","1707847.68921","1711713.36898","1712480.62342","1713247.2317","1714013.84121","1714781.23106","1715547.24975","1716314.10289","1717063.1794","1720139.37762"
"Blocked","Male","cave","11","M_jolt.wav","space","608.962761238","133","1710964.31257","1717830.02203","1718596.62968","1719363.58237","1720130.36224","1720896.78872","1721663.41431","1707847.68921","1711713.36898","1712480.62342","1713247.2317","1714013.84121","1714781.23106","1715547.24975","1716314.10289","1717063.1794","1720906.8933"
"Blocked","Male","cave","11","M_ball.wav","None","719.99943105","133","1710964.31257","1717830.02203","1718596.62968","1719363.58237","1720130.36224","1720896.78872","1721663.41431","1722413.03836","1711713.36898","1712480.62342","1713247.2317","1714013.84121","1714781.23106","1715547.24975","1716314.10289","1717063.1794","1721672.4671"
"Blocked","Male","ball","4","M_bluff.wav","None","735.054129385","133","1725547.28098","1717830.02203","1718596.62968","1719363.58237","1720130.36224","1720896.78872","1721663.41431","1722413.03836","1711713.36898","1712480.62342","1713247.2317","1714013.84121","1714781.23106","1715547.24975","1716314.10289","1717063.1794","1722421.95975"
"Blocked","Male","ball","4","M_gnash.wav","None","719.379855436","133","1725547.28098","1717830.02203","1718596.62968","1719363.58237","1720130.36224","1720896.78872","1721663.41431","1722413.03836","1726296.6478","1712480.62342","1713247.2317","1714013.84121","1714781.23106","1715547.24975","1716314.10289","1717063.1794","1725557.22603"
"Blocked","Male","ball","4","M_done.wav","None","735.076080426","133","1725547.28098","1717830.02203","1718596.62968","1719363.58237","1720130.36224","1720896.78872","1721663.41431","1722413.03836","1726296.6478","1727063.6076","1713247.2317","1714013.84121","1714781.23106","1715547.24975","1716314.10289","1717063.1794","1726305.89228"
"Blocked","Male","ball","4","M_dime.wav","None","732.507191366","133","1725547.28098","1717830.02203","1718596.62968","1719363.58237","1720130.36224","1720896.78872","1721663.41431","1722413.03836","1726296.6478","1727063.6076","1727829.70234","1714013.84121","1714781.23106","1715547.24975","1716314.10289","1717063.1794","1727072.96183"
"Blocked","Male","ball","4","M_jaw.wav","None","731.291846023","133","1725547.28098","1717830.02203","1718596.62968","1719363.58237","1720130.36224","1720896.78872","1721663.41431","1722413.03836","1726296.6478","1727063.6076","1727829.70234","1728596.77592","1714781.23106","1715547.24975","1716314.10289","1717063.1794","1727838.70938"
"Blocked","Male","ball","4","M_depth.wav","None","728.013412911","133","1725547.28098","1717830.02203","1718596.62968","1719363.58237","1720130.36224","1720896.78872","1721663.41431","1722413.03836","1726296.6478","1727063.6076","1727829.70234","1728596.77592","1729363.2834","1715547.24975","1716314.10289","1717063.1794","1728606.47395"
"Blocked","Male","ball","4","M_ball.wav","None","726.005048025","133","1725547.28098","1717830.02203","1718596.62968","1719363.58237","1720130.36224","1720896.78872","1721663.41431","1722413.03836","1726296.6478","1727063.6076","1727829.70234","1728596.77592","1729363.2834","1730129.52315","1716314.10289","1717063.1794","1729372.66392"
"Blocked","Male","ball","4","M_romp.wav","space","465.205758461","133","1725547.28098","1717830.02203","1718596.62968","1719363.58237","1720130.36224","1720896.78872","1721663.41431","1722413.03836","1726296.6478","1727063.6076","1727829.70234","1728596.77592","1729363.2834","1730129.52315","1730896.94516","1717063.1794","1730138.33262"
"Blocked","Male","ball","4","M_ball.wav","None","719.833407202","133","1725547.28098","1717830.02203","1718596.62968","1719363.58237","1720130.36224","1720896.78872","1721663.41431","1722413.03836","1726296.6478","1727063.6076","1727829.70234","1728596.77592","1729363.2834","1730129.52315","1730896.94516","1731646.29312","1730907.06242"
"Blocked","Male","ball","4","M_cling.wav","space","499.515531352","133","1725547.28098","1732413.40256","1718596.62968","1719363.58237","1720130.36224","1720896.78872","1721663.41431","1722413.03836","1726296.6478","1727063.6076","1727829.70234","1728596.77592","1729363.2834","1730129.52315","1730896.94516","1731646.29312","1731655.98806"
"Blocked","Male","ball","4","M_ball.wav","None","732.06971644","133","1725547.28098","1732413.40256","1733179.60644","1719363.58237","1720130.36224","1720896.78872","1721663.41431","1722413.03836","1726296.6478","1727063.6076","1727829.70234","1728596.77592","1729363.2834","1730129.52315","1730896.94516","1731646.29312","1732422.66342"
"Blocked","Male","ball","4","M_tile.wav","space","719.047498307","133","1725547.28098","1732413.40256","1733179.60644","1733946.54553","1720130.36224","1720896.78872","1721663.41431","1722413.03836","1726296.6478","1727063.6076","1727829.70234","1728596.77592","1729363.2834","1730129.52315","1730896.94516","1731646.29312","1733188.42272"
"Blocked","Male","ball","4","M_lash.wav","None","727.004902204","133","1725547.28098","1732413.40256","1733179.60644","1733946.54553","1734713.20389","1720896.78872","1721663.41431","1722413.03836","1726296.6478","1727063.6076","1727829.70234","1728596.77592","1729363.2834","1730129.52315","1730896.94516","1731646.29312","1733955.93655"
"Blocked","Male","ball","4","M_park.wav","None","724.414680386","133","1725547.28098","1732413.40256","1733179.60644","1733946.54553","1734713.20389","1735480.29168","1721663.41431","1722413.03836","1726296.6478","1727063.6076","1727829.70234","1728596.77592","1729363.2834","1730129.52315","1730896.94516","1731646.29312","1734722.81844"
"Blocked","Male","ball","4","M_ball.wav","None","721.435523359","133","1725547.28098","1732413.40256","1733179.60644","1733946.54553","1734713.20389","1735480.29168","1736247.51737","1722413.03836","1726296.6478","1727063.6076","1727829.70234","1728596.77592","1729363.2834","1730129.52315","1730896.94516","1731646.29312","1735490.54591"
"Blocked","Male","ball","4","M_priest.wav","space","466.405026847","133","1725547.28098","1732413.40256","1733179.60644","1733946.54553","1734713.20389","1735480.29168","1736247.51737","1736995.9573","1726296.6478","1727063.6076","1727829.70234","1728596.77592","1729363.2834","1730129.52315","1730896.94516","1731646.29312","1736256.98445"
"Blocked","Male","cave","9","M_knife.wav","None","735.399162513","133","1740130.33719","1732413.40256","1733179.60644","1733946.54553","1734713.20389","1735480.29168","1736247.51737","1736995.9573","1726296.6478","1727063.6076","1727829.70234","1728596.77592","1729363.2834","1730129.52315","1730896.94516","1731646.29312","1737004.90374"
"Blocked","Male","cave","9","M_cave.wav","None","719.980571768","133","1740130.33719","1732413.40256","1733179.60644","1733946.54553","1734713.20389","1735480.29168","1736247.51737","1736995.9573","1740879.40721","1727063.6076","1727829.70234","1728596.77592","1729363.2834","1730129.52315","1730896.94516","1731646.29312","1740139.9366"
"Blocked","Male","cave","9","M_knife.wav","space","586.324754171","133","1740130.33719","1732413.40256","1733179.60644","1733946.54553","1734713.20389","1735480.29168","1736247.51737","1736995.9573","1740879.40721","1741646.33548","1727829.70234","1728596.77592","1729363.2834","1730129.52315","1730896.94516","1731646.29312","1740888.89933"
"Blocked","Male","cave","9","M_cave.wav","None","731.125512859","133","1740130.33719","1732413.40256","1733179.60644","1733946.54553","1734713.20389","1735480.29168","1736247.51737","1736995.9573","1740879.40721","1741646.33548","1742412.97312","1728596.77592","1729363.2834","1730129.52315","1730896.94516","1731646.29312","1741656.35349"
"Blocked","Male","cave","9","M_done.wav","space","588.784815627","133","1740130.33719","1732413.40256","1733179.60644","1733946.54553","1734713.20389","1735480.29168","1736247.51737","1736995.9573","1740879.40721","1741646.33548","1742412.97312","1743179.66425","1729363.2834","1730129.52315","1730896.94516","1731646.29312","1742422.39228"
"Blocked","Male","cave","9","M_cave.wav","None","726.841969881","133","1740130.33719","1732413.40256","1733179.60644","1733946.54553","1734713.20389","1735480.29168","1736247.51737","1736995.9573","1740879.40721","1741646.33548","1742412.97312","1743179.66425","1743945.86566","1730129.52315","1730896.94516","1731646.29312","1743188.83793"
"Blocked","Male","cave","9","M_greet.wav","space","440.211261739","133","1740130.33719","1732413.40256","1733179.60644","1733946.54553","1734713.20389","1735480.29168","1736247.51737","1736995.9573","1740879.40721","1741646.33548","1742412.97312","1743179.66425","1743945.86566","1744713.18565","1730896.94516","1731646.29312","1743954.91938"
"Blocked","Male","cave","9","M_cave.wav","None","720.475861337","133","1740130.33719","1732413.40256","1733179.60644","1733946.54553","1734713.20389","1735480.29168","1736247.51737","1736995.9573","1740879.40721","1741646.33548","1742412.97312","1743179.66425","1743945.86566","1744713.18565","1745462.78372","1731646.29312","1744723.37371"
"Blocked","Male","cave","9","M_reek.wav","space","435.589796398","133","1740130.33719","1732413.40256","1733179.60644","1733946.54553","1734713.20389","1735480.29168","1736247.51737","1736995.9573","1740879.40721","1741646.33548","1742412.97312","1743179.66425","1743945.86566","1744713.18565","1745462.78372","1746229.61646","1745471.51251"
"Blocked","Male","cave","9","M_romp.wav","None","732.640443253","133","1740130.33719","1746996.1765","1733179.60644","1733946.54553","1734713.20389","1735480.29168","1736247.51737","1736995.9573","1740879.40721","1741646.33548","1742412.97312","1743179.66425","1743945.86566","1744713.18565","1745462.78372","1746229.61646","1746239.24863"
"Blocked","Male","cave","9","M_romp.wav","None","730.918987771","133","1740130.33719","1746996.1765","1747762.52415","1733946.54553","1734713.20389","1735480.29168","1736247.51737","1736995.9573","1740879.40721","1741646.33548","1742412.97312","1743179.66425","1743945.86566","1744713.18565","1745462.78372","1746229.61646","1747005.62874"
"Blocked","Male","cave","9","M_cad.wav","None","729.269568576","133","1740130.33719","1746996.1765","1747762.52415","1748529.08141","1734713.20389","1735480.29168","1736247.51737","1736995.9573","1740879.40721","1741646.33548","1742412.97312","1743179.66425","1743945.86566","1744713.18565","1745462.78372","1746229.61646","1747771.55684"
"Blocked","Male","cave","9","M_depth.wav","None","727.658795542","133","1740130.33719","1746996.1765","1747762.52415","1748529.08141","1749296.15313","1735480.29168","1736247.51737","1736995.9573","1740879.40721","1741646.33548","1742412.97312","1743179.66425","1743945.86566","1744713.18565","1745462.78372","1746229.61646","1748537.85038"
"Blocked","Male","cave","9","M_done.wav","None","724.652431672","133","1740130.33719","1746996.1765","1747762.52415","1748529.08141","1749296.15313","1750063.26813","1736247.51737","1736995.9573","1740879.40721","1741646.33548","1742412.97312","1743179.66425","1743945.86566","1744713.18565","1745462.78372","1746229.61646","1749305.98874"
"Blocked","Male","cave","9","M_ball.wav","None","722.176602576","133","1740130.33719","1746996.1765","1747762.52415","1748529.08141","1749296.15313","1750063.26813","1750829.8458","1736995.9573","1740879.40721","1741646.33548","1742412.97312","1743179.66425","1743945.86566","1744713.18565","1745462.78372","1746229.61646","1750073.15321"
"Blocked","Male","cave","9","M_park.wav","None","719.950891566","133","1740130.33719","1746996.1765","1747762.52415","1748529.08141","1749296.15313","1750063.26813","1750829.8458","1751578.89448","1740879.40721","1741646.33548","1742412.97312","1743179.66425","1743945.86566","1744713.18565","1745462.78372","1746229.61646","1750839.91421"
"Blocked","Male","ball","1","M_bluff.wav","None","736.596885137","133","1754713.03941","1746996.1765","1747762.52415","1748529.08141","1749296.15313","1750063.26813","1750829.8458","1751578.89448","1740879.40721","1741646.33548","1742412.97312","1743179.66425","1743945.86566","1744713.18565","1745462.78372","1746229.61646","1751587.96737"
"Blocked","Male","ball","1","M_jaw.wav","None","720.193898771","133","1754713.03941","1746996.1765","1747762.52415","1748529.08141","1749296.15313","1750063.26813","1750829.8458","1751578.89448","1755462.6953","1741646.33548","1742412.97312","1743179.66425","1743945.86566","1744713.18565","1745462.78372","1746229.61646","1754722.83452"
"Blocked","Male","ball","1","M_cave.wav","None","735.666903318","133","1754713.03941","1746996.1765","1747762.52415","1748529.08141","1749296.15313","1750063.26813","1750829.8458","1751578.89448","1755462.6953","1756229.2504","1742412.97312","1743179.66425","1743945.86566","1744713.18565","1745462.78372","1746229.61646","1755472.03408"
"Blocked","Male","ball","1","M_ball.wav","None","734.07097056","133","1754713.03941","1746996.1765","1747762.52415","1748529.08141","1749296.15313","1750063.26813","1750829.8458","1751578.89448","1755462.6953","1756229.2504","1756995.87444","1743179.66425","1743945.86566","1744713.18565","1745462.78372","1746229.61646","1756238.4485"
"Blocked","Male","ball","1","M_lash.wav","space","493.475287454","133","1754713.03941","1746996.1765","1747762.52415","1748529.08141","1749296.15313","1750063.26813","1750829.8458","1751578.89448","1755462.6953","1756229.2504","1756995.87444","1757762.50034","1743945.86566","1744713.18565","1745462.78372","1746229.61646","1757005.27072"
"Blocked","Male","ball","1","M_park.wav","None","728.691421566","133","1754713.03941","1746996.1765","1747762.52415","1748529.08141","1749296.15313","1750063.26813","1750829.8458","1751578.89448","1755462.6953","1756229.2504","1756995.87444","1757762.50034","1758529.19333","1744713.18565","1745462.78372","1746229.61646","1757771.86199"
"Blocked","Male","ball","1","M_cling.wav","None","726.84846248","133","1754713.03941","1746996.1765","1747762.52415","1748529.08141","1749296.15313","1750063.26813","1750829.8458","1751578.89448","1755462.6953","1756229.2504","1756995.87444","1757762.50034","1758529.19333","1759295.40246","1745462.78372","1746229.61646","1758538.28322"
"Blocked","Male","ball","1","M_ball.wav","None","726.206935826","133","1754713.03941","1746996.1765","1747762.52415","1748529.08141","1749296.15313","1750063.26813","1750829.8458","1751578.89448","1755462.6953","1756229.2504","1756995.87444","1757762.50034","1758529.19333","1759295.40246","1760062.22716","1746229.61646","1759304.10559"
"Blocked","Male","ball","1","M_park.wav","space","379.697211785","133","1754713.03941","1746996.1765","1747762.52415","1748529.08141","1749296.15313","1750063.26813","1750829.8458","1751578.89448","1755462.6953","1756229.2504","1756995.87444","1757762.50034","1758529.19333","1759295.40246","1760062.22716","1760828.85707","1760071.01994"
"Blocked","Male","ball","1","M_ball.wav","None","722.909952514","133","1754713.03941","1761596.17458","1747762.52415","1748529.08141","1749296.15313","1750063.26813","1750829.8458","1751578.89448","1755462.6953","1756229.2504","1756995.87444","1757762.50034","1758529.19333","1759295.40246","1760062.22716","1760828.85707","1760837.70396"
"Blocked","Male","ball","1","M_priest.wav","space","588.428961579","133","1754713.03941","1761596.17458","1762345.25419","1748529.08141","1749296.15313","1750063.26813","1750829.8458","1751578.89448","1755462.6953","1756229.2504","1756995.87444","1757762.50034","1758529.19333","1759295.40246","1760062.22716","1760828.85707","1761606.19137"
"Blocked","Male","ball","1","M_depth.wav","None","734.990131226","133","1754713.03941","1761596.17458","1762345.25419","1763112.32343","1749296.15313","1750063.26813","1750829.8458","1751578.89448","1755462.6953","1756229.2504","1756995.87444","1757762.50034","1758529.19333","1759295.40246","1760062.22716","1760828.85707","1762353.98421"
"Blocked","Male","ball","1","M_ball.wav","None","731.887615635","133","1754713.03941","1761596.17458","1762345.25419","1763112.32343","1763878.58791","1750063.26813","1750829.8458","1751578.89448","1755462.6953","1756229.2504","1756995.87444","1757762.50034","1758529.19333","1759295.40246","1760062.22716","1760828.85707","1763121.76732"
"Blocked","Male","ball","1","M_cad.wav","space","547.080636374","133","1754713.03941","1761596.17458","1762345.25419","1763112.32343","1763878.58791","1764645.6686","1750829.8458","1751578.89448","1755462.6953","1756229.2504","1756995.87444","1757762.50034","1758529.19333","1759295.40246","1760062.22716","1760828.85707","1763887.41006"
"Blocked","Male","ball","1","M_knife.wav","None","726.976149483","133","1754713.03941","1761596.17458","1762345.25419","1763112.32343","1763878.58791","1764645.6686","1765412.21937","1751578.89448","1755462.6953","1756229.2504","1756995.87444","1757762.50034","1758529.19333","1759295.40246","1760062.22716","1760828.85707","1764655.06488"
"Blocked","Male","ball","1","M_cling.wav","None","724.892038037","133","1754713.03941","1761596.17458","1762345.25419","1763112.32343","1763878.58791","1764645.6686","1765412.21937","1766178.72036","1755462.6953","1756229.2504","1756995.87444","1757762.50034","1758529.19333","1759295.40246","1760062.22716","1760828.85707","1765421.93069"
"Blocked","Male","cave","10","M_greet.wav","None","724.163943902","133","1769295.90425","1761596.17458","1762345.25419","1763112.32343","1763878.58791","1764645.6686","1765412.21937","1766178.72036","1755462.6953","1756229.2504","1756995.87444","1757762.50034","1758529.19333","1759295.40246","1760062.22716","1760828.85707","1766187.59847"
"Blocked","Male","cave","10","M_cave.wav","None","719.336262671","133","1769295.90425","1761596.17458","1762345.25419","1763112.32343","1763878.58791","1764645.6686","1765412.21937","1766178.72036","1770045.41483","1756229.2504","1756995.87444","1757762.50034","1758529.19333","1759295.40246","1760062.22716","1760828.85707","1769305.97761"
"Blocked","Male","cave","10","M_priest.wav","None","734.814213938","133","1769295.90425","1761596.17458","1762345.25419","1763112.32343","1763878.58791","1764645.6686","1765412.21937","1766178.72036","1770045.41483","1770812.29672","1756995.87444","1757762.50034","1758529.19333","1759295.40246","1760062.22716","1760828.85707","1770054.80771"
"Blocked","Male","cave","10","M_cave.wav","space","0.0231877202168","133","1769295.90425","1761596.17458","1762345.25419","1763112.32343","1763878.58791","1764645.6686","1765412.21937","1766178.72036","1770045.41483","1770812.29672","1771578.81812","1757762.50034","1758529.19333","1759295.40246","1760062.22716","1760828.85707","1770821.94776"
"Blocked","Male","cave","10","M_jolt.wav","space","526.018775301","133","1769295.90425","1761596.17458","1762345.25419","1763112.32343","1763878.58791","1764645.6686","1765412.21937","1766178.72036","1770045.41483","1770812.29672","1771578.81812","1772344.99727","1758529.19333","1759295.40246","1760062.22716","1760828.85707","1771588.27376"
"Blocked","Male","cave","10","M_tile.wav","None","727.420425974","133","1769295.90425","1761596.17458","1762345.25419","1763112.32343","1763878.58791","1764645.6686","1765412.21937","1766178.72036","1770045.41483","1770812.29672","1771578.81812","1772344.99727","1773112.02818","1759295.40246","1760062.22716","1760828.85707","1772353.93505"
"Blocked","Male","cave","10","M_cave.wav","None","724.896366359","133","1769295.90425","1761596.17458","1762345.25419","1763112.32343","1763878.58791","1764645.6686","1765412.21937","1766178.72036","1770045.41483","1770812.29672","1771578.81812","1772344.99727","1773112.02818","1773879.0597","1760062.22716","1760828.85707","1773121.15455"
"Blocked","Male","cave","10","M_park.wav","space","641.424009926","133","1769295.90425","1761596.17458","1762345.25419","1763112.32343","1763878.58791","1764645.6686","1765412.21937","1766178.72036","1770045.41483","1770812.29672","1771578.81812","1772344.99727","1773112.02818","1773879.0597","1774645.78175","1760828.85707","1773888.79854"
"Blocked","Male","cave","10","M_done.wav","None","718.509852653","133","1769295.90425","1761596.17458","1762345.25419","1763112.32343","1763878.58791","1764645.6686","1765412.21937","1766178.72036","1770045.41483","1770812.29672","1771578.81812","1772344.99727","1773112.02818","1773879.0597","1774645.78175","1775395.27101","1774655.65663"
"Blocked","Male","cave","10","M_lash.wav","None","733.689455315","133","1769295.90425","1776162.0181","1762345.25419","1763112.32343","1763878.58791","1764645.6686","1765412.21937","1766178.72036","1770045.41483","1770812.29672","1771578.81812","1772344.99727","1773112.02818","1773879.0597","1774645.78175","1775395.27101","1775405.08157"
"Blocked","Male","cave","10","M_knife.wav","None","732.569952728","133","1769295.90425","1776162.0181","1776928.96213","1763112.32343","1763878.58791","1764645.6686","1765412.21937","1766178.72036","1770045.41483","1770812.29672","1771578.81812","1772344.99727","1773112.02818","1773879.0597","1774645.78175","1775395.27101","1776171.20661"
"Blocked","Male","cave","10","M_lash.wav","None","729.757128865","133","1769295.90425","1776162.0181","1776928.96213","1777695.24887","1763878.58791","1764645.6686","1765412.21937","1766178.72036","1770045.41483","1770812.29672","1771578.81812","1772344.99727","1773112.02818","1773879.0597","1774645.78175","1775395.27101","1776938.66232"
"Blocked","Male","cave","10","M_cave.wav","None","728.356900276","133","1769295.90425","1776162.0181","1776928.96213","1777695.24887","1778461.3433","1764645.6686","1765412.21937","1766178.72036","1770045.41483","1770812.29672","1771578.81812","1772344.99727","1773112.02818","1773879.0597","1774645.78175","1775395.27101","1777704.69802"
"Blocked","Male","cave","10","M_depth.wav","space","723.464602605","133","1769295.90425","1776162.0181","1776928.96213","1777695.24887","1778461.3433","1779228.96998","1765412.21937","1766178.72036","1770045.41483","1770812.29672","1771578.81812","1772344.99727","1773112.02818","1773879.0597","1774645.78175","1775395.27101","1778470.63818"
"Blocked","Male","cave","10","M_lash.wav","None","722.593053826","133","1769295.90425","1776162.0181","1776928.96213","1777695.24887","1778461.3433","1779228.96998","1779995.60608","1766178.72036","1770045.41483","1770812.29672","1771578.81812","1772344.99727","1773112.02818","1773879.0597","1774645.78175","1775395.27101","1779238.93482"
"Blocked","Male","cave","10","M_cad.wav","None","721.248785034","133","1769295.90425","1776162.0181","1776928.96213","1777695.24887","1778461.3433","1779228.96998","1779995.60608","1780762.39831","1770045.41483","1770812.29672","1771578.81812","1772344.99727","1773112.02818","1773879.0597","1774645.78175","1775395.27101","1780005.34925"
"Blocked","Male","done","22","M_dime.wav","None","718.881165143","133","1783878.89523","1776162.0181","1776928.96213","1777695.24887","1778461.3433","1779228.96998","1779995.60608","1780762.39831","1770045.41483","1770812.29672","1771578.81812","1772344.99727","1773112.02818","1773879.0597","1774645.78175","1775395.27101","1780772.51898"
"Blocked","Male","done","22","M_done.wav","None","720.270263613","133","1783878.89523","1776162.0181","1776928.96213","1777695.24887","1778461.3433","1779228.96998","1779995.60608","1780762.39831","1784627.90898","1770812.29672","1771578.81812","1772344.99727","1773112.02818","1773879.0597","1774645.78175","1775395.27101","1783888.52029"
"Blocked","Male","done","22","M_bluff.wav","space","596.892475733","133","1783878.89523","1776162.0181","1776928.96213","1777695.24887","1778461.3433","1779228.96998","1779995.60608","1780762.39831","1784627.90898","1785395.03944","1771578.81812","1772344.99727","1773112.02818","1773879.0597","1774645.78175","1775395.27101","1784637.03009"
"Blocked","Male","done","22","M_park.wav","None","731.993042398","133","1783878.89523","1776162.0181","1776928.96213","1777695.24887","1778461.3433","1779228.96998","1779995.60608","1780762.39831","1784627.90898","1785395.03944","1786161.90494","1772344.99727","1773112.02818","1773879.0597","1774645.78175","1775395.27101","1785404.84691"
"Blocked","Male","done","22","M_park.wav","None","729.881415027","133","1783878.89523","1776162.0181","1776928.96213","1777695.24887","1778461.3433","1779228.96998","1779995.60608","1780762.39831","1784627.90898","1785395.03944","1786161.90494","1786928.27639","1773112.02818","1773879.0597","1774645.78175","1775395.27101","1786171.43849"
"Blocked","Male","done","22","M_depth.wav","None","729.418279021","133","1783878.89523","1776162.0181","1776928.96213","1777695.24887","1778461.3433","1779228.96998","1779995.60608","1780762.39831","1784627.90898","1785395.03944","1786161.90494","1786928.27639","1787694.57148","1773879.0597","1774645.78175","1775395.27101","1786937.27786"
"Blocked","Male","done","22","M_reek.wav","None","727.918807068","133","1783878.89523","1776162.0181","1776928.96213","1777695.24887","1778461.3433","1779228.96998","1779995.60608","1780762.39831","1784627.90898","1785395.03944","1786161.90494","1786928.27639","1787694.57148","1788461.70503","1774645.78175","1775395.27101","1787703.60294"
"Blocked","Male","done","22","M_done.wav","None","725.466165808","133","1783878.89523","1776162.0181","1776928.96213","1777695.24887","1778461.3433","1779228.96998","1779995.60608","1780762.39831","1784627.90898","1785395.03944","1786161.90494","1786928.27639","1787694.57148","1788461.70503","1789227.94509","1775395.27101","1788471.02278"
"Blocked","Male","done","22","M_cad.wav","space","676.765481359","133","1783878.89523","1776162.0181","1776928.96213","1777695.24887","1778461.3433","1779228.96998","1779995.60608","1780762.39831","1784627.90898","1785395.03944","1786161.90494","1786928.27639","1787694.57148","1788461.70503","1789227.94509","1789994.7738","1789236.98273"
"Blocked","Male","done","22","M_reek.wav","None","726.255475311","133","1783878.89523","1790744.71598","1776928.96213","1777695.24887","1778461.3433","1779228.96998","1779995.60608","1780762.39831","1784627.90898","1785395.03944","1786161.90494","1786928.27639","1787694.57148","1788461.70503","1789227.94509","1789994.7738","1789998.30792"
"Blocked","Male","done","22","M_cave.wav","None","735.15430023","133","1783878.89523","1790744.71598","1791511.40897","1777695.24887","1778461.3433","1779228.96998","1779995.60608","1780762.39831","1784627.90898","1785395.03944","1786161.90494","1786928.27639","1787694.57148","1788461.70503","1789227.94509","1789994.7738","1790754.25046"
"Blocked","Male","done","22","M_dime.wav","None","733.418004471","133","1783878.89523","1790744.71598","1791511.40897","1792278.33507","1778461.3433","1779228.96998","1779995.60608","1780762.39831","1784627.90898","1785395.03944","1786161.90494","1786928.27639","1787694.57148","1788461.70503","1789227.94509","1789994.7738","1791520.9116"
"Blocked","Male","done","22","M_done.wav","None","731.044201297","133","1783878.89523","1790744.71598","1791511.40897","1792278.33507","1793044.95262","1779228.96998","1779995.60608","1780762.39831","1784627.90898","1785395.03944","1786161.90494","1786928.27639","1787694.57148","1788461.70503","1789227.94509","1789994.7738","1792288.10297"
"Blocked","Male","done","22","M_gnash.wav","space","675.31485809","133","1783878.89523","1790744.71598","1791511.40897","1792278.33507","1793044.95262","1793810.91937","1779995.60608","1780762.39831","1784627.90898","1785395.03944","1786161.90494","1786928.27639","1787694.57148","1788461.70503","1789227.94509","1789994.7738","1793054.3489"
"Blocked","Male","done","22","M_done.wav","None","727.701770142","133","1783878.89523","1790744.71598","1791511.40897","1792278.33507","1793044.95262","1793810.91937","1794578.14691","1780762.39831","1784627.90898","1785395.03944","1786161.90494","1786928.27639","1787694.57148","1788461.70503","1789227.94509","1789994.7738","1793819.68773"
"Blocked","Male","done","22","M_park.wav","None","725.47760501","133","1783878.89523","1790744.71598","1791511.40897","1792278.33507","1793044.95262","1793810.91937","1794578.14691","1795345.13856","1784627.90898","1785395.03944","1786161.90494","1786928.27639","1787694.57148","1788461.70503","1789227.94509","1789994.7738","1794587.26432"
"Blocked","Male","ball","5","M_bluff.wav","space","14.7362537682","133","1798461.64289","1790744.71598","1791511.40897","1792278.33507","1793044.95262","1793810.91937","1794578.14691","1795345.13856","1784627.90898","1785395.03944","1786161.90494","1786928.27639","1787694.57148","1788461.70503","1789227.94509","1789994.7738","1795354.92624"
"Blocked","Male","ball","5","M_knife.wav","None","719.877927448","133","1798461.64289","1790744.71598","1791511.40897","1792278.33507","1793044.95262","1793810.91937","1794578.14691","1795345.13856","1799227.69682","1785395.03944","1786161.90494","1786928.27639","1787694.57148","1788461.70503","1789227.94509","1789994.7738","1798471.78921"
"Blocked","Male","ball","5","M_priest.wav","None","722.591198864","133","1798461.64289","1790744.71598","1791511.40897","1792278.33507","1793044.95262","1793810.91937","1794578.14691","1795345.13856","1799227.69682","1799977.6622","1786161.90494","1786928.27639","1787694.57148","1788461.70503","1789227.94509","1789994.7738","1799234.3384"
"Blocked","Male","ball","5","M_cling.wav","None","734.941900824","133","1798461.64289","1790744.71598","1791511.40897","1792278.33507","1793044.95262","1793810.91937","1794578.14691","1795345.13856","1799227.69682","1799977.6622","1800744.5546","1786928.27639","1787694.57148","1788461.70503","1789227.94509","1789994.7738","1799986.99386"
"Blocked","Male","ball","5","M_ball.wav","None","732.707842253","133","1798461.64289","1790744.71598","1791511.40897","1792278.33507","1793044.95262","1793810.91937","1794578.14691","1795345.13856","1799227.69682","1799977.6622","1800744.5546","1801511.13969","1787694.57148","1788461.70503","1789227.94509","1789994.7738","1800753.94253"
"Blocked","Male","ball","5","M_tile.wav","space","648.78719009","133","1798461.64289","1790744.71598","1791511.40897","1792278.33507","1793044.95262","1793810.91937","1794578.14691","1795345.13856","1799227.69682","1799977.6622","1800744.5546","1801511.13969","1802277.95943","1788461.70503","1789227.94509","1789994.7738","1801520.59996"
"Blocked","Male","ball","5","M_ball.wav","None","727.900875267","133","1798461.64289","1790744.71598","1791511.40897","1792278.33507","1793044.95262","1793810.91937","1794578.14691","1795345.13856","1799227.69682","1799977.6622","1800744.5546","1801511.13969","1802277.95943","1803044.99591","1789227.94509","1789994.7738","1802287.53441"
"Blocked","Male","ball","5","M_lash.wav","space","458.90333876","133","1798461.64289","1790744.71598","1791511.40897","1792278.33507","1793044.95262","1793810.91937","1794578.14691","1795345.13856","1799227.69682","1799977.6622","1800744.5546","1801511.13969","1802277.95943","1803044.99591","1803811.57976","1789994.7738","1803054.47133"
"Blocked","Male","ball","5","M_gnash.wav","None","722.009960213","133","1798461.64289","1790744.71598","1791511.40897","1792278.33507","1793044.95262","1793810.91937","1794578.14691","1795345.13856","1799227.69682","1799977.6622","1800744.5546","1801511.13969","1802277.95943","1803044.99591","1803811.57976","1804578.26285","1803821.54831"
"Blocked","Male","ball","5","M_ball.wav","None","720.570776262","133","1798461.64289","1805344.60153","1791511.40897","1792278.33507","1793044.95262","1793810.91937","1794578.14691","1795345.13856","1799227.69682","1799977.6622","1800744.5546","1801511.13969","1802277.95943","1803044.99591","1803811.57976","1804578.26285","1804587.98407"
"Blocked","Male","ball","5","M_depth.wav","space","527.576989378","133","1798461.64289","1805344.60153","1806094.38758","1792278.33507","1793044.95262","1793810.91937","1794578.14691","1795345.13856","1799227.69682","1799977.6622","1800744.5546","1801511.13969","1802277.95943","1803044.99591","1803811.57976","1804578.26285","1805353.74089"
"Blocked","Male","ball","5","M_gnash.wav","None","733.516011271","133","1798461.64289","1805344.60153","1806094.38758","1806860.98844","1793044.95262","1793810.91937","1794578.14691","1795345.13856","1799227.69682","1799977.6622","1800744.5546","1801511.13969","1802277.95943","1803044.99591","1803811.57976","1804578.26285","1806103.80643"
"Blocked","Male","ball","5","M_ball.wav","None","731.984385638","133","1798461.64289","1805344.60153","1806094.38758","1806860.98844","1807627.73955","1793810.91937","1794578.14691","1795345.13856","1799227.69682","1799977.6622","1800744.5546","1801511.13969","1802277.95943","1803044.99591","1803811.57976","1804578.26285","1806870.45026"
"Blocked","Male","ball","5","M_tile.wav","space","540.124632418","133","1798461.64289","1805344.60153","1806094.38758","1806860.98844","1807627.73955","1808394.3435","1794578.14691","1795345.13856","1799227.69682","1799977.6622","1800744.5546","1801511.13969","1802277.95943","1803044.99591","1803811.57976","1804578.26285","1807637.10584"
"Blocked","Male","ball","5","M_priest.wav","None","727.497409098","133","1798461.64289","1805344.60153","1806094.38758","1806860.98844","1807627.73955","1808394.3435","1809160.98423","1795345.13856","1799227.69682","1799977.6622","1800744.5546","1801511.13969","1802277.95943","1803044.99591","1803811.57976","1804578.26285","1808403.75802"
"Blocked","Male","ball","5","M_lash.wav","None","725.764823495","133","1798461.64289","1805344.60153","1806094.38758","1806860.98844","1807627.73955","1808394.3435","1809160.98423","1809928.13727","1799227.69682","1799977.6622","1800744.5546","1801511.13969","1802277.95943","1803044.99591","1803811.57976","1804578.26285","1809170.29766"
"Blocked","Male","ball","2","M_done.wav","None","722.664162866","133","1813061.11477","1805344.60153","1806094.38758","1806860.98844","1807627.73955","1808394.3435","1809160.98423","1809928.13727","1799227.69682","1799977.6622","1800744.5546","1801511.13969","1802277.95943","1803044.99591","1803811.57976","1804578.26285","1809938.36212"
"Blocked","Male","ball","2","M_ball.wav","None","720.578196342","133","1813061.11477","1805344.60153","1806094.38758","1806860.98844","1807627.73955","1808394.3435","1809160.98423","1809928.13727","1813827.94286","1799977.6622","1800744.5546","1801511.13969","1802277.95943","1803044.99591","1803811.57976","1804578.26285","1813070.70273"
"Blocked","Male","ball","2","M_jolt.wav","space","475.673618377","133","1813061.11477","1805344.60153","1806094.38758","1806860.98844","1807627.73955","1808394.3435","1809160.98423","1809928.13727","1813827.94286","1814577.51868","1800744.5546","1801511.13969","1802277.95943","1803044.99591","1803811.57976","1804578.26285","1813837.37037"
"Blocked","Male","ball","2","M_dime.wav","None","735.603214358","133","1813061.11477","1805344.60153","1806094.38758","1806860.98844","1807627.73955","1808394.3435","1809160.98423","1809928.13727","1813827.94286","1814577.51868","1815344.16344","1801511.13969","1802277.95943","1803044.99591","1803811.57976","1804578.26285","1814584.53992"
"Blocked","Male","ball","2","M_jolt.wav","None","731.539799948","133","1813061.11477","1805344.60153","1806094.38758","1806860.98844","1807627.73955","1808394.3435","1809160.98423","1809928.13727","1813827.94286","1814577.51868","1815344.16344","1816110.94577","1802277.95943","1803044.99591","1803811.57976","1804578.26285","1815353.54457"
"Blocked","Male","ball","2","M_gnash.wav","None","730.36557436","133","1813061.11477","1805344.60153","1806094.38758","1806860.98844","1807627.73955","1808394.3435","1809160.98423","1809928.13727","1813827.94286","1814577.51868","1815344.16344","1816110.94577","1816876.98239","1803044.99591","1803811.57976","1804578.26285","1816120.1887"
"Blocked","Male","ball","2","M_cling.wav","None","729.651083704","133","1813061.11477","1805344.60153","1806094.38758","1806860.98844","1807627.73955","1808394.3435","1809160.98423","1809928.13727","1813827.94286","1814577.51868","1815344.16344","1816110.94577","1816876.98239","1817644.02567","1803811.57976","1804578.26285","1816885.99468"
"Blocked","Male","ball","2","M_jaw.wav","None","727.697132737","133","1813061.11477","1805344.60153","1806094.38758","1806860.98844","1807627.73955","1808394.3435","1809160.98423","1809928.13727","1813827.94286","1814577.51868","1815344.16344","1816110.94577","1816876.98239","1817644.02567","1818410.18039","1804578.26285","1817653.36259"
"Blocked","Male","ball","2","M_ball.wav","None","727.182365488","133","1813061.11477","1805344.60153","1806094.38758","1806860.98844","1807627.73955","1808394.3435","1809160.98423","1809928.13727","1813827.94286","1814577.51868","1815344.16344","1816110.94577","1816876.98239","1817644.02567","1818410.18039","1819177.16524","1818418.95401"
"Blocked","Male","ball","2","M_depth.wav","space","502.357417252","133","1813061.11477","1819944.44132","1806094.38758","1806860.98844","1807627.73955","1808394.3435","1809160.98423","1809928.13727","1813827.94286","1814577.51868","1815344.16344","1816110.94577","1816876.98239","1817644.02567","1818410.18039","1819177.16524","1819186.51421"
"Blocked","Male","ball","2","M_priest.wav","None","719.933578046","133","1813061.11477","1819944.44132","1820710.98003","1806860.98844","1807627.73955","1808394.3435","1809160.98423","1809928.13727","1813827.94286","1814577.51868","1815344.16344","1816110.94577","1816876.98239","1817644.02567","1818410.18039","1819177.16524","1819954.61887"
"Blocked","Male","ball","2","M_romp.wav","None","719.144577626","133","1813061.11477","1819944.44132","1820710.98003","1821460.37839","1807627.73955","1808394.3435","1809160.98423","1809928.13727","1813827.94286","1814577.51868","1815344.16344","1816110.94577","1816876.98239","1817644.02567","1818410.18039","1819177.16524","1820720.57325"
"Blocked","Male","ball","2","M_ball.wav","None","735.288170748","133","1813061.11477","1819944.44132","1820710.98003","1821460.37839","1822227.29274","1808394.3435","1809160.98423","1809928.13727","1813827.94286","1814577.51868","1815344.16344","1816110.94577","1816876.98239","1817644.02567","1818410.18039","1819177.16524","1821469.38882"
"Blocked","Male","ball","2","M_gnash.wav","space","604.487533099","133","1813061.11477","1819944.44132","1820710.98003","1821460.37839","1822227.29274","1822993.60205","1809160.98423","1809928.13727","1813827.94286","1814577.51868","1815344.16344","1816110.94577","1816876.98239","1817644.02567","1818410.18039","1819177.16524","1822236.27504"
"Blocked","Male","ball","2","M_ball.wav","None","730.731631047","133","1813061.11477","1819944.44132","1820710.98003","1821460.37839","1822227.29274","1822993.60205","1823760.57885","1809928.13727","1813827.94286","1814577.51868","1815344.16344","1816110.94577","1816876.98239","1817644.02567","1818410.18039","1819177.16524","1823002.28724"
"Blocked","Male","ball","2","M_bluff.wav","space","598.668963532","133","1813061.11477","1819944.44132","1820710.98003","1821460.37839","1822227.29274","1822993.60205","1823760.57885","1824526.71348","1813827.94286","1814577.51868","1815344.16344","1816110.94577","1816876.98239","1817644.02567","1818410.18039","1819177.16524","1823770.03449"
"Blocked","Male","done","21","M_romp.wav","None","726.119440864","133","1827660.54738","1819944.44132","1820710.98003","1821460.37839","1822227.29274","1822993.60205","1823760.57885","1824526.71348","1813827.94286","1814577.51868","1815344.16344","1816110.94577","1816876.98239","1817644.02567","1818410.18039","1819177.16524","1824535.53903"
"Blocked","Male","done","21","M_romp.wav","None","720.443707658","133","1827660.54738","1819944.44132","1820710.98003","1821460.37839","1822227.29274","1822993.60205","1823760.57885","1824526.71348","1828410.66363","1814577.51868","1815344.16344","1816110.94577","1816876.98239","1817644.02567","1818410.18039","1819177.16524","1827670.76265"
"Blocked","Male","done","21","M_priest.wav","None","735.671850038","133","1827660.54738","1819944.44132","1820710.98003","1821460.37839","1822227.29274","1822993.60205","1823760.57885","1824526.71348","1828410.66363","1829176.77754","1815344.16344","1816110.94577","1816876.98239","1817644.02567","1818410.18039","1819177.16524","1828420.09855"
"Blocked","Male","done","21","M_done.wav","None","734.644789016","133","1827660.54738","1819944.44132","1820710.98003","1821460.37839","1822227.29274","1822993.60205","1823760.57885","1824526.71348","1828410.66363","1829176.77754","1829943.72466","1816110.94577","1816876.98239","1817644.02567","1818410.18039","1819177.16524","1829186.23225"
"Blocked","Male","done","21","M_cling.wav","None","732.459888328","133","1827660.54738","1819944.44132","1820710.98003","1821460.37839","1822227.29274","1822993.60205","1823760.57885","1824526.71348","1828410.66363","1829176.77754","1829943.72466","1830710.28842","1816876.98239","1817644.02567","1818410.18039","1819177.16524","1829953.53678"
"Blocked","Male","done","21","M_tile.wav","space","0.0361728016287","133","1827660.54738","1819944.44132","1820710.98003","1821460.37839","1822227.29274","1822993.60205","1823760.57885","1824526.71348","1828410.66363","1829176.77754","1829943.72466","1830710.28842","1831477.01294","1817644.02567","1818410.18039","1819177.16524","1830719.6275"
"Blocked","Male","done","21","M_depth.wav","None","728.114202269","133","1827660.54738","1819944.44132","1820710.98003","1821460.37839","1822227.29274","1822993.60205","1823760.57885","1824526.71348","1828410.66363","1829176.77754","1829943.72466","1830710.28842","1831477.01294","1832243.67192","1818410.18039","1819177.16524","1831486.43426"
"Blocked","Male","done","21","M_done.wav","None","726.820637239","133","1827660.54738","1819944.44132","1820710.98003","1821460.37839","1822227.29274","1822993.60205","1823760.57885","1824526.71348","1828410.66363","1829176.77754","1829943.72466","1830710.28842","1831477.01294","1832243.67192","1833010.6042","1819177.16524","1832252.89383"
"Blocked","Male","done","21","M_greet.wav","space","620.469121379","133","1827660.54738","1819944.44132","1820710.98003","1821460.37839","1822227.29274","1822993.60205","1823760.57885","1824526.71348","1828410.66363","1829176.77754","1829943.72466","1830710.28842","1831477.01294","1832243.67192","1833010.6042","1833776.6637","1833020.00296"
"Blocked","Male","done","21","M_done.wav","None","721.913808491","133","1827660.54738","1834543.97379","1820710.98003","1821460.37839","1822227.29274","1822993.60205","1823760.57885","1824526.71348","1828410.66363","1829176.77754","1829943.72466","1830710.28842","1831477.01294","1832243.67192","1833010.6042","1833776.6637","1833785.94868"
"Blocked","Male","done","21","M_park.wav","space","670.54097238","133","1827660.54738","1834543.97379","1835293.09111","1821460.37839","1822227.29274","1822993.60205","1823760.57885","1824526.71348","1828410.66363","1829176.77754","1829943.72466","1830710.28842","1831477.01294","1832243.67192","1833010.6042","1833776.6637","1834553.87958"
"Blocked","Male","done","21","M_romp.wav","None","734.792571981","133","1827660.54738","1834543.97379","1835293.09111","1836060.13717","1822227.29274","1822993.60205","1823760.57885","1824526.71348","1828410.66363","1829176.77754","1829943.72466","1830710.28842","1831477.01294","1832243.67192","1833010.6042","1833776.6637","1835301.82484"
"Blocked","Male","done","21","M_gnash.wav","None","732.2617108","133","1827660.54738","1834543.97379","1835293.09111","1836060.13717","1836826.83851","1822993.60205","1823760.57885","1824526.71348","1828410.66363","1829176.77754","1829943.72466","1830710.28842","1831477.01294","1832243.67192","1833010.6042","1833776.6637","1836069.61445"
"Blocked","Male","done","21","M_done.wav","None","730.873230612","133","1827660.54738","1834543.97379","1835293.09111","1836060.13717","1836826.83851","1837593.4777","1823760.57885","1824526.71348","1828410.66363","1829176.77754","1829943.72466","1830710.28842","1831477.01294","1832243.67192","1833010.6042","1833776.6637","1836835.90367"
"Blocked","Male","done","21","M_tile.wav","space","573.431150406","133","1827660.54738","1834543.97379","1835293.09111","1836060.13717","1836826.83851","1837593.4777","1838359.55637","1824526.71348","1828410.66363","1829176.77754","1829943.72466","1830710.28842","1831477.01294","1832243.67192","1833010.6042","1833776.6637","1837602.88202"
"Blocked","Male","done","21","M_depth.wav","None","727.008612244","133","1827660.54738","1834543.97379","1835293.09111","1836060.13717","1836826.83851","1837593.4777","1838359.55637","1839127.08411","1828410.66363","1829176.77754","1829943.72466","1830710.28842","1831477.01294","1832243.67192","1833010.6042","1833776.6637","1838368.56433"
"Blocked","Male","done","20","M_greet.wav","None","723.523035529","133","1842260.31451","1834543.97379","1835293.09111","1836060.13717","1836826.83851","1837593.4777","1838359.55637","1839127.08411","1828410.66363","1829176.77754","1829943.72466","1830710.28842","1831477.01294","1832243.67192","1833010.6042","1833776.6637","1839136.90859"
"Blocked","Male","done","20","M_done.wav","None","720.311692334","133","1842260.31451","1834543.97379","1835293.09111","1836060.13717","1836826.83851","1837593.4777","1838359.55637","1839127.08411","1843010.19084","1829176.77754","1829943.72466","1830710.28842","1831477.01294","1832243.67192","1833010.6042","1833776.6637","1842270.03418"
"Blocked","Male","done","20","M_ball.wav","space","612.926622969","133","1842260.31451","1834543.97379","1835293.09111","1836060.13717","1836826.83851","1837593.4777","1838359.55637","1839127.08411","1843010.19084","1843776.82973","1829943.72466","1830710.28842","1831477.01294","1832243.67192","1833010.6042","1833776.6637","1843019.24518"
"Blocked","Male","done","20","M_park.wav","None","732.590667089","133","1842260.31451","1834543.97379","1835293.09111","1836060.13717","1836826.83851","1837593.4777","1838359.55637","1839127.08411","1843010.19084","1843776.82973","1844543.28249","1830710.28842","1831477.01294","1832243.67192","1833010.6042","1833776.6637","1843786.23373"
"Blocked","Male","done","20","M_done.wav","None","731.160758296","133","1842260.31451","1834543.97379","1835293.09111","1836060.13717","1836826.83851","1837593.4777","1838359.55637","1839127.08411","1843010.19084","1843776.82973","1844543.28249","1845309.86943","1831477.01294","1832243.67192","1833010.6042","1833776.6637","1844552.85128"
"Blocked","Male","done","20","M_gnash.wav","space","605.710916687","133","1842260.31451","1834543.97379","1835293.09111","1836060.13717","1836826.83851","1837593.4777","1838359.55637","1839127.08411","1843010.19084","1843776.82973","1844543.28249","1845309.86943","1846076.63693","1832243.67192","1833010.6042","1833776.6637","1845314.37187"
"Blocked","Male","done","20","M_done.wav","None","727.532963618","133","1842260.31451","1834543.97379","1835293.09111","1836060.13717","1836826.83851","1837593.4777","1838359.55637","1839127.08411","1843010.19084","1843776.82973","1844543.28249","1845309.86943","1846076.63693","1846842.80866","1833010.6042","1833776.6637","1846085.62572"
"Blocked","Male","done","20","M_cling.wav","space","500.211162725","133","1842260.31451","1834543.97379","1835293.09111","1836060.13717","1836826.83851","1837593.4777","1838359.55637","1839127.08411","1843010.19084","1843776.82973","1844543.28249","1845309.86943","1846076.63693","1846842.80866","1847609.98364","1833776.6637","1846851.83981"
"Blocked","Male","done","20","M_cling.wav","None","721.794778248","133","1842260.31451","1834543.97379","1835293.09111","1836060.13717","1836826.83851","1837593.4777","1838359.55637","1839127.08411","1843010.19084","1843776.82973","1844543.28249","1845309.86943","1846076.63693","1846842.80866","1847609.98364","1848376.20669","1847620.03783"
"Blocked","Male","done","20","M_cave.wav","None","721.899895812","133","1842260.31451","1849143.51987","1835293.09111","1836060.13717","1836826.83851","1837593.4777","1838359.55637","1839127.08411","1843010.19084","1843776.82973","1844543.28249","1845309.86943","1846076.63693","1846842.80866","1847609.98364","1848376.20669","1848385.22423"
"Blocked","Male","done","20","M_park.wav","None","718.609405099","133","1842260.31451","1849143.51987","1849892.98408","1836060.13717","1836826.83851","1837593.4777","1838359.55637","1839127.08411","1843010.19084","1843776.82973","1844543.28249","1845309.86943","1846076.63693","1846842.80866","1847609.98364","1848376.20669","1849153.54438"
"Blocked","Male","done","20","M_jaw.wav","None","735.25076115","133","1842260.31451","1849143.51987","1849892.98408","1850659.54752","1836826.83851","1837593.4777","1838359.55637","1839127.08411","1843010.19084","1843776.82973","1844543.28249","1845309.86943","1846076.63693","1846842.80866","1847609.98364","1848376.20669","1849902.11416"
"Blocked","Male","done","20","M_done.wav","None","733.856097679","133","1842260.31451","1849143.51987","1849892.98408","1850659.54752","1851426.39417","1837593.4777","1838359.55637","1839127.08411","1843010.19084","1843776.82973","1844543.28249","1845309.86943","1846076.63693","1846842.80866","1847609.98364","1848376.20669","1850668.85569"
"Blocked","Male","done","20","M_lash.wav","space","580.065308954","133","1842260.31451","1849143.51987","1849892.98408","1850659.54752","1851426.39417","1852192.98266","1838359.55637","1839127.08411","1843010.19084","1843776.82973","1844543.28249","1845309.86943","1846076.63693","1846842.80866","1847609.98364","1848376.20669","1851435.81642"
"Blocked","Male","done","20","M_jaw.wav","None","729.631606024","133","1842260.31451","1849143.51987","1849892.98408","1850659.54752","1851426.39417","1852192.98266","1852959.27558","1839127.08411","1843010.19084","1843776.82973","1844543.28249","1845309.86943","1846076.63693","1846842.80866","1847609.98364","1848376.20669","1852202.00329"
"Blocked","Male","done","20","M_lash.wav","None","729.041092331","133","1842260.31451","1849143.51987","1849892.98408","1850659.54752","1851426.39417","1852192.98266","1852959.27558","1853726.41872","1843010.19084","1843776.82973","1844543.28249","1845309.86943","1846076.63693","1846842.80866","1847609.98364","1848376.20669","1852968.03651"
"Blocked","Male","cave","8","M_bluff.wav","None","726.337405271","133","1856859.92768","1849143.51987","1849892.98408","1850659.54752","1851426.39417","1852192.98266","1852959.27558","1853726.41872","1843010.19084","1843776.82973","1844543.28249","1845309.86943","1846076.63693","1846842.80866","1847609.98364","1848376.20669","1853736.53629"
"Blocked","Male","cave","8","M_lash.wav","None","717.602440156","133","1856859.92768","1849143.51987","1849892.98408","1850659.54752","1851426.39417","1852192.98266","1852959.27558","1853726.41872","1857609.02212","1843776.82973","1844543.28249","1845309.86943","1846076.63693","1846842.80866","1847609.98364","1848376.20669","1856871.28255"
"Blocked","Male","cave","8","M_cave.wav","None","736.386649776","133","1856859.92768","1849143.51987","1849892.98408","1850659.54752","1851426.39417","1852192.98266","1852959.27558","1853726.41872","1857609.02212","1858376.19154","1844543.28249","1845309.86943","1846076.63693","1846842.80866","1847609.98364","1848376.20669","1857617.99577"
"Blocked","Male","cave","8","M_gnash.wav","space","685.290829511","133","1856859.92768","1849143.51987","1849892.98408","1850659.54752","1851426.39417","1852192.98266","1852959.27558","1853726.41872","1857609.02212","1858376.19154","1859142.82857","1845309.86943","1846076.63693","1846842.80866","1847609.98364","1848376.20669","1858386.43896"
"Blocked","Male","cave","8","M_dime.wav","None","730.772132287","133","1856859.92768","1849143.51987","1849892.98408","1850659.54752","1851426.39417","1852192.98266","1852959.27558","1853726.41872","1857609.02212","1858376.19154","1859142.82857","1859909.33358","1846076.63693","1846842.80866","1847609.98364","1848376.20669","1859152.33707"
"Blocked","Male","cave","8","M_priest.wav","None","729.677053983","133","1856859.92768","1849143.51987","1849892.98408","1850659.54752","1851426.39417","1852192.98266","1852959.27558","1853726.41872","1857609.02212","1858376.19154","1859142.82857","1859909.33358","1860675.68679","1846842.80866","1847609.98364","1848376.20669","1859918.80313"
"Blocked","Male","cave","8","M_bluff.wav","None","727.274188772","133","1856859.92768","1849143.51987","1849892.98408","1850659.54752","1851426.39417","1852192.98266","1852959.27558","1853726.41872","1857609.02212","1858376.19154","1859142.82857","1859909.33358","1860675.68679","1861442.75604","1847609.98364","1848376.20669","1860686.44589"
