"Condition","Talker","Target","Trial","current_stimulus","response_response","response_time_response","subject_nr","time_Audio1","time_Audio10","time_Audio11","time_Audio12","time_Audio13","time_Audio14","time_Audio15","time_Audio16","time_Audio2","time_Audio3","time_Audio4","time_Audio5","time_Audio6","time_Audio7","time_Audio8","time_Audio9","time_response","title"
"Blocked","Female","tile","17","F_dime.wav","NA","NA","122","351062.74007","NA","NA","NA","NA","NA","NA","NA","NA","NA","NA","NA","NA","NA","NA","NA","NA","Mapping"
"Blocked","Female","tile","17","F_tile.wav","None","712.642434373","122","351062.74007","NA","NA","NA","NA","NA","NA","NA","351813.222684","NA","NA","NA","NA","NA","NA","NA","351080.706526","Mapping"
"Blocked","Female","tile","17","F_reek.wav","None","735.625474583","122","351062.74007","NA","NA","NA","NA","NA","NA","NA","351813.222684","352580.75352","NA","NA","NA","NA","NA","NA","351822.753451","Mapping"
"Blocked","Female","tile","17","F_tile.wav","space","191.28191557","122","351062.74007","NA","NA","NA","NA","NA","NA","NA","351813.222684","352580.75352","353347.657361","NA","NA","NA","NA","NA","352590.0824","Mapping"
"Blocked","Female","tile","17","F_knife.wav","space","495.186231317","122","351062.74007","NA","NA","NA","NA","NA","NA","NA","351813.222684","352580.75352","353347.657361","354114.775766","NA","NA","NA","NA","353357.133405","Mapping"
"Blocked","Female","tile","17","F_bluff.wav","None","734.903873032","122","351062.74007","NA","NA","NA","NA","NA","NA","NA","351813.222684","352580.75352","353347.657361","354114.775766","354882.075034","NA","NA","NA","354118.247739","Mapping"
"Blocked","Female","tile","17","F_reek.wav","None","726.80517871","122","351062.74007","NA","NA","NA","NA","NA","NA","NA","351813.222684","352580.75352","353347.657361","354114.775766","354882.075034","355649.614218","NA","NA","354891.844171","Mapping"
"Blocked","Female","tile","17","F_cave.wav","None","724.934703409","122","351062.74007","NA","NA","NA","NA","NA","NA","NA","351813.222684","352580.75352","353347.657361","354114.775766","354882.075034","355649.614218","356416.910086","NA","355659.145295","Mapping"
"Blocked","Female","tile","17","F_dime.wav","None","723.044441256","122","351062.74007","NA","NA","NA","NA","NA","NA","NA","351813.222684","352580.75352","353347.657361","354114.775766","354882.075034","355649.614218","356416.910086","357184.111348","356426.529585","Mapping"
"Blocked","Female","tile","17","F_priest.wav","None","721.21477632","122","351062.74007","357935.053387","NA","NA","NA","NA","NA","NA","351813.222684","352580.75352","353347.657361","354114.775766","354882.075034","355649.614218","356416.910086","357184.111348","357193.521539","Mapping"
"Blocked","Female","tile","17","F_ball.wav","None","736.273493792","122","351062.74007","357935.053387","358701.851801","NA","NA","NA","NA","NA","351813.222684","352580.75352","353347.657361","354114.775766","354882.075034","355649.614218","356416.910086","357184.111348","357944.401126","Mapping"
"Blocked","Female","tile","17","F_tile.wav","None","734.699202832","122","351062.74007","357935.053387","358701.851801","359469.25155","NA","NA","NA","NA","351813.222684","352580.75352","353347.657361","354114.775766","354882.075034","355649.614218","356416.910086","357184.111348","358711.529733","Mapping"
"Blocked","Female","tile","17","F_ball.wav","space","486.010699737","122","351062.74007","357935.053387","358701.851801","359469.25155","360236.586373","NA","NA","NA","351813.222684","352580.75352","353347.657361","354114.775766","354882.075034","355649.614218","356416.910086","357184.111348","359479.065208","Mapping"
"Blocked","Female","tile","17","F_tile.wav","None","730.455542667","122","351062.74007","357935.053387","358701.851801","359469.25155","360236.586373","361003.806804","NA","NA","351813.222684","352580.75352","353347.657361","354114.775766","354882.075034","355649.614218","356416.910086","357184.111348","360245.880008","Mapping"
"Blocked","Female","tile","17","F_jolt.wav","space","430.859503511","122","351062.74007","357935.053387","358701.851801","359469.25155","360236.586373","361003.806804","361770.871104","NA","351813.222684","352580.75352","353347.657361","354114.775766","354882.075034","355649.614218","356416.910086","357184.111348","361013.216377","Mapping"
"Blocked","Female","tile","17","F_lash.wav","None","726.150048606","122","351062.74007","357935.053387","358701.851801","359469.25155","360236.586373","361003.806804","361770.871104","362538.159551","351813.222684","352580.75352","353347.657361","354114.775766","354882.075034","355649.614218","356416.910086","357184.111348","361780.119599","Mapping"
"Blocked","Female","cave","7","F_jolt.wav","None","723.90826077","122","365673.69481","357935.053387","358701.851801","359469.25155","360236.586373","361003.806804","361770.871104","362538.159551","351813.222684","352580.75352","353347.657361","354114.775766","354882.075034","355649.614218","356416.910086","357184.111348","362547.859743","Mapping"
"Blocked","Female","cave","7","F_lash.wav","None","720.76648059","122","365673.69481","357935.053387","358701.851801","359469.25155","360236.586373","361003.806804","361770.871104","362538.159551","366424.164439","352580.75352","353347.657361","354114.775766","354882.075034","355649.614218","356416.910086","357184.111348","365683.05337","Mapping"
"Blocked","Female","cave","7","F_lash.wav","None","734.862135156","122","365673.69481","357935.053387","358701.851801","359469.25155","360236.586373","361003.806804","361770.871104","362538.159551","366424.164439","367191.588612","353347.657361","354114.775766","354882.075034","355649.614218","356416.910086","357184.111348","366433.869887","Mapping"
"Blocked","Female","cave","7","F_cling.wav","None","733.618964703","122","365673.69481","357935.053387","358701.851801","359469.25155","360236.586373","361003.806804","361770.871104","362538.159551","366424.164439","367191.588612","367958.93642","354114.775766","354882.075034","355649.614218","356416.910086","357184.111348","367200.795679","Mapping"
"Blocked","Female","cave","7","F_done.wav","None","732.463598382","122","365673.69481","357935.053387","358701.851801","359469.25155","360236.586373","361003.806804","361770.871104","362538.159551","366424.164439","367191.588612","367958.93642","368726.130262","354882.075034","355649.614218","356416.910086","357184.111348","367967.778667","Mapping"
"Blocked","Female","cave","7","F_cave.wav","None","730.016212838","122","365673.69481","357935.053387","358701.851801","359469.25155","360236.586373","361003.806804","361770.871104","362538.159551","366424.164439","367191.588612","367958.93642","368726.130262","369493.062855","355649.614218","356416.910086","357184.111348","368735.158629","Mapping"
"Blocked","Female","cave","7","F_bluff.wav","space","382.772211364","122","365673.69481","357935.053387","358701.851801","359469.25155","360236.586373","361003.806804","361770.871104","362538.159551","366424.164439","367191.588612","367958.93642","368726.130262","369493.062855","370260.628937","356416.910086","357184.111348","369502.055049","Mapping"
"Blocked","Female","cave","7","F_ball.wav","None","725.168126359","122","365673.69481","357935.053387","358701.851801","359469.25155","360236.586373","361003.806804","361770.871104","362538.159551","366424.164439","367191.588612","367958.93642","368726.130262","369493.062855","370260.628937","371027.814432","357184.111348","370270.095088","Mapping"
"Blocked","Female","cave","7","F_jolt.wav","None","723.458728346","122","365673.69481","357935.053387","358701.851801","359469.25155","360236.586373","361003.806804","361770.871104","362538.159551","366424.164439","367191.588612","367958.93642","368726.130262","369493.062855","370260.628937","371027.814432","371794.973028","371036.872479","Mapping"
"Blocked","Female","cave","7","F_cave.wav","None","721.115223758","122","365673.69481","372545.047847","358701.851801","359469.25155","360236.586373","361003.806804","361770.871104","362538.159551","366424.164439","367191.588612","367958.93642","368726.130262","369493.062855","370260.628937","371027.814432","371794.973028","371804.432068","Mapping"
"Blocked","Female","cave","7","F_cad.wav","space","426.648924462","122","365673.69481","372545.047847","373312.878578","359469.25155","360236.586373","361003.806804","361770.871104","362538.159551","366424.164439","367191.588612","367958.93642","368726.130262","369493.062855","370260.628937","371027.814432","371794.973028","372554.022728","Mapping"
"Blocked","Female","cave","7","F_depth.wav","None","733.02906935","122","365673.69481","372545.047847","373312.878578","374079.59599","360236.586373","361003.806804","361770.871104","362538.159551","366424.164439","367191.588612","367958.93642","368726.130262","369493.062855","370260.628937","371027.814432","371794.973028","373322.172831","Mapping"
"Blocked","Female","cave","7","F_cave.wav","None","732.072808169","122","365673.69481","372545.047847","373312.878578","374079.59599","374846.710993","361003.806804","361770.871104","362538.159551","366424.164439","367191.588612","367958.93642","368726.130262","369493.062855","370260.628937","371027.814432","371794.973028","374088.480902","Mapping"
"Blocked","Female","cave","7","F_dime.wav","space","428.964912979","122","365673.69481","372545.047847","373312.878578","374079.59599","374846.710993","375614.472779","361770.871104","362538.159551","366424.164439","367191.588612","367958.93642","368726.130262","369493.062855","370260.628937","371027.814432","371794.973028","374855.654957","Mapping"
"Blocked","Female","cave","7","F_cave.wav","None","727.430628554","122","365673.69481","372545.047847","373312.878578","374079.59599","374846.710993","375614.472779","376381.666312","362538.159551","366424.164439","367191.588612","367958.93642","368726.130262","369493.062855","370260.628937","371027.814432","371794.973028","375623.772906","Mapping"
"Blocked","Female","cave","7","F_knife.wav","space","429.493592776","122","365673.69481","372545.047847","373312.878578","374079.59599","374846.710993","375614.472779","376381.666312","377149.02556","366424.164439","367191.588612","367958.93642","368726.130262","369493.062855","370260.628937","371027.814432","371794.973028","376391.124734","Mapping"
"Blocked","Female","done","24","F_cling.wav","None","722.574812826","122","380268.026435","372545.047847","373312.878578","374079.59599","374846.710993","375614.472779","376381.666312","377149.02556","366424.164439","367191.588612","367958.93642","368726.130262","369493.062855","370260.628937","371027.814432","371794.973028","377158.513352","Mapping"
"Blocked","Female","done","24","F_ball.wav","None","719.728907832","122","380268.026435","372545.047847","373312.878578","374079.59599","374846.710993","375614.472779","376381.666312","377149.02556","381018.456181","367191.588612","367958.93642","368726.130262","369493.062855","370260.628937","371027.814432","371794.973028","380277.793408","Mapping"
"Blocked","Female","done","24","F_gnash.wav","None","735.084428001","122","380268.026435","372545.047847","373312.878578","374079.59599","374846.710993","375614.472779","376381.666312","377149.02556","381018.456181","381785.762251","367958.93642","368726.130262","369493.062855","370260.628937","371027.814432","371794.973028","381027.765274","Mapping"
"Blocked","Female","done","24","F_bluff.wav","None","732.911584957","122","380268.026435","372545.047847","373312.878578","374079.59599","374846.710993","375614.472779","376381.666312","377149.02556","381018.456181","381785.762251","382552.694536","368726.130262","369493.062855","370260.628937","371027.814432","371794.973028","381794.907175","Mapping"
"Blocked","Female","done","24","F_done.wav","None","730.701332388","122","380268.026435","372545.047847","373312.878578","374079.59599","374846.710993","375614.472779","376381.666312","377149.02556","381018.456181","381785.762251","382552.694536","383319.782023","369493.062855","370260.628937","371027.814432","371794.973028","382562.253437","Mapping"
"Blocked","Female","done","24","F_dime.wav","space","354.780316542","122","380268.026435","372545.047847","373312.878578","374079.59599","374846.710993","375614.472779","376381.666312","377149.02556","381018.456181","381785.762251","382552.694536","383319.782023","384087.436837","370260.628937","371027.814432","371794.973028","383328.651786","Mapping"
"Blocked","Female","done","24","F_done.wav","None","726.055751918","122","380268.026435","372545.047847","373312.878578","374079.59599","374846.710993","375614.472779","376381.666312","377149.02556","381018.456181","381785.762251","382552.694536","383319.782023","384087.436837","384854.596979","371027.814432","371794.973028","384096.666473","Mapping"
"Blocked","Female","done","24","F_ball.wav","None","724.57483015","122","380268.026435","372545.047847","373312.878578","374079.59599","374846.710993","375614.472779","376381.666312","377149.02556","381018.456181","381785.762251","382552.694536","383319.782023","384087.436837","384854.596979","385621.483816","371794.973028","384863.637713","Mapping"
"Blocked","Female","done","24","F_done.wav","space","0.0550321710762","122","380268.026435","372545.047847","373312.878578","374079.59599","374846.710993","375614.472779","376381.666312","377149.02556","381018.456181","381785.762251","382552.694536","383319.782023","384087.436837","384854.596979","385621.483816","386389.03413","385630.446948","Mapping"
"Blocked","Female","done","24","F_gnash.wav","space","597.724450854","122","380268.026435","387139.348246","373312.878578","374079.59599","374846.710993","375614.472779","376381.666312","377149.02556","381018.456181","381785.762251","382552.694536","383319.782023","384087.436837","384854.596979","385621.483816","386389.03413","386398.584684","Mapping"
"Blocked","Female","done","24","F_romp.wav","None","734.687145217","122","380268.026435","387139.348246","387907.006151","374079.59599","374846.710993","375614.472779","376381.666312","377149.02556","381018.456181","381785.762251","382552.694536","383319.782023","384087.436837","384854.596979","385621.483816","386389.03413","387149.093577","Mapping"
"Blocked","Female","done","24","F_tile.wav","None","732.839857636","122","380268.026435","387139.348246","387907.006151","388673.626793","374846.710993","375614.472779","376381.666312","377149.02556","381018.456181","381785.762251","382552.694536","383319.782023","384087.436837","384854.596979","385621.483816","386389.03413","387916.362238","Mapping"
"Blocked","Female","done","24","F_tile.wav","None","731.969545581","122","380268.026435","387139.348246","387907.006151","388673.626793","389441.278206","375614.472779","376381.666312","377149.02556","381018.456181","381785.762251","382552.694536","383319.782023","384087.436837","384854.596979","385621.483816","386389.03413","388682.316619","Mapping"
"Blocked","Female","done","24","F_depth.wav","None","728.79159257","122","380268.026435","387139.348246","387907.006151","388673.626793","389441.278206","390208.286237","376381.666312","377149.02556","381018.456181","381785.762251","382552.694536","383319.782023","384087.436837","384854.596979","385621.483816","386389.03413","389450.761361","Mapping"
"Blocked","Female","done","24","F_done.wav","None","727.306033266","122","380268.026435","387139.348246","387907.006151","388673.626793","389441.278206","390208.286237","390975.809344","377149.02556","381018.456181","381785.762251","382552.694536","383319.782023","384087.436837","384854.596979","385621.483816","386389.03413","390218.105459","Mapping"
"Blocked","Female","done","24","F_reek.wav","space","665.236551751","122","380268.026435","387139.348246","387907.006151","388673.626793","389441.278206","390208.286237","390975.809344","391742.880755","381018.456181","381785.762251","382552.694536","383319.782023","384087.436837","384854.596979","385621.483816","386389.03413","390985.958759","Mapping"
"Blocked","Female","ball","5","F_done.wav","None","723.307544467","122","394861.930788","387139.348246","387907.006151","388673.626793","389441.278206","390208.286237","390975.809344","391742.880755","381018.456181","381785.762251","382552.694536","383319.782023","384087.436837","384854.596979","385621.483816","386389.03413","391752.494379","Mapping"
"Blocked","Female","ball","5","F_ball.wav","None","720.624262627","122","394861.930788","387139.348246","387907.006151","388673.626793","389441.278206","390208.286237","390975.809344","391742.880755","395611.893379","381785.762251","382552.694536","383319.782023","384087.436837","384854.596979","385621.483816","386389.03413","394871.457536","Mapping"
"Blocked","Female","ball","5","F_romp.wav","space","478.257038558","122","394861.930788","387139.348246","387907.006151","388673.626793","389441.278206","390208.286237","390975.809344","391742.880755","395611.893379","396379.715762","382552.694536","383319.782023","384087.436837","384854.596979","385621.483816","386389.03413","395620.788493","Mapping"
"Blocked","Female","ball","5","F_reek.wav","None","733.486949335","122","394861.930788","387139.348246","387907.006151","388673.626793","389441.278206","390208.286237","390975.809344","391742.880755","395611.893379","396379.715762","397146.984732","383319.782023","384087.436837","384854.596979","385621.483816","386389.03413","396389.259824","Mapping"
"Blocked","Female","ball","5","F_ball.wav","None","731.665631974","122","394861.930788","387139.348246","387907.006151","388673.626793","389441.278206","390208.286237","390975.809344","391742.880755","395611.893379","396379.715762","397146.984732","397914.184757","384087.436837","384854.596979","385621.483816","386389.03413","397156.310829","Mapping"
"Blocked","Female","ball","5","F_romp.wav","space","472.707446534","122","394861.930788","387139.348246","387907.006151","388673.626793","389441.278206","390208.286237","390975.809344","391742.880755","395611.893379","396379.715762","397146.984732","397914.184757","398680.921028","384854.596979","385621.483816","386389.03413","397923.216834","Mapping"
"Blocked","Female","ball","5","F_ball.wav","None","728.842605531","122","394861.930788","387139.348246","387907.006151","388673.626793","389441.278206","390208.286237","390975.809344","391742.880755","395611.893379","396379.715762","397146.984732","397914.184757","398680.921028","399448.642004","385621.483816","386389.03413","398689.78739","Mapping"
"Blocked","Female","ball","5","F_jaw.wav","None","725.795431223","122","394861.930788","387139.348246","387907.006151","388673.626793","389441.278206","390208.286237","390975.809344","391742.880755","395611.893379","396379.715762","397146.984732","397914.184757","398680.921028","399448.642004","400215.829044","386389.03413","399458.16597","Mapping"
"Blocked","Female","ball","5","F_cad.wav","space","9.24447637226","122","394861.930788","387139.348246","387907.006151","388673.626793","389441.278206","390208.286237","390975.809344","391742.880755","395611.893379","396379.715762","397146.984732","397914.184757","398680.921028","399448.642004","400215.829044","400983.027524","400225.682275","Mapping"
"Blocked","Female","ball","5","F_depth.wav","None","722.464748498","122","394861.930788","401749.938475","387907.006151","388673.626793","389441.278206","390208.286237","390975.809344","391742.880755","395611.893379","396379.715762","397146.984732","397914.184757","398680.921028","399448.642004","400215.829044","400983.027524","400992.016008","Mapping"
"Blocked","Female","ball","5","F_cad.wav","None","721.212302975","122","394861.930788","401749.938475","402500.583094","388673.626793","389441.278206","390208.286237","390975.809344","391742.880755","395611.893379","396379.715762","397146.984732","397914.184757","398680.921028","399448.642004","400215.829044","400983.027524","401759.118644","Mapping"
"Blocked","Female","ball","5","F_ball.wav","None","735.607542752","122","394861.930788","401749.938475","402500.583094","403267.637191","389441.278206","390208.286237","390975.809344","391742.880755","395611.893379","396379.715762","397146.984732","397914.184757","398680.921028","399448.642004","400215.829044","400983.027524","402510.003797","Mapping"
"Blocked","Female","ball","5","F_reek.wav","space","518.055806329","122","394861.930788","401749.938475","402500.583094","403267.637191","404035.27871","390208.286237","390975.809344","391742.880755","395611.893379","396379.715762","397146.984732","397914.184757","398680.921028","399448.642004","400215.829044","400983.027524","403276.749343","Mapping"
"Blocked","Female","ball","5","F_bluff.wav","None","731.101088517","122","394861.930788","401749.938475","402500.583094","403267.637191","404035.27871","404802.482445","390975.809344","391742.880755","395611.893379","396379.715762","397146.984732","397914.184757","398680.921028","399448.642004","400215.829044","400983.027524","404044.431981","Mapping"
"Blocked","Female","ball","5","F_priest.wav","None","729.028725546","122","394861.930788","401749.938475","402500.583094","403267.637191","404035.27871","404802.482445","405569.759763","391742.880755","395611.893379","396379.715762","397146.984732","397914.184757","398680.921028","399448.642004","400215.829044","400983.027524","404811.865121","Mapping"
"Blocked","Female","ball","5","F_depth.wav","space","536.315664503","122","394861.930788","401749.938475","402500.583094","403267.637191","404035.27871","404802.482445","405569.759763","406336.629595","395611.893379","396379.715762","397146.984732","397914.184757","398680.921028","399448.642004","400215.829044","400983.027524","405579.403377","Mapping"
"Blocked","Female","done","19","F_park.wav","None","725.796049548","122","409472.596764","401749.938475","402500.583094","403267.637191","404035.27871","404802.482445","405569.759763","406336.629595","395611.893379","396379.715762","397146.984732","397914.184757","398680.921028","399448.642004","400215.829044","400983.027524","406345.717013","Mapping"
"Blocked","Female","done","19","F_ball.wav","None","719.541860308","122","409472.596764","401749.938475","402500.583094","403267.637191","404035.27871","404802.482445","405569.759763","406336.629595","410222.847809","396379.715762","397146.984732","397914.184757","398680.921028","399448.642004","400215.829044","400983.027524","409482.949613","Mapping"
"Blocked","Female","done","19","F_reek.wav","None","735.50118845","122","409472.596764","401749.938475","402500.583094","403267.637191","404035.27871","404802.482445","405569.759763","406336.629595","410222.847809","410990.342782","397146.984732","397914.184757","398680.921028","399448.642004","400215.829044","400983.027524","410232.470091","Mapping"
"Blocked","Female","done","19","F_bluff.wav","None","733.256927255","122","409472.596764","401749.938475","402500.583094","403267.637191","404035.27871","404802.482445","405569.759763","406336.629595","410222.847809","410990.342782","411757.335355","397914.184757","398680.921028","399448.642004","400215.829044","400983.027524","411000.007729","Mapping"
"Blocked","Female","done","19","F_done.wav","None","732.493896998","122","409472.596764","401749.938475","402500.583094","403267.637191","404035.27871","404802.482445","405569.759763","406336.629595","410222.847809","410990.342782","411757.335355","412524.70666","398680.921028","399448.642004","400215.829044","400983.027524","411766.320747","Mapping"
"Blocked","Female","done","19","F_cave.wav","space","388.959929158","122","409472.596764","401749.938475","402500.583094","403267.637191","404035.27871","404802.482445","405569.759763","406336.629595","410222.847809","410990.342782","411757.335355","412524.70666","413292.115065","399448.642004","400215.829044","400983.027524","412534.550307","Mapping"
"Blocked","Female","done","19","F_done.wav","None","727.506684241","122","409472.596764","401749.938475","402500.583094","403267.637191","404035.27871","404802.482445","405569.759763","406336.629595","410222.847809","410990.342782","411757.335355","412524.70666","413292.115065","414059.502138","400215.829044","400983.027524","413301.767646","Mapping"
"Blocked","Female","done","19","F_romp.wav","space","485.05011019","122","409472.596764","401749.938475","402500.583094","403267.637191","404035.27871","404802.482445","405569.759763","406336.629595","410222.847809","410990.342782","411757.335355","412524.70666","413292.115065","414059.502138","414826.787803","400983.027524","414069.453994","Mapping"
"Blocked","Female","done","19","F_depth.wav","None","723.65288678","122","409472.596764","401749.938475","402500.583094","403267.637191","404035.27871","404802.482445","405569.759763","406336.629595","410222.847809","410990.342782","411757.335355","412524.70666","413292.115065","414059.502138","414826.787803","415593.50336","414836.259829","Mapping"
"Blocked","Female","done","19","F_romp.wav","space","398.596741608","122","409472.596764","416360.968962","402500.583094","403267.637191","404035.27871","404802.482445","405569.759763","406336.629595","410222.847809","410990.342782","411757.335355","412524.70666","413292.115065","414059.502138","414826.787803","415593.50336","415603.833021","Mapping"
"Blocked","Female","done","19","F_done.wav","None","711.958242333","122","409472.596764","416360.968962","417111.098504","403267.637191","404035.27871","404802.482445","405569.759763","406336.629595","410222.847809","410990.342782","411757.335355","412524.70666","413292.115065","414059.502138","414826.787803","415593.50336","416378.659639","Mapping"
"Blocked","Female","done","19","F_ball.wav","space","554.734435791","122","409472.596764","416360.968962","417111.098504","417878.846377","404035.27871","404802.482445","405569.759763","406336.629595","410222.847809","410990.342782","411757.335355","412524.70666","413292.115065","414059.502138","414826.787803","415593.50336","417120.64102","Mapping"
"Blocked","Female","done","19","F_dime.wav","None","732.60056047","122","409472.596764","416360.968962","417111.098504","417878.846377","418646.032181","404802.482445","405569.759763","406336.629595","410222.847809","410990.342782","411757.335355","412524.70666","413292.115065","414059.502138","414826.787803","415593.50336","417888.616751","Mapping"
"Blocked","Female","done","19","F_bluff.wav","None","730.753272874","122","409472.596764","416360.968962","417111.098504","417878.846377","418646.032181","419413.157696","405569.759763","406336.629595","410222.847809","410990.342782","411757.335355","412524.70666","413292.115065","414059.502138","414826.787803","415593.50336","418655.816158","Mapping"
"Blocked","Female","done","19","F_done.wav","None","729.348406792","122","409472.596764","416360.968962","417111.098504","417878.846377","418646.032181","419413.157696","420180.375653","406336.629595","410222.847809","410990.342782","411757.335355","412524.70666","413292.115065","414059.502138","414826.787803","415593.50336","419422.58551","Mapping"
"Blocked","Female","done","19","F_cave.wav","space","667.816570989","122","409472.596764","416360.968962","417111.098504","417878.846377","418646.032181","419413.157696","420180.375653","420947.586809","410222.847809","410990.342782","411757.335355","412524.70666","413292.115065","414059.502138","414826.787803","415593.50336","420190.470964","Mapping"
"Blocked","Female","ball","1","F_priest.wav","None","723.713483996","122","424082.981705","416360.968962","417111.098504","417878.846377","418646.032181","419413.157696","420180.375653","420947.586809","410222.847809","410990.342782","411757.335355","412524.70666","413292.115065","414059.502138","414826.787803","415593.50336","420958.414851","Mapping"
"Blocked","Female","ball","1","F_ball.wav","None","721.066065802","122","424082.981705","416360.968962","417111.098504","417878.846377","418646.032181","419413.157696","420180.375653","420947.586809","424833.232132","410990.342782","411757.335355","412524.70666","413292.115065","414059.502138","414826.787803","415593.50336","424092.018728","Mapping"
"Blocked","Female","ball","1","F_romp.wav","None","735.93124318","122","424082.981705","416360.968962","417111.098504","417878.846377","418646.032181","419413.157696","420180.375653","420947.586809","424833.232132","425600.741945","411757.335355","412524.70666","413292.115065","414059.502138","414826.787803","415593.50336","424842.485265","Mapping"
"Blocked","Female","ball","1","F_lash.wav","None","734.057367008","122","424082.981705","416360.968962","417111.098504","417878.846377","418646.032181","419413.157696","420180.375653","420947.586809","424833.232132","425600.741945","426368.223624","412524.70666","413292.115065","414059.502138","414826.787803","415593.50336","425610.120292","Mapping"
"Blocked","Female","ball","1","F_ball.wav","None","732.155047241","122","424082.981705","416360.968962","417111.098504","417878.846377","418646.032181","419413.157696","420180.375653","420947.586809","424833.232132","425600.741945","426368.223624","427135.548244","413292.115065","414059.502138","414826.787803","415593.50336","426377.815297","Mapping"
"Blocked","Female","ball","1","F_park.wav","space","152.733738301","122","424082.981705","416360.968962","417111.098504","417878.846377","418646.032181","419413.157696","420180.375653","420947.586809","424833.232132","425600.741945","426368.223624","427135.548244","427902.754143","414059.502138","414826.787803","415593.50336","427145.381688","Mapping"
"Blocked","Female","ball","1","F_ball.wav","None","727.808433643","122","424082.981705","416360.968962","417111.098504","417878.846377","418646.032181","419413.157696","420180.375653","420947.586809","424833.232132","425600.741945","426368.223624","427135.548244","427902.754143","428670.00951","414826.787803","415593.50336","427912.611703","Mapping"
"Blocked","Female","ball","1","F_jolt.wav","space","554.172984033","122","424082.981705","416360.968962","417111.098504","417878.846377","418646.032181","419413.157696","420180.375653","420947.586809","424833.232132","425600.741945","426368.223624","427135.548244","427902.754143","428670.00951","429437.204279","415593.50336","428679.875108","Mapping"
"Blocked","Female","ball","1","F_knife.wav","None","723.491809476","122","424082.981705","416360.968962","417111.098504","417878.846377","418646.032181","419413.157696","420180.375653","420947.586809","424833.232132","425600.741945","426368.223624","427135.548244","427902.754143","428670.00951","429437.204279","430204.487162","429447.490966","Mapping"
"Blocked","Female","ball","1","F_jolt.wav","None","722.173820017","122","424082.981705","430971.509415","417111.098504","417878.846377","418646.032181","419413.157696","420180.375653","420947.586809","424833.232132","425600.741945","426368.223624","427135.548244","427902.754143","428670.00951","429437.204279","430204.487162","430214.253517","Mapping"
"Blocked","Female","ball","1","F_reek.wav","None","720.458238633","122","424082.981705","430971.509415","431721.716558","417878.846377","418646.032181","419413.157696","420180.375653","420947.586809","424833.232132","425600.741945","426368.223624","427135.548244","427902.754143","428670.00951","429437.204279","430204.487162","430981.226611","Mapping"
"Blocked","Female","ball","1","F_ball.wav","None","735.755325761","122","424082.981705","430971.509415","431721.716558","432488.975635","418646.032181","419413.157696","420180.375653","420947.586809","424833.232132","425600.741945","426368.223624","427135.548244","427902.754143","428670.00951","429437.204279","430204.487162","431731.261857","Mapping"
"Blocked","Female","ball","1","F_bluff.wav","space","528.739466594","122","424082.981705","430971.509415","431721.716558","432488.975635","433256.660129","419413.157696","420180.375653","420947.586809","424833.232132","425600.741945","426368.223624","427135.548244","427902.754143","428670.00951","429437.204279","430204.487162","432498.191977","Mapping"
"Blocked","Female","ball","1","F_gnash.wav","None","731.033380405","122","424082.981705","430971.509415","431721.716558","432488.975635","433256.660129","434023.960943","420180.375653","420947.586809","424833.232132","425600.741945","426368.223624","427135.548244","427902.754143","428670.00951","429437.204279","430204.487162","433266.133081","Mapping"
"Blocked","Female","ball","1","F_greet.wav","None","727.962400051","122","424082.981705","430971.509415","431721.716558","432488.975635","433256.660129","434023.960943","434790.654549","420947.586809","424833.232132","425600.741945","426368.223624","427135.548244","427902.754143","428670.00951","429437.204279","430204.487162","434034.662535","Mapping"
"Blocked","Female","ball","1","F_cave.wav","None","728.276207054","122","424082.981705","430971.509415","431721.716558","432488.975635","433256.660129","434023.960943","434790.654549","435558.520525","424833.232132","425600.741945","426368.223624","427135.548244","427902.754143","428670.00951","429437.204279","430204.487162","434799.911701","Mapping"
"Blocked","Female","tile","15","F_bluff.wav","None","725.056825351","122","438693.792372","430971.509415","431721.716558","432488.975635","433256.660129","434023.960943","434790.654549","435558.520525","424833.232132","425600.741945","426368.223624","427135.548244","427902.754143","428670.00951","429437.204279","430204.487162","435568.484439","Mapping"
"Blocked","Female","tile","15","F_tile.wav","None","720.823676937","122","438693.792372","430971.509415","431721.716558","432488.975635","433256.660129","434023.960943","434790.654549","435558.520525","439461.085457","425600.741945","426368.223624","427135.548244","427902.754143","428670.00951","429437.204279","430204.487162","438704.050615","Mapping"
"Blocked","Female","tile","15","F_reek.wav","space","594.743747977","122","438693.792372","430971.509415","431721.716558","432488.975635","433256.660129","434023.960943","434790.654549","435558.520525","439461.085457","440211.713998","426368.223624","427135.548244","427902.754143","428670.00951","429437.204279","430204.487162","439470.966822","Mapping"
"Blocked","Female","tile","15","F_depth.wav","None","733.997078962","122","438693.792372","430971.509415","431721.716558","432488.975635","433256.660129","434023.960943","434790.654549","435558.520525","439461.085457","440211.713998","440978.970293","427135.548244","427902.754143","428670.00951","429437.204279","430204.487162","440221.368743","Mapping"
"Blocked","Female","tile","15","F_greet.wav","None","732.031379477","122","438693.792372","430971.509415","431721.716558","432488.975635","433256.660129","434023.960943","434790.654549","435558.520525","439461.085457","440211.713998","440978.970293","441746.359839","427902.754143","428670.00951","429437.204279","430204.487162","440988.965742","Mapping"
"Blocked","Female","tile","15","F_depth.wav","None","730.419988176","122","438693.792372","430971.509415","431721.716558","432488.975635","433256.660129","434023.960943","434790.654549","435558.520525","439461.085457","440211.713998","440978.970293","441746.359839","442513.150833","428670.00951","429437.204279","430204.487162","441756.051065","Mapping"
"Blocked","Female","tile","15","F_depth.wav","None","730.3538259","122","438693.792372","430971.509415","431721.716558","432488.975635","433256.660129","434023.960943","434790.654549","435558.520525","439461.085457","440211.713998","440978.970293","441746.359839","442513.150833","443280.502351","429437.204279","430204.487162","442522.358518","Mapping"
"Blocked","Female","tile","15","F_gnash.wav","None","728.820345335","122","438693.792372","430971.509415","431721.716558","432488.975635","433256.660129","434023.960943","434790.654549","435558.520525","439461.085457","440211.713998","440978.970293","441746.359839","442513.150833","443280.502351","444047.491832","430204.487162","443290.063417","Mapping"
"Blocked","Female","tile","15","F_tile.wav","None","727.433411084","122","438693.792372","430971.509415","431721.716558","432488.975635","433256.660129","434023.960943","434790.654549","435558.520525","439461.085457","440211.713998","440978.970293","441746.359839","442513.150833","443280.502351","444047.491832","444815.279897","444057.168527","Mapping"
"Blocked","Female","tile","15","F_lash.wav","space","568.040162339","122","438693.792372","445582.301532","431721.716558","432488.975635","433256.660129","434023.960943","434790.654549","435558.520525","439461.085457","440211.713998","440978.970293","441746.359839","442513.150833","443280.502351","444047.491832","444815.279897","444825.532885","Mapping"
"Blocked","Female","tile","15","F_dime.wav","None","723.580850288","122","438693.792372","445582.301532","446349.693551","432488.975635","433256.660129","434023.960943","434790.654549","435558.520525","439461.085457","440211.713998","440978.970293","441746.359839","442513.150833","443280.502351","444047.491832","444815.279897","445591.446146","Mapping"
"Blocked","Female","tile","15","F_tile.wav","None","721.396258799","122","438693.792372","445582.301532","446349.693551","447117.327032","433256.660129","434023.960943","434790.654549","435558.520525","439461.085457","440211.713998","440978.970293","441746.359839","442513.150833","443280.502351","444047.491832","444815.279897","446359.402709","Mapping"
"Blocked","Female","tile","15","F_gnash.wav","space","522.305340724","122","438693.792372","445582.301532","446349.693551","447117.327032","447867.380828","434023.960943","434790.654549","435558.520525","439461.085457","440211.713998","440978.970293","441746.359839","442513.150833","443280.502351","444047.491832","444815.279897","447127.204378","Mapping"
"Blocked","Female","tile","15","F_tile.wav","None","733.806630567","122","438693.792372","445582.301532","446349.693551","447117.327032","447867.380828","448634.283123","434790.654549","435558.520525","439461.085457","440211.713998","440978.970293","441746.359839","442513.150833","443280.502351","444047.491832","444815.279897","447877.147182","Mapping"
"Blocked","Female","tile","15","F_jolt.wav","space","573.736919046","122","438693.792372","445582.301532","446349.693551","447117.327032","447867.380828","448634.283123","449401.415131","435558.520525","439461.085457","440211.713998","440978.970293","441746.359839","442513.150833","443280.502351","444047.491832","444815.279897","448643.711555","Mapping"
"Blocked","Female","tile","15","F_cling.wav","None","730.473165328","122","438693.792372","445582.301532","446349.693551","447117.327032","447867.380828","448634.283123","449401.415131","450169.035626","439461.085457","440211.713998","440978.970293","441746.359839","442513.150833","443280.502351","444047.491832","444815.279897","449410.879736","Mapping"
"Blocked","Female","done","21","F_cave.wav","None","728.374522951","122","453304.716195","445582.301532","446349.693551","447117.327032","447867.380828","448634.283123","449401.415131","450169.035626","439461.085457","440211.713998","440978.970293","441746.359839","442513.150833","443280.502351","444047.491832","444815.279897","450178.660381","Mapping"
"Blocked","Female","done","21","F_knife.wav","None","720.709593399","122","453304.716195","445582.301532","446349.693551","447117.327032","447867.380828","448634.283123","449401.415131","450169.035626","454055.346591","440211.713998","440978.970293","441746.359839","442513.150833","443280.502351","444047.491832","444815.279897","453314.575609","Mapping"
"Blocked","Female","done","21","F_lash.wav","None","735.48078326","122","453304.716195","445582.301532","446349.693551","447117.327032","447867.380828","448634.283123","449401.415131","450169.035626","454055.346591","454822.359569","440978.970293","441746.359839","442513.150833","443280.502351","444047.491832","444815.279897","454065.227339","Mapping"
"Blocked","Female","done","21","F_bluff.wav","None","734.35942558","122","453304.716195","445582.301532","446349.693551","447117.327032","447867.380828","448634.283123","449401.415131","450169.035626","454055.346591","454822.359569","455589.068633","441746.359839","442513.150833","443280.502351","444047.491832","444815.279897","454831.790784","Mapping"
"Blocked","Female","done","21","F_lash.wav","None","733.24548798","122","453304.716195","445582.301532","446349.693551","447117.327032","447867.380828","448634.283123","449401.415131","450169.035626","454055.346591","454822.359569","455589.068633","456356.982222","442513.150833","443280.502351","444047.491832","444815.279897","455598.514997","Mapping"
"Blocked","Female","done","21","F_reek.wav","None","730.323527299","122","453304.716195","445582.301532","446349.693551","447117.327032","447867.380828","448634.283123","449401.415131","450169.035626","454055.346591","454822.359569","455589.068633","456356.982222","457124.065072","443280.502351","444047.491832","444815.279897","456366.868534","Mapping"
"Blocked","Female","done","21","F_dime.wav","None","728.750163864","122","453304.716195","445582.301532","446349.693551","447117.327032","447867.380828","448634.283123","449401.415131","450169.035626","454055.346591","454822.359569","455589.068633","456356.982222","457124.065072","457891.237271","444047.491832","444815.279897","457134.365362","Mapping"
"Blocked","Female","done","21","F_done.wav","None","727.851408214","122","453304.716195","445582.301532","446349.693551","447117.327032","447867.380828","448634.283123","449401.415131","450169.035626","454055.346591","454822.359569","455589.068633","456356.982222","457124.065072","457891.237271","458658.629909","444815.279897","457901.073189","Mapping"
"Blocked","Female","done","21","F_dime.wav","space","484.663030002","122","453304.716195","445582.301532","446349.693551","447117.327032","447867.380828","448634.283123","449401.415131","450169.035626","454055.346591","454822.359569","455589.068633","456356.982222","457124.065072","457891.237271","458658.629909","459425.977408","458668.489942","Mapping"
"Blocked","Female","done","21","F_done.wav","None","723.007959255","122","453304.716195","460193.125802","446349.693551","447117.327032","447867.380828","448634.283123","449401.415131","450169.035626","454055.346591","454822.359569","455589.068633","456356.982222","457124.065072","457891.237271","458658.629909","459425.977408","459436.2845","Mapping"
"Blocked","Female","done","21","F_ball.wav","space","446.767200337","122","453304.716195","460193.125802","460960.192266","447117.327032","447867.380828","448634.283123","449401.415131","450169.035626","454055.346591","454822.359569","455589.068633","456356.982222","457124.065072","457891.237271","458658.629909","459425.977408","460202.349255","Mapping"
"Blocked","Female","done","21","F_done.wav","None","720.07950602","122","453304.716195","460193.125802","460960.192266","461710.569453","447867.380828","448634.283123","449401.415131","450169.035626","454055.346591","454822.359569","455589.068633","456356.982222","457124.065072","457891.237271","458658.629909","459425.977408","460969.455911","Mapping"
"Blocked","Female","done","21","F_lash.wav","space","528.575606775","122","453304.716195","460193.125802","460960.192266","461710.569453","462477.605618","448634.283123","449401.415131","450169.035626","454055.346591","454822.359569","455589.068633","456356.982222","457124.065072","457891.237271","458658.629909","459425.977408","461720.4839","Mapping"
"Blocked","Female","done","21","F_reek.wav","None","732.707533112","122","453304.716195","460193.125802","460960.192266","461710.569453","462477.605618","463244.85171","449401.415131","450169.035626","454055.346591","454822.359569","455589.068633","456356.982222","457124.065072","457891.237271","458658.629909","459425.977408","462487.179979","Mapping"
"Blocked","Female","done","21","F_done.wav","None","731.509192221","122","453304.716195","460193.125802","460960.192266","461710.569453","462477.605618","463244.85171","464012.649669","450169.035626","454055.346591","454822.359569","455589.068633","456356.982222","457124.065072","457891.237271","458658.629909","459425.977408","463253.862145","Mapping"
"Blocked","Female","done","21","F_greet.wav","space","538.740480668","122","453304.716195","460193.125802","460960.192266","461710.569453","462477.605618","463244.85171","464012.649669","464779.767146","454055.346591","454822.359569","455589.068633","456356.982222","457124.065072","457891.237271","458658.629909","459425.977408","464022.2534","Mapping"
"Blocked","Female","ball","3","F_jolt.wav","None","726.027308323","122","467915.575711","460193.125802","460960.192266","461710.569453","462477.605618","463244.85171","464012.649669","464779.767146","454055.346591","454822.359569","455589.068633","456356.982222","457124.065072","457891.237271","458658.629909","459425.977408","464789.777126","Mapping"
"Blocked","Female","ball","3","F_done.wav","None","719.902661076","122","467915.575711","460193.125802","460960.192266","461710.569453","462477.605618","463244.85171","464012.649669","464779.767146","468682.623625","454822.359569","455589.068633","456356.982222","457124.065072","457891.237271","458658.629909","459425.977408","467926.160746","Mapping"
"Blocked","Female","ball","3","F_jolt.wav","None","719.768481533","122","467915.575711","460193.125802","460960.192266","461710.569453","462477.605618","463244.85171","464012.649669","464779.767146","468682.623625","469432.951962","455589.068633","456356.982222","457124.065072","457891.237271","458658.629909","459425.977408","468692.390906","Mapping"
"Blocked","Female","ball","3","F_ball.wav","None","735.021975765","122","467915.575711","460193.125802","460960.192266","461710.569453","462477.605618","463244.85171","464012.649669","464779.767146","468682.623625","469432.951962","470200.125399","456356.982222","457124.065072","457891.237271","458658.629909","459425.977408","469442.836111","Mapping"
"Blocked","Female","ball","3","F_lash.wav","space","478.938757238","122","467915.575711","460193.125802","460960.192266","461710.569453","462477.605618","463244.85171","464012.649669","464779.767146","468682.623625","469432.951962","470200.125399","470967.63243","457124.065072","457891.237271","458658.629909","459425.977408","470210.818953","Mapping"
"Blocked","Female","ball","3","F_cave.wav","None","730.56993536","122","467915.575711","460193.125802","460960.192266","461710.569453","462477.605618","463244.85171","464012.649669","464779.767146","468682.623625","469432.951962","470200.125399","470967.63243","471734.859971","457891.237271","458658.629909","459425.977408","470977.982496","Mapping"
"Blocked","Female","ball","3","F_bluff.wav","None","729.942630511","122","467915.575711","460193.125802","460960.192266","461710.569453","462477.605618","463244.85171","464012.649669","464779.767146","468682.623625","469432.951962","470200.125399","470967.63243","471734.859971","472502.044538","458658.629909","459425.977408","471744.177721","Mapping"
"Blocked","Female","ball","3","F_ball.wav","None","728.251782668","122","467915.575711","460193.125802","460960.192266","461710.569453","462477.605618","463244.85171","464012.649669","464779.767146","468682.623625","469432.951962","470200.125399","470967.63243","471734.859971","472502.044538","473269.46531","459425.977408","472511.831607","Mapping"
"Blocked","Female","ball","3","F_depth.wav","space","490.414200525","122","467915.575711","460193.125802","460960.192266","461710.569453","462477.605618","463244.85171","464012.649669","464779.767146","468682.623625","469432.951962","470200.125399","470967.63243","471734.859971","472502.044538","473269.46531","474036.745719","473279.293189","Mapping"
"Blocked","Female","ball","3","F_priest.wav","None","725.322401922","122","467915.575711","474803.719742","460960.192266","461710.569453","462477.605618","463244.85171","464012.649669","464779.767146","468682.623625","469432.951962","470200.125399","470967.63243","471734.859971","472502.044538","473269.46531","474036.745719","474045.932072","Mapping"
"Blocked","Female","ball","3","F_ball.wav","None","723.560754283","122","467915.575711","474803.719742","475571.384139","461710.569453","462477.605618","463244.85171","464012.649669","464779.767146","468682.623625","469432.951962","470200.125399","470967.63243","471734.859971","472502.044538","473269.46531","474036.745719","474813.695713","Mapping"
"Blocked","Female","ball","3","F_dime.wav","space","547.73205641","122","467915.575711","474803.719742","475571.384139","476338.208215","462477.605618","463244.85171","464012.649669","464779.767146","468682.623625","469432.951962","470200.125399","470967.63243","471734.859971","472502.044538","473269.46531","474036.745719","475580.924491","Mapping"
"Blocked","Female","ball","3","F_ball.wav","None","719.620080185","122","467915.575711","474803.719742","475571.384139","476338.208215","477088.325699","463244.85171","464012.649669","464779.767146","468682.623625","469432.951962","470200.125399","470967.63243","471734.859971","472502.044538","473269.46531","474036.745719","476347.990955","Mapping"
"Blocked","Female","ball","3","F_tile.wav","space","543.06854411","122","467915.575711","474803.719742","475571.384139","476338.208215","477088.325699","477856.051312","464012.649669","464779.767146","468682.623625","469432.951962","470200.125399","470967.63243","471734.859971","472502.044538","473269.46531","474036.745719","477097.527201","Mapping"
"Blocked","Female","ball","3","F_dime.wav","None","732.948066943","122","467915.575711","474803.719742","475571.384139","476338.208215","477088.325699","477856.051312","478623.255048","464779.767146","468682.623625","469432.951962","470200.125399","470967.63243","471734.859971","472502.044538","473269.46531","474036.745719","477865.818594","Mapping"
"Blocked","Female","ball","3","F_gnash.wav","None","731.594523008","122","467915.575711","474803.719742","475571.384139","476338.208215","477088.325699","477856.051312","478623.255048","479390.042641","468682.623625","469432.951962","470200.125399","470967.63243","471734.859971","472502.044538","473269.46531","474036.745719","478632.829717","Mapping"
"Blocked","Female","cave","9","F_cad.wav","None","730.820362645","122","482526.114309","474803.719742","475571.384139","476338.208215","477088.325699","477856.051312","478623.255048","479390.042641","468682.623625","469432.951962","470200.125399","470967.63243","471734.859971","472502.044538","473269.46531","474036.745719","479399.340913","Mapping"
"Blocked","Female","cave","9","F_park.wav","None","720.916736958","122","482526.114309","474803.719742","475571.384139","476338.208215","477088.325699","477856.051312","478623.255048","479390.042641","483293.39781","469432.951962","470200.125399","470967.63243","471734.859971","472502.044538","473269.46531","474036.745719","482535.543978","Mapping"
"Blocked","Female","cave","9","F_done.wav","None","719.889675966","122","482526.114309","474803.719742","475571.384139","476338.208215","477088.325699","477856.051312","478623.255048","479390.042641","483293.39781","484043.704815","470200.125399","470967.63243","471734.859971","472502.044538","473269.46531","474036.745719","483302.736583","Mapping"
"Blocked","Female","cave","9","F_bluff.wav","None","734.60397865","122","482526.114309","474803.719742","475571.384139","476338.208215","477088.325699","477856.051312","478623.255048","479390.042641","483293.39781","484043.704815","484810.79323","470967.63243","471734.859971","472502.044538","473269.46531","474036.745719","484053.702119","Mapping"
"Blocked","Female","cave","9","F_cave.wav","None","734.144552815","122","482526.114309","474803.719742","475571.384139","476338.208215","477088.325699","477856.051312","478623.255048","479390.042641","483293.39781","484043.704815","484810.79323","485578.306135","471734.859971","472502.044538","473269.46531","474036.745719","484820.422313","Mapping"
"Blocked","Female","cave","9","F_dime.wav","space","557.437195326","122","482526.114309","474803.719742","475571.384139","476338.208215","477088.325699","477856.051312","478623.255048","479390.042641","483293.39781","484043.704815","484810.79323","485578.306135","486345.343537","472502.044538","473269.46531","474036.745719","485587.851124","Mapping"
"Blocked","Female","cave","9","F_cad.wav","None","731.401601253","122","482526.114309","474803.719742","475571.384139","476338.208215","477088.325699","477856.051312","478623.255048","479390.042641","483293.39781","484043.704815","484810.79323","485578.306135","486345.343537","487112.856132","473269.46531","474036.745719","486354.600071","Mapping"
"Blocked","Female","cave","9","F_cave.wav","None","729.511339101","122","482526.114309","474803.719742","475571.384139","476338.208215","477088.325699","477856.051312","478623.255048","479390.042641","483293.39781","484043.704815","484810.79323","485578.306135","486345.343537","487112.856132","487879.932799","474036.745719","487122.553233","Mapping"
"Blocked","Female","cave","9","F_depth.wav","None","729.161977593","122","482526.114309","474803.719742","475571.384139","476338.208215","477088.325699","477856.051312","478623.255048","479390.042641","483293.39781","484043.704815","484810.79323","485578.306135","486345.343537","487112.856132","487879.932799","488647.379541","487889.27621","Mapping"
"Blocked","Female","cave","9","F_jolt.wav","space","71.5337773872","122","482526.114309","489414.430547","475571.384139","476338.208215","477088.325699","477856.051312","478623.255048","479390.042641","483293.39781","484043.704815","484810.79323","485578.306135","486345.343537","487112.856132","487879.932799","488647.379541","488656.734391","Mapping"
"Blocked","Female","cave","9","F_cling.wav","None","725.00581239","122","482526.114309","489414.430547","490181.837407","476338.208215","477088.325699","477856.051312","478623.255048","479390.042641","483293.39781","484043.704815","484810.79323","485578.306135","486345.343537","487112.856132","487879.932799","488647.379541","489424.483192","Mapping"
"Blocked","Female","cave","9","F_cave.wav","None","723.67236446","122","482526.114309","489414.430547","490181.837407","490948.497004","477088.325699","477856.051312","478623.255048","479390.042641","483293.39781","484043.704815","484810.79323","485578.306135","486345.343537","487112.856132","487879.932799","488647.379541","490191.454432","Mapping"
"Blocked","Female","cave","9","F_jaw.wav","space","546.40170018","122","482526.114309","489414.430547","490181.837407","490948.497004","491715.739694","477856.051312","478623.255048","479390.042641","483293.39781","484043.704815","484810.79323","485578.306135","486345.343537","487112.856132","487879.932799","488647.379541","490957.77487","Mapping"
"Blocked","Female","cave","9","F_jaw.wav","None","720.472460423","122","482526.114309","489414.430547","490181.837407","490948.497004","491715.739694","492466.123683","478623.255048","479390.042641","483293.39781","484043.704815","484810.79323","485578.306135","486345.343537","487112.856132","487879.932799","488647.379541","491725.056825","Mapping"
"Blocked","Female","cave","9","F_cave.wav","None","735.895070349","122","482526.114309","489414.430547","490181.837407","490948.497004","491715.739694","492466.123683","493233.96338","479390.042641","483293.39781","484043.704815","484810.79323","485578.306135","486345.343537","487112.856132","487879.932799","488647.379541","492475.391038","Mapping"
"Blocked","Female","cave","9","F_cling.wav","space","588.626829966","122","482526.114309","489414.430547","490181.837407","490948.497004","491715.739694","492466.123683","493233.96338","494001.170516","483293.39781","484043.704815","484810.79323","485578.306135","486345.343537","487112.856132","487879.932799","488647.379541","493243.469722","Mapping"
"Blocked","Female","done","22","F_priest.wav","None","731.473637745","122","497136.734836","489414.430547","490181.837407","490948.497004","491715.739694","492466.123683","493233.96338","494001.170516","483293.39781","484043.704815","484810.79323","485578.306135","486345.343537","487112.856132","487879.932799","488647.379541","494010.715196","Mapping"
"Blocked","Female","done","22","F_depth.wav","None","720.128663961","122","497136.734836","489414.430547","490181.837407","490948.497004","491715.739694","492466.123683","493233.96338","494001.170516","497903.391651","484043.704815","484810.79323","485578.306135","486345.343537","487112.856132","487879.932799","488647.379541","497147.411077","Mapping"
"Blocked","Female","done","22","F_done.wav","None","722.446198328","122","497136.734836","489414.430547","490181.837407","490948.497004","491715.739694","492466.123683","493233.96338","494001.170516","497903.391651","498670.965771","484810.79323","485578.306135","486345.343537","487112.856132","487879.932799","488647.379541","497912.70229","Mapping"
"Blocked","Female","done","22","F_depth.wav","None","720.951363939","122","497136.734836","489414.430547","490181.837407","490948.497004","491715.739694","492466.123683","493233.96338","494001.170516","497903.391651","498670.965771","499421.717981","485578.306135","486345.343537","487112.856132","487879.932799","488647.379541","498680.245802","Mapping"
"Blocked","Female","done","22","F_cave.wav","space","193.322124906","122","497136.734836","489414.430547","490181.837407","490948.497004","491715.739694","492466.123683","493233.96338","494001.170516","497903.391651","498670.965771","499421.717981","500188.96129","486345.343537","487112.856132","487879.932799","488647.379541","499431.608312","Mapping"
"Blocked","Female","done","22","F_cave.wav","None","732.936936853","122","497136.734836","489414.430547","490181.837407","490948.497004","491715.739694","492466.123683","493233.96338","494001.170516","497903.391651","498670.965771","499421.717981","500188.96129","500955.795876","487112.856132","487879.932799","488647.379541","500198.666738","Mapping"
"Blocked","Female","done","22","F_done.wav","None","732.441029017","122","497136.734836","489414.430547","490181.837407","490948.497004","491715.739694","492466.123683","493233.96338","494001.170516","497903.391651","498670.965771","499421.717981","500188.96129","500955.795876","501723.64052","487879.932799","488647.379541","500964.939873","Mapping"
"Blocked","Female","done","22","F_park.wav","space","426.661600402","122","497136.734836","489414.430547","490181.837407","490948.497004","491715.739694","492466.123683","493233.96338","494001.170516","497903.391651","498670.965771","499421.717981","500188.96129","500955.795876","501723.64052","502490.336599","488647.379541","501733.206223","Mapping"
"Blocked","Female","done","22","F_done.wav","None","728.212208967","122","497136.734836","489414.430547","490181.837407","490948.497004","491715.739694","492466.123683","493233.96338","494001.170516","497903.391651","498670.965771","499421.717981","500188.96129","500955.795876","501723.64052","502490.336599","503257.887532","502499.93662","Mapping"
"Blocked","Female","done","22","F_cave.wav","space","628.612336106","122","497136.734836","504024.805594","490181.837407","490948.497004","491715.739694","492466.123683","493233.96338","494001.170516","497903.391651","498670.965771","499421.717981","500188.96129","500955.795876","501723.64052","502490.336599","503257.887532","503267.199098","Mapping"
"Blocked","Female","done","22","F_depth.wav","None","724.411588672","122","497136.734836","504024.805594","504792.475248","490948.497004","491715.739694","492466.123683","493233.96338","494001.170516","497903.391651","498670.965771","499421.717981","500188.96129","500955.795876","501723.64052","502490.336599","503257.887532","504034.218568","Mapping"
"Blocked","Female","done","22","F_tile.wav","None","722.453927563","122","497136.734836","504024.805594","504792.475248","505559.417117","491715.739694","492466.123683","493233.96338","494001.170516","497903.391651","498670.965771","499421.717981","500188.96129","500955.795876","501723.64052","502490.336599","503257.887532","504802.400515","Mapping"
"Blocked","Female","done","22","F_done.wav","None","721.283721112","122","497136.734836","504024.805594","504792.475248","505559.417117","506326.944243","492466.123683","493233.96338","494001.170516","497903.391651","498670.965771","499421.717981","500188.96129","500955.795876","501723.64052","502490.336599","503257.887532","505569.378248","Mapping"
"Blocked","Female","done","22","F_knife.wav","space","470.721341859","122","497136.734836","504024.805594","504792.475248","505559.417117","506326.944243","507077.173956","493233.96338","494001.170516","497903.391651","498670.965771","499421.717981","500188.96129","500955.795876","501723.64052","502490.336599","503257.887532","506336.99256","Mapping"
"Blocked","Female","done","22","F_ball.wav","None","735.311358396","122","497136.734836","504024.805594","504792.475248","505559.417117","506326.944243","507077.173956","507844.709739","494001.170516","497903.391651","498670.965771","499421.717981","500188.96129","500955.795876","501723.64052","502490.336599","503257.887532","507086.464499","Mapping"
"Blocked","Female","done","22","F_cad.wav","None","732.539035744","122","497136.734836","504024.805594","504792.475248","505559.417117","506326.944243","507077.173956","507844.709739","508611.866481","497903.391651","498670.965771","499421.717981","500188.96129","500955.795876","501723.64052","502490.336599","503257.887532","507855.013121","Mapping"
"Blocked","Female","cave","8","F_dime.wav","None","731.517539796","122","511747.618468","504024.805594","504792.475248","505559.417117","506326.944243","507077.173956","507844.709739","508611.866481","497903.391651","498670.965771","499421.717981","500188.96129","500955.795876","501723.64052","502490.336599","503257.887532","508621.808444","Mapping"
"Blocked","Female","cave","8","F_cave.wav","None","720.758751355","122","511747.618468","504024.805594","504792.475248","505559.417117","506326.944243","507077.173956","507844.709739","508611.866481","512497.559416","498670.965771","499421.717981","500188.96129","500955.795876","501723.64052","502490.336599","503257.887532","511756.898498","Mapping"
"Blocked","Female","cave","8","F_reek.wav","space","556.654069049","122","511747.618468","504024.805594","504792.475248","505559.417117","506326.944243","507077.173956","507844.709739","508611.866481","512497.559416","513264.831787","499421.717981","500188.96129","500955.795876","501723.64052","502490.336599","503257.887532","512506.88304","Mapping"
"Blocked","Female","cave","8","F_cave.wav","None","735.251688689","122","511747.618468","504024.805594","504792.475248","505559.417117","506326.944243","507077.173956","507844.709739","508611.866481","512497.559416","513264.831787","514032.073859","500188.96129","500955.795876","501723.64052","502490.336599","503257.887532","513273.833875","Mapping"
"Blocked","Female","cave","8","F_cling.wav","space","605.936610358","122","511747.618468","504024.805594","504792.475248","505559.417117","506326.944243","507077.173956","507844.709739","508611.866481","512497.559416","513264.831787","514032.073859","514799.638086","500955.795876","501723.64052","502490.336599","503257.887532","514041.563198","Mapping"
"Blocked","Female","cave","8","F_bluff.wav","None","730.479348713","122","511747.618468","504024.805594","504792.475248","505559.417117","506326.944243","507077.173956","507844.709739","508611.866481","512497.559416","513264.831787","514032.073859","514799.638086","515567.037217","501723.64052","502490.336599","503257.887532","514809.469985","Mapping"
"Blocked","Female","cave","8","F_lash.wav","None","729.67674477","122","511747.618468","504024.805594","504792.475248","505559.417117","506326.944243","507077.173956","507844.709739","508611.866481","512497.559416","513264.831787","514032.073859","514799.638086","515567.037217","516334.193649","502490.336599","503257.887532","515576.687632","Mapping"
"Blocked","Female","cave","8","F_greet.wav","None","727.739798036","122","511747.618468","504024.805594","504792.475248","505559.417117","506326.944243","507077.173956","507844.709739","508611.866481","512497.559416","513264.831787","514032.073859","514799.638086","515567.037217","516334.193649","517101.446542","503257.887532","516344.431487","Mapping"
"Blocked","Female","cave","8","F_depth.wav","None","727.573464857","122","511747.618468","504024.805594","504792.475248","505559.417117","506326.944243","507077.173956","507844.709739","508611.866481","512497.559416","513264.831787","514032.073859","514799.638086","515567.037217","516334.193649","517101.446542","517868.442516","517111.116436","Mapping"
"Blocked","Female","cave","8","F_bluff.wav","None","726.10892907","122","511747.618468","518635.995303","504792.475248","505559.417117","506326.944243","507077.173956","507844.709739","508611.866481","512497.559416","513264.831787","514032.073859","514799.638086","515567.037217","516334.193649","517101.446542","517868.442516","517878.40612","Mapping"
"Blocked","Female","cave","8","F_cave.wav","None","724.971494579","122","511747.618468","518635.995303","519403.060221","505559.417117","506326.944243","507077.173956","507844.709739","508611.866481","512497.559416","513264.831787","514032.073859","514799.638086","515567.037217","516334.193649","517101.446542","517868.442516","518645.601817","Mapping"
"Blocked","Female","cave","8","F_jaw.wav","space","546.305239317","122","511747.618468","518635.995303","519403.060221","520170.909502","506326.944243","507077.173956","507844.709739","508611.866481","512497.559416","513264.831787","514032.073859","514799.638086","515567.037217","516334.193649","517101.446542","517868.442516","519413.013623","Mapping"
"Blocked","Female","cave","8","F_lash.wav","None","721.42130154","122","511747.618468","518635.995303","519403.060221","520170.909502","520937.259002","507077.173956","507844.709739","508611.866481","512497.559416","513264.831787","514032.073859","514799.638086","515567.037217","516334.193649","517101.446542","517868.442516","520180.211175","Mapping"
"Blocked","Female","cave","8","F_cave.wav","None","721.21199379","122","511747.618468","518635.995303","519403.060221","520170.909502","520937.259002","521687.798194","507844.709739","508611.866481","512497.559416","513264.831787","514032.073859","514799.638086","515567.037217","516334.193649","517101.446542","517868.442516","520946.336836","Mapping"
"Blocked","Female","cave","8","F_park.wav","space","566.782770111","122","511747.618468","518635.995303","519403.060221","520170.909502","520937.259002","521687.798194","522454.684412","508611.866481","512497.559416","513264.831787","514032.073859","514799.638086","515567.037217","516334.193649","517101.446542","517868.442516","521697.448919","Mapping"
"Blocked","Female","cave","8","F_ball.wav","None","733.657301709","122","511747.618468","518635.995303","519403.060221","520170.909502","520937.259002","521687.798194","522454.684412","523222.482062","512497.559416","513264.831787","514032.073859","514799.638086","515567.037217","516334.193649","517101.446542","517868.442516","522464.496215","Mapping"
"Blocked","Female","cave","11","F_romp.wav","None","732.406402036","122","526358.188601","518635.995303","519403.060221","520170.909502","520937.259002","521687.798194","522454.684412","523222.482062","512497.559416","513264.831787","514032.073859","514799.638086","515567.037217","516334.193649","517101.446542","517868.442516","523231.637188","Mapping"
"Blocked","Female","cave","11","F_cave.wav","None","720.801416741","122","526358.188601","518635.995303","519403.060221","520170.909502","520937.259002","521687.798194","522454.684412","523222.482062","527125.386153","513264.831787","514032.073859","514799.638086","515567.037217","516334.193649","517101.446542","517868.442516","526367.72988","Mapping"
"Blocked","Female","cave","11","F_bluff.wav","space","479.769186437","122","526358.188601","518635.995303","519403.060221","520170.909502","520937.259002","521687.798194","522454.684412","523222.482062","527125.386153","527876.030153","514032.073859","514799.638086","515567.037217","516334.193649","517101.446542","517868.442516","527135.341719","Mapping"
"Blocked","Female","cave","11","F_lash.wav","None","733.963688661","122","526358.188601","518635.995303","519403.060221","520170.909502","520937.259002","521687.798194","522454.684412","523222.482062","527125.386153","527876.030153","528643.20699","514799.638086","515567.037217","516334.193649","517101.446542","517868.442516","527885.823714","Mapping"
"Blocked","Female","cave","11","F_cling.wav","None","733.409038628","122","526358.188601","518635.995303","519403.060221","520170.909502","520937.259002","521687.798194","522454.684412","523222.482062","527125.386153","527876.030153","528643.20699","529410.393103","515567.037217","516334.193649","517101.446542","517868.442516","528652.355315","Mapping"
"Blocked","Female","cave","11","F_park.wav","None","730.389071236","122","526358.188601","518635.995303","519403.060221","520170.909502","520937.259002","521687.798194","522454.684412","523222.482062","527125.386153","527876.030153","528643.20699","529410.393103","530177.737201","516334.193649","517101.446542","517868.442516","529421.235367","Mapping"
"Blocked","Female","cave","11","F_cave.wav","None","730.288591149","122","526358.188601","518635.995303","519403.060221","520170.909502","520937.259002","521687.798194","522454.684412","523222.482062","527125.386153","527876.030153","528643.20699","529410.393103","530177.737201","530945.029668","517101.446542","517868.442516","530187.619185","Mapping"
"Blocked","Female","cave","11","F_reek.wav","None","729.421061609","122","526358.188601","518635.995303","519403.060221","520170.909502","520937.259002","521687.798194","522454.684412","523222.482062","527125.386153","527876.030153","528643.20699","529410.393103","530177.737201","530945.029668","531712.083765","517868.442516","530954.406469","Mapping"
"Blocked","Female","cave","11","F_cave.wav","space","389.170473572","122","526358.188601","518635.995303","519403.060221","520170.909502","520937.259002","521687.798194","522454.684412","523222.482062","527125.386153","527876.030153","528643.20699","529410.393103","530177.737201","530945.029668","531712.083765","532479.535454","531721.790141","Mapping"
"Blocked","Female","cave","11","F_cad.wav","None","724.994373115","122","526358.188601","533246.65324","519403.060221","520170.909502","520937.259002","521687.798194","522454.684412","523222.482062","527125.386153","527876.030153","528643.20699","529410.393103","530177.737201","530945.029668","531712.083765","532479.535454","532489.246467","Mapping"
"Blocked","Female","cave","11","F_reek.wav","None","723.659688505","122","526358.188601","533246.65324","534013.92221","520170.909502","520937.259002","521687.798194","522454.684412","523222.482062","527125.386153","527876.030153","528643.20699","529410.393103","530177.737201","530945.029668","531712.083765","532479.535454","533256.588711","Mapping"
"Blocked","Female","cave","11","F_reek.wav","None","722.681476298","122","526358.188601","533246.65324","534013.92221","534780.972289","520937.259002","521687.798194","522454.684412","523222.482062","527125.386153","527876.030153","528643.20699","529410.393103","530177.737201","530945.029668","531712.083765","532479.535454","534023.739887","Mapping"
"Blocked","Female","cave","11","F_cave.wav","None","721.609276574","122","526358.188601","533246.65324","534013.92221","534780.972289","535548.059467","521687.798194","522454.684412","523222.482062","527125.386153","527876.030153","528643.20699","529410.393103","530177.737201","530945.029668","531712.083765","532479.535454","534791.11954","Mapping"
"Blocked","Female","cave","11","F_jaw.wav","space","520.98920627","122","526358.188601","533246.65324","534013.92221","534780.972289","535548.059467","536298.60917","522454.684412","523222.482062","527125.386153","527876.030153","528643.20699","529410.393103","530177.737201","530945.029668","531712.083765","532479.535454","535557.877143","Mapping"
"Blocked","Female","cave","11","F_depth.wav","None","735.729973865","122","526358.188601","533246.65324","534013.92221","534780.972289","535548.059467","536298.60917","537065.667596","523222.482062","527125.386153","527876.030153","528643.20699","529410.393103","530177.737201","530945.029668","531712.083765","532479.535454","536308.479406","Mapping"
"Blocked","Female","cave","11","F_ball.wav","None","734.957977693","122","526358.188601","533246.65324","534013.92221","534780.972289","535548.059467","536298.60917","537065.667596","537833.304478","527125.386153","527876.030153","528643.20699","529410.393103","530177.737201","530945.029668","531712.083765","532479.535454","537075.511552","Mapping"
"Blocked","Female","tile","13","F_done.wav","None","733.265584","122","540968.45853","533246.65324","534013.92221","534780.972289","535548.059467","536298.60917","537065.667596","537833.304478","527125.386153","527876.030153","528643.20699","529410.393103","530177.737201","530945.029668","531712.083765","532479.535454","537843.112261","Mapping"
"Blocked","Female","tile","13","F_tile.wav","None","721.330096538","122","540968.45853","533246.65324","534013.92221","534780.972289","535548.059467","536298.60917","537065.667596","537833.304478","541719.178586","527876.030153","528643.20699","529410.393103","530177.737201","530945.029668","531712.083765","532479.535454","540977.629734","Mapping"
"Blocked","Female","tile","13","F_done.wav","space","599.045222843","122","540968.45853","533246.65324","534013.92221","534780.972289","535548.059467","536298.60917","537065.667596","537833.304478","541719.178586","542486.711278","528643.20699","529410.393103","530177.737201","530945.029668","531712.083765","532479.535454","541728.620313","Mapping"
"Blocked","Female","tile","13","F_tile.wav","None","733.417386204","122","540968.45853","533246.65324","534013.92221","534780.972289","535548.059467","536298.60917","537065.667596","537833.304478","541719.178586","542486.711278","543253.690865","529410.393103","530177.737201","530945.029668","531712.083765","532479.535454","542496.816173","Mapping"
"Blocked","Female","tile","13","F_gnash.wav","space","496.23462501","122","540968.45853","533246.65324","534013.92221","534780.972289","535548.059467","536298.60917","537065.667596","537833.304478","541719.178586","542486.711278","543253.690865","544021.284463","530177.737201","530945.029668","531712.083765","532479.535454","543263.349938","Mapping"
"Blocked","Female","tile","13","F_knife.wav","None","730.302812954","122","540968.45853","533246.65324","534013.92221","534780.972289","535548.059467","536298.60917","537065.667596","537833.304478","541719.178586","542486.711278","543253.690865","544021.284463","544787.96632","530945.029668","531712.083765","532479.535454","544031.012171","Mapping"
"Blocked","Female","tile","13","F_tile.wav","None","729.528343421","122","540968.45853","533246.65324","534013.92221","534780.972289","535548.059467","536298.60917","537065.667596","537833.304478","541719.178586","542486.711278","543253.690865","544021.284463","544787.96632","545555.605675","531712.083765","532479.535454","544797.897462","Mapping"
"Blocked","Female","tile","13","F_done.wav","None","728.626186901","122","540968.45853","533246.65324","534013.92221","534780.972289","535548.059467","536298.60917","537065.667596","537833.304478","541719.178586","542486.711278","543253.690865","544021.284463","544787.96632","545555.605675","546322.837854","532479.535454","545565.432009","Mapping"
"Blocked","Female","tile","13","F_ball.wav","space","0.0361728307325","122","540968.45853","533246.65324","534013.92221","534780.972289","535548.059467","536298.60917","537065.667596","537833.304478","541719.178586","542486.711278","543253.690865","544021.284463","544787.96632","545555.605675","546322.837854","547090.215652","546332.842269","Mapping"
"Blocked","Female","tile","13","F_bluff.wav","None","725.818928098","122","540968.45853","547856.888852","534013.92221","534780.972289","535548.059467","536298.60917","537065.667596","537833.304478","541719.178586","542486.711278","543253.690865","544021.284463","544787.96632","545555.605675","546322.837854","547090.215652","547099.899767","Mapping"
"Blocked","Female","tile","13","F_cling.wav","None","725.917862335","122","540968.45853","547856.888852","548624.700106","534780.972289","535548.059467","536298.60917","537065.667596","537833.304478","541719.178586","542486.711278","543253.690865","544021.284463","544787.96632","545555.605675","546322.837854","547090.215652","547866.219587","Mapping"
"Blocked","Female","tile","13","F_tile.wav","None","723.745637617","122","540968.45853","547856.888852","548624.700106","549391.700098","535548.059467","536298.60917","537065.667596","537833.304478","541719.178586","542486.711278","543253.690865","544021.284463","544787.96632","545555.605675","546322.837854","547090.215652","548634.65258","Mapping"
"Blocked","Female","tile","13","F_cad.wav","space","548.730364651","122","540968.45853","547856.888852","548624.700106","549391.700098","550158.464194","536298.60917","537065.667596","537833.304478","541719.178586","542486.711278","543253.690865","544021.284463","544787.96632","545555.605675","546322.837854","547090.215652","549401.703895","Mapping"
"Blocked","Female","tile","13","F_reek.wav","None","721.935759531","122","540968.45853","547856.888852","548624.700106","549391.700098","550158.464194","550926.266173","537065.667596","537833.304478","541719.178586","542486.711278","543253.690865","544021.284463","544787.96632","545555.605675","546322.837854","547090.215652","550168.180154","Mapping"
"Blocked","Female","tile","13","F_ball.wav","None","720.264698524","122","540968.45853","547856.888852","548624.700106","549391.700098","550158.464194","550926.266173","551693.109107","537833.304478","541719.178586","542486.711278","543253.690865","544021.284463","544787.96632","545555.605675","546322.837854","547090.215652","550936.162997","Mapping"
"Blocked","Female","tile","13","F_cave.wav","None","720.487609724","122","540968.45853","547856.888852","548624.700106","549391.700098","550158.464194","550926.266173","551693.109107","552443.676433","541719.178586","542486.711278","543253.690865","544021.284463","544787.96632","545555.605675","546322.837854","547090.215652","551702.391921","Mapping"
"Blocked","Female","cave","12","F_cling.wav","None","735.52344866","122","555579.59228","547856.888852","548624.700106","549391.700098","550158.464194","550926.266173","551693.109107","552443.676433","541719.178586","542486.711278","543253.690865","544021.284463","544787.96632","545555.605675","546322.837854","547090.215652","552453.619942","Mapping"
"Blocked","Female","cave","12","F_bluff.wav","None","721.685332261","122","555579.59228","547856.888852","548624.700106","549391.700098","550158.464194","550926.266173","551693.109107","552443.676433","556346.881037","542486.711278","543253.690865","544021.284463","544787.96632","545555.605675","546322.837854","547090.215652","555588.532533","Mapping"
"Blocked","Female","cave","12","F_tile.wav","None","719.421284215","122","555579.59228","547856.888852","548624.700106","549391.700098","550158.464194","550926.266173","551693.109107","552443.676433","556346.881037","557097.237509","543253.690865","544021.284463","544787.96632","545555.605675","546322.837854","547090.215652","556357.134024","Mapping"
"Blocked","Female","cave","12","F_cave.wav","None","735.880848559","122","555579.59228","547856.888852","548624.700106","549391.700098","550158.464194","550926.266173","551693.109107","552443.676433","556346.881037","557097.237509","557864.395487","544021.284463","544787.96632","545555.605675","546322.837854","547090.215652","557106.635952","Mapping"
"Blocked","Female","cave","12","F_greet.wav","space","468.009307238","122","555579.59228","547856.888852","548624.700106","549391.700098","550158.464194","550926.266173","551693.109107","552443.676433","556346.881037","557097.237509","557864.395487","558631.887987","544787.96632","545555.605675","546322.837854","547090.215652","557874.175754","Mapping"
"Blocked","Female","cave","12","F_done.wav","None","732.152264725","122","555579.59228","547856.888852","548624.700106","549391.700098","550158.464194","550926.266173","551693.109107","552443.676433","556346.881037","557097.237509","557864.395487","558631.887987","559399.055858","545555.605675","546322.837854","547090.215652","558641.526036","Mapping"
"Blocked","Female","cave","12","F_cave.wav","None","730.726684284","122","555579.59228","547856.888852","548624.700106","549391.700098","550158.464194","550926.266173","551693.109107","552443.676433","556346.881037","557097.237509","557864.395487","558631.887987","559399.055858","560166.211672","546322.837854","547090.215652","559409.050998","Mapping"
"Blocked","Female","cave","12","F_depth.wav","space","541.77157818","122","555579.59228","547856.888852","548624.700106","549391.700098","550158.464194","550926.266173","551693.109107","552443.676433","556346.881037","557097.237509","557864.395487","558631.887987","559399.055858","560166.211672","560933.360994","547090.215652","560176.338518","Mapping"
"Blocked","Female","cave","12","F_gnash.wav","None","727.593560863","122","555579.59228","547856.888852","548624.700106","549391.700098","550158.464194","550926.266173","551693.109107","552443.676433","556346.881037","557097.237509","557864.395487","558631.887987","559399.055858","560166.211672","560933.360994","561700.820103","560943.087465","Mapping"
"Blocked","Female","cave","12","F_knife.wav","None","726.458908903","122","555579.59228","562467.578016","548624.700106","549391.700098","550158.464194","550926.266173","551693.109107","552443.676433","556346.881037","557097.237509","557864.395487","558631.887987","559399.055858","560166.211672","560933.360994","561700.820103","561710.386425","Mapping"
"Blocked","Female","cave","12","F_cave.wav","None","725.750292477","122","555579.59228","562467.578016","563235.241486","549391.700098","550158.464194","550926.266173","551693.109107","552443.676433","556346.881037","557097.237509","557864.395487","558631.887987","559399.055858","560166.211672","560933.360994","561700.820103","562477.135063","Mapping"
"Blocked","Female","cave","12","F_reek.wav","space","497.735642784","122","555579.59228","562467.578016","563235.241486","564002.498708","550158.464194","550926.266173","551693.109107","552443.676433","556346.881037","557097.237509","557864.395487","558631.887987","559399.055858","560166.211672","560933.360994","561700.820103","563244.289331","Mapping"
"Blocked","Female","cave","12","F_dime.wav","None","721.111513718","122","555579.59228","562467.578016","563235.241486","564002.498708","564769.502101","550926.266173","551693.109107","552443.676433","556346.881037","557097.237509","557864.395487","558631.887987","559399.055858","560166.211672","560933.360994","561700.820103","564013.24482","Mapping"
"Blocked","Female","cave","12","F_cave.wav","None","721.754277038","122","555579.59228","562467.578016","563235.241486","564002.498708","564769.502101","565536.956264","551693.109107","552443.676433","556346.881037","557097.237509","557864.395487","558631.887987","559399.055858","560166.211672","560933.360994","561700.820103","564778.661247","Mapping"
"Blocked","Female","cave","12","F_park.wav","None","719.468896306","122","555579.59228","562467.578016","563235.241486","564002.498708","564769.502101","565536.956264","566304.232035","552443.676433","556346.881037","557097.237509","557864.395487","558631.887987","559399.055858","560166.211672","560933.360994","561700.820103","565547.267375","Mapping"
"Blocked","Female","cave","12","F_tile.wav","space","75.3040990967","122","555579.59228","562467.578016","563235.241486","564002.498708","564769.502101","565536.956264","566304.232035","567054.22647","556346.881037","557097.237509","557864.395487","558631.887987","559399.055858","560166.211672","560933.360994","561700.820103","566314.640844","Mapping"
"Blocked","Female","tile","14","F_knife.wav","None","734.732593133","122","570190.36461","562467.578016","563235.241486","564002.498708","564769.502101","565536.956264","566304.232035","567054.22647","556346.881037","557097.237509","557864.395487","558631.887987","559399.055858","560166.211672","560933.360994","561700.820103","567063.147555","Mapping"
"Blocked","Female","tile","14","F_jaw.wav","None","719.841445534","122","570190.36461","562467.578016","563235.241486","564002.498708","564769.502101","565536.956264","566304.232035","567054.22647","570957.482705","557097.237509","557864.395487","558631.887987","559399.055858","560166.211672","560933.360994","561700.820103","570200.051198","Mapping"
"Blocked","Female","tile","14","F_lash.wav","None","719.480953921","122","570190.36461","562467.578016","563235.241486","564002.498708","564769.502101","565536.956264","566304.232035","567054.22647","570957.482705","571707.797749","557864.395487","558631.887987","559399.055858","560166.211672","560933.360994","561700.820103","570967.118281","Mapping"
"Blocked","Female","tile","14","F_ball.wav","None","734.994150509","122","570190.36461","562467.578016","563235.241486","564002.498708","564769.502101","565536.956264","566304.232035","567054.22647","570957.482705","571707.797749","572475.292412","558631.887987","559399.055858","560166.211672","560933.360994","561700.820103","571717.68437","Mapping"
"Blocked","Female","tile","14","F_greet.wav","None","732.905401557","122","570190.36461","562467.578016","563235.241486","564002.498708","564769.502101","565536.956264","566304.232035","567054.22647","570957.482705","571707.797749","572475.292412","573242.14555","559399.055858","560166.211672","560933.360994","561700.820103","572486.134986","Mapping"
"Blocked","Female","tile","14","F_tile.wav","None","734.447848052","122","570190.36461","562467.578016","563235.241486","564002.498708","564769.502101","565536.956264","566304.232035","567054.22647","570957.482705","571707.797749","572475.292412","573242.14555","574009.454402","560166.211672","560933.360994","561700.820103","573251.080238","Mapping"
"Blocked","Female","tile","14","F_jolt.wav","space","523.01519383","122","570190.36461","562467.578016","563235.241486","564002.498708","564769.502101","565536.956264","566304.232035","567054.22647","570957.482705","571707.797749","572475.292412","573242.14555","574009.454402","574776.78397","560933.360994","561700.820103","574018.688058","Mapping"
"Blocked","Female","tile","14","F_jolt.wav","None","730.716790873","122","570190.36461","562467.578016","563235.241486","564002.498708","564769.502101","565536.956264","566304.232035","567054.22647","570957.482705","571707.797749","572475.292412","573242.14555","574009.454402","574776.78397","575544.392099","561700.820103","574786.485399","Mapping"
"Blocked","Female","tile","14","F_cave.wav","None","729.117766357","122","570190.36461","562467.578016","563235.241486","564002.498708","564769.502101","565536.956264","566304.232035","567054.22647","570957.482705","571707.797749","572475.292412","573242.14555","574009.454402","574776.78397","575544.392099","576311.477422","575554.42372","Mapping"
"Blocked","Female","tile","14","F_tile.wav","None","728.581357325","122","570190.36461","577078.680539","563235.241486","564002.498708","564769.502101","565536.956264","566304.232035","567054.22647","570957.482705","571707.797749","572475.292412","573242.14555","574009.454402","574776.78397","575544.392099","576311.477422","576321.431442","Mapping"
"Blocked","Female","tile","14","F_cling.wav","None","728.293829714","122","570190.36461","577078.680539","577845.83357","564002.498708","564769.502101","565536.956264","566304.232035","567054.22647","570957.482705","571707.797749","572475.292412","573242.14555","574009.454402","574776.78397","575544.392099","576311.477422","577088.045901","Mapping"
"Blocked","Female","tile","14","F_tile.wav","space","31.0508175753","122","570190.36461","577078.680539","577845.83357","578613.248159","564769.502101","565536.956264","566304.232035","567054.22647","570957.482705","571707.797749","572475.292412","573242.14555","574009.454402","574776.78397","575544.392099","576311.477422","577855.515212","Mapping"
"Blocked","Female","tile","14","F_park.wav","None","724.667580987","122","570190.36461","577078.680539","577845.83357","578613.248159","579379.96588","565536.956264","566304.232035","567054.22647","570957.482705","571707.797749","572475.292412","573242.14555","574009.454402","574776.78397","575544.392099","576311.477422","578622.843543","Mapping"
"Blocked","Female","tile","14","F_tile.wav","None","724.641919922","122","570190.36461","577078.680539","577845.83357","578613.248159","579379.96588","580147.436738","566304.232035","567054.22647","570957.482705","571707.797749","572475.292412","573242.14555","574009.454402","574776.78397","575544.392099","576311.477422","579389.371434","Mapping"
"Blocked","Female","tile","14","F_cling.wav","space","472.302743685","122","570190.36461","577078.680539","577845.83357","578613.248159","579379.96588","580147.436738","580915.334868","567054.22647","570957.482705","571707.797749","572475.292412","573242.14555","574009.454402","574776.78397","575544.392099","576311.477422","580157.214531","Mapping"
"Blocked","Female","tile","14","F_done.wav","None","720.402278952","122","570190.36461","577078.680539","577845.83357","578613.248159","579379.96588","580147.436738","580915.334868","581681.548642","570957.482705","571707.797749","572475.292412","573242.14555","574009.454402","574776.78397","575544.392099","576311.477422","580925.024857","Mapping"
"Blocked","Female","done","20","F_priest.wav","None","720.934668789","122","584801.085618","577078.680539","577845.83357","578613.248159","579379.96588","580147.436738","580915.334868","581681.548642","570957.482705","571707.797749","572475.292412","573242.14555","574009.454402","574776.78397","575544.392099","576311.477422","581690.83733","Mapping"
"Blocked","Female","done","20","F_depth.wav","None","720.637247738","122","584801.085618","577078.680539","577845.83357","578613.248159","579379.96588","580147.436738","580915.334868","581681.548642","585567.853115","571707.797749","572475.292412","573242.14555","574009.454402","574776.78397","575544.392099","576311.477422","584810.651321","Mapping"
"Blocked","Female","done","20","F_cad.wav","None","720.222960663","122","584801.085618","577078.680539","577845.83357","578613.248159","579379.96588","580147.436738","580915.334868","581681.548642","585567.853115","586318.513192","572475.292412","573242.14555","574009.454402","574776.78397","575544.392099","576311.477422","585577.571857","Mapping"
"Blocked","Female","done","20","F_cad.wav","None","736.058002658","122","584801.085618","577078.680539","577845.83357","578613.248159","579379.96588","580147.436738","580915.334868","581681.548642","585567.853115","586318.513192","587085.82359","573242.14555","574009.454402","574776.78397","575544.392099","576311.477422","586328.384355","Mapping"
"Blocked","Female","done","20","F_done.wav","None","735.262509625","122","584801.085618","577078.680539","577845.83357","578613.248159","579379.96588","580147.436738","580915.334868","581681.548642","585567.853115","586318.513192","587085.82359","587853.088232","574009.454402","574776.78397","575544.392099","576311.477422","587095.495339","Mapping"
"Blocked","Female","done","20","F_jaw.wav","space","446.333435553","122","584801.085618","577078.680539","577845.83357","578613.248159","579379.96588","580147.436738","580915.334868","581681.548642","585567.853115","586318.513192","587085.82359","587853.088232","588620.36555","574776.78397","575544.392099","576311.477422","587862.959395","Mapping"
"Blocked","Female","done","20","F_done.wav","None","732.725155758","122","584801.085618","577078.680539","577845.83357","578613.248159","579379.96588","580147.436738","580915.334868","581681.548642","585567.853115","586318.513192","587085.82359","587853.088232","588620.36555","589387.592782","575544.392099","576311.477422","588629.747606","Mapping"
"Blocked","Female","done","20","F_greet.wav","None","731.9256435","122","584801.085618","577078.680539","577845.83357","578613.248159","579379.96588","580147.436738","580915.334868","581681.548642","585567.853115","586318.513192","587085.82359","587853.088232","588620.36555","589387.592782","590154.962541","576311.477422","589397.36501","Mapping"
"Blocked","Female","done","20","F_done.wav","space","24.3746119959","122","584801.085618","577078.680539","577845.83357","578613.248159","579379.96588","580147.436738","580915.334868","581681.548642","585567.853115","586318.513192","587085.82359","587853.088232","588620.36555","589387.592782","590154.962541","590922.063632","590164.834941","Mapping"
"Blocked","Female","done","20","F_depth.wav","space","449.509842729","122","584801.085618","591689.468327","577845.83357","578613.248159","579379.96588","580147.436738","580915.334868","581681.548642","585567.853115","586318.513192","587085.82359","587853.088232","588620.36555","589387.592782","590154.962541","590922.063632","590931.675711","Mapping"
"Blocked","Female","done","20","F_done.wav","None","726.369558935","122","584801.085618","591689.468327","592456.422254","578613.248159","579379.96588","580147.436738","580915.334868","581681.548642","585567.853115","586318.513192","587085.82359","587853.088232","588620.36555","589387.592782","590154.962541","590922.063632","591699.41029","Mapping"
"Blocked","Female","done","20","F_greet.wav","space","411.966466243","122","584801.085618","591689.468327","592456.422254","593223.502012","579379.96588","580147.436738","580915.334868","581681.548642","585567.853115","586318.513192","587085.82359","587853.088232","588620.36555","589387.592782","590154.962541","590922.063632","592466.110698","Mapping"
"Blocked","Female","done","20","F_reek.wav","None","725.117113398","122","584801.085618","591689.468327","592456.422254","593223.502012","593991.001004","580147.436738","580915.334868","581681.548642","585567.853115","586318.513192","587085.82359","587853.088232","588620.36555","589387.592782","590154.962541","590922.063632","593232.51894","Mapping"
"Blocked","Female","done","20","F_gnash.wav","None","723.359175783","122","584801.085618","591689.468327","592456.422254","593223.502012","593991.001004","594758.395806","580915.334868","581681.548642","585567.853115","586318.513192","587085.82359","587853.088232","588620.36555","589387.592782","590154.962541","590922.063632","594000.528061","Mapping"
"Blocked","Female","done","20","F_cave.wav","None","721.699244881","122","584801.085618","591689.468327","592456.422254","593223.502012","593991.001004","594758.395806","595525.514211","581681.548642","585567.853115","586318.513192","587085.82359","587853.088232","588620.36555","589387.592782","590154.962541","590922.063632","594768.312108","Mapping"
"Blocked","Female","done","20","F_greet.wav","None","721.164381699","122","584801.085618","591689.468327","592456.422254","593223.502012","593991.001004","594758.395806","595525.514211","596292.803895","585567.853115","586318.513192","587085.82359","587853.088232","588620.36555","589387.592782","590154.962541","590922.063632","595535.302207","Mapping"
"Blocked","Female","done","23","F_jaw.wav","None","720.587471471","122","599411.733043","591689.468327","592456.422254","593223.502012","593991.001004","594758.395806","595525.514211","596292.803895","585567.853115","586318.513192","587085.82359","587853.088232","588620.36555","589387.592782","590154.962541","590922.063632","596302.733491","Mapping"
"Blocked","Female","done","23","F_priest.wav","None","721.078741743","122","599411.733043","591689.468327","592456.422254","593223.502012","593991.001004","594758.395806","595525.514211","596292.803895","600178.941725","586318.513192","587085.82359","587853.088232","588620.36555","589387.592782","590154.962541","590922.063632","599421.36831","Mapping"
"Blocked","Female","done","23","F_cad.wav","None","719.793833428","122","599411.733043","591689.468327","592456.422254","593223.502012","593991.001004","594758.395806","595525.514211","596292.803895","600178.941725","600929.633337","587085.82359","587853.088232","588620.36555","589387.592782","590154.962541","590922.063632","600188.922025","Mapping"
"Blocked","Female","done","23","F_done.wav","None","735.93866326","122","599411.733043","591689.468327","592456.422254","593223.502012","593991.001004","594758.395806","595525.514211","596292.803895","600178.941725","600929.633337","601696.467306","587853.088232","588620.36555","589387.592782","590154.962541","590922.063632","600939.182655","Mapping"
"Blocked","Female","done","23","F_park.wav","space","490.734500097","122","599411.733043","591689.468327","592456.422254","593223.502012","593991.001004","594758.395806","595525.514211","596292.803895","600178.941725","600929.633337","601696.467306","602463.630231","588620.36555","589387.592782","590154.962541","590922.063632","601706.096389","Mapping"
"Blocked","Female","done","23","F_ball.wav","None","733.140679542","122","599411.733043","591689.468327","592456.422254","593223.502012","593991.001004","594758.395806","595525.514211","596292.803895","600178.941725","600929.633337","601696.467306","602463.630231","603230.814488","589387.592782","590154.962541","590922.063632","602473.1307","Mapping"
"Blocked","Female","done","23","F_romp.wav","None","733.250743855","122","599411.733043","591689.468327","592456.422254","593223.502012","593991.001004","594758.395806","595525.514211","596292.803895","600178.941725","600929.633337","601696.467306","602463.630231","603230.814488","603998.49218","590154.962541","590922.063632","603239.879956","Mapping"
"Blocked","Female","done","23","F_reek.wav","None","731.579064523","122","599411.733043","591689.468327","592456.422254","593223.502012","593991.001004","594758.395806","595525.514211","596292.803895","600178.941725","600929.633337","601696.467306","602463.630231","603230.814488","603998.49218","604765.224432","590922.063632","604008.039952","Mapping"
"Blocked","Female","done","23","F_knife.wav","None","732.16494068","122","599411.733043","591689.468327","592456.422254","593223.502012","593991.001004","594758.395806","595525.514211","596292.803895","600178.941725","600929.633337","601696.467306","602463.630231","603230.814488","603998.49218","604765.224432","605532.576569","604773.990624","Mapping"
"Blocked","Female","done","23","F_done.wav","None","729.453524415","122","599411.733043","606299.644579","592456.422254","593223.502012","593991.001004","594758.395806","595525.514211","596292.803895","600178.941725","600929.633337","601696.467306","602463.630231","603230.814488","603998.49218","604765.224432","605532.576569","605542.937456","Mapping"
"Blocked","Female","done","23","F_knife.wav","space","503.945929973","122","599411.733043","606299.644579","607067.398636","593223.502012","593991.001004","594758.395806","595525.514211","596292.803895","600178.941725","600929.633337","601696.467306","602463.630231","603230.814488","603998.49218","604765.224432","605532.576569","606308.791667","Mapping"
"Blocked","Female","done","23","F_done.wav","None","726.78446435","122","599411.733043","606299.644579","607067.398636","607834.331539","593991.001004","594758.395806","595525.514211","596292.803895","600178.941725","600929.633337","601696.467306","602463.630231","603230.814488","603998.49218","604765.224432","605532.576569","607076.952591","Mapping"
"Blocked","Female","done","23","F_greet.wav","space","473.1999535","122","599411.733043","606299.644579","607067.398636","607834.331539","608601.736543","594758.395806","595525.514211","596292.803895","600178.941725","600929.633337","601696.467306","602463.630231","603230.814488","603998.49218","604765.224432","605532.576569","607843.469042","Mapping"
