"Condition","Talker","Target","Trial","current_stimulus","response_response","response_time_response","subject_nr","time_Audio1","time_Audio10","time_Audio11","time_Audio12","time_Audio13","time_Audio14","time_Audio15","time_Audio16","time_Audio2","time_Audio3","time_Audio4","time_Audio5","time_Audio6","time_Audio7","time_Audio8","time_Audio9","time_response","title"
"Mixed","Female","cave","24","M_jaw.wav","NA","NA","231","148367.261588","NA","NA","NA","NA","NA","NA","NA","NA","NA","NA","NA","NA","NA","NA","NA","NA","Mapping"
"Mixed","Female","cave","24","M_gnash.wav","None","718.801718787","231","148367.261588","NA","NA","NA","NA","NA","NA","NA","149116.816765","NA","NA","NA","NA","NA","NA","NA","148379.975099","Mapping"
"Mixed","Female","cave","24","M_gnash.wav","None","737.666540081","231","148367.261588","NA","NA","NA","NA","NA","NA","NA","149116.816765","149883.593199","NA","NA","NA","NA","NA","NA","149125.818034","Mapping"
"Mixed","Female","cave","24","F_cave.wav","None","737.70951503","231","148367.261588","NA","NA","NA","NA","NA","NA","NA","149116.816765","149883.593199","150649.942355","NA","NA","NA","NA","NA","149892.520884","Mapping"
"Mixed","Female","cave","24","F_romp.wav","space","399.222985958","231","148367.261588","NA","NA","NA","NA","NA","NA","NA","149116.816765","149883.593199","150649.942355","151416.821434","NA","NA","NA","NA","150659.121398","Mapping"
"Mixed","Female","cave","24","F_cave.wav","None","733.691500151","231","148367.261588","NA","NA","NA","NA","NA","NA","NA","149116.816765","149883.593199","150649.942355","151416.821434","152183.544071","NA","NA","NA","151425.956574","Mapping"
"Mixed","Female","cave","24","F_jolt.wav","space","377.866847091","231","148367.261588","NA","NA","NA","NA","NA","NA","NA","149116.816765","149883.593199","150649.942355","151416.821434","152183.544071","152950.496424","NA","NA","152192.46279","Mapping"
"Mixed","Female","cave","24","F_cave.wav","None","731.305301422","231","148367.261588","NA","NA","NA","NA","NA","NA","NA","149116.816765","149883.593199","150649.942355","151416.821434","152183.544071","152950.496424","153716.772924","NA","152959.507586","Mapping"
"Mixed","Female","cave","24","M_lash.wav","space","300.646202872","231","148367.261588","NA","NA","NA","NA","NA","NA","NA","149116.816765","149883.593199","150649.942355","151416.821434","152183.544071","152950.496424","153716.772924","154483.443311","153725.627954","Mapping"
"Mixed","Female","cave","24","M_gnash.wav","None","728.289316874","231","148367.261588","155250.076907","NA","NA","NA","NA","NA","NA","149116.816765","149883.593199","150649.942355","151416.821434","152183.544071","152950.496424","153716.772924","154483.443311","154492.385528","Mapping"
"Mixed","Female","cave","24","F_cling.wav","None","728.952184203","231","148367.261588","155250.076907","156016.62146","NA","NA","NA","NA","NA","149116.816765","149883.593199","150649.942355","151416.821434","152183.544071","152950.496424","153716.772924","154483.443311","155258.984805","Mapping"
"Mixed","Female","cave","24","F_cling.wav","space","368.770353263","231","148367.261588","155250.076907","156016.62146","156783.417063","NA","NA","NA","NA","149116.816765","149883.593199","150649.942355","151416.821434","152183.544071","152950.496424","153716.772924","154483.443311","156025.469997","Mapping"
"Mixed","Female","cave","24","F_cave.wav","None","726.242281147","231","148367.261588","155250.076907","156016.62146","156783.417063","157550.168762","NA","NA","NA","149116.816765","149883.593199","150649.942355","151416.821434","152183.544071","152950.496424","153716.772924","154483.443311","156792.431626","Mapping"
"Mixed","Female","cave","24","M_done.wav","space","603.193821036","231","148367.261588","155250.076907","156016.62146","156783.417063","157550.168762","158317.307547","NA","NA","149116.816765","149883.593199","150649.942355","151416.821434","152183.544071","152950.496424","153716.772924","154483.443311","157559.064912","Mapping"
"Mixed","Female","cave","24","M_priest.wav","None","722.157794051","231","148367.261588","155250.076907","156016.62146","156783.417063","157550.168762","158317.307547","159083.451412","NA","149116.816765","149883.593199","150649.942355","151416.821434","152183.544071","152950.496424","153716.772924","154483.443311","158326.907684","Mapping"
"Mixed","Female","cave","24","M_cad.wav","None","723.350893357","231","148367.261588","155250.076907","156016.62146","156783.417063","157550.168762","158317.307547","159083.451412","159850.673982","149116.816765","149883.593199","150649.942355","151416.821434","152183.544071","152950.496424","153716.772924","154483.443311","159092.347561","Mapping"
"Mixed","Male","cave","18","M_done.wav","None","722.020830144","231","162983.925467","155250.076907","156016.62146","156783.417063","157550.168762","158317.307547","159083.451412","159850.673982","149116.816765","149883.593199","150649.942355","151416.821434","152183.544071","152950.496424","153716.772924","154483.443311","159859.657009","Mapping"
"Mixed","Male","cave","18","F_cling.wav","None","722.154083895","231","162983.925467","155250.076907","156016.62146","156783.417063","157550.168762","158317.307547","159083.451412","159850.673982","163750.629245","149883.593199","150649.942355","151416.821434","152183.544071","152950.496424","153716.772924","154483.443311","162992.795337","Mapping"
"Mixed","Male","cave","18","M_cave.wav","None","720.504954108","231","162983.925467","155250.076907","156016.62146","156783.417063","157550.168762","158317.307547","159083.451412","159850.673982","163750.629245","164500.752682","150649.942355","151416.821434","152183.544071","152950.496424","153716.772924","154483.443311","163759.852809","Mapping"
"Mixed","Male","cave","18","M_depth.wav","space","492.444889038","231","162983.925467","155250.076907","156016.62146","156783.417063","157550.168762","158317.307547","159083.451412","159850.673982","163750.629245","164500.752682","165267.173566","151416.821434","152183.544071","152950.496424","153716.772924","154483.443311","164509.673257","Mapping"
"Mixed","Male","cave","18","M_cave.wav","None","734.369207872","231","162983.925467","155250.076907","156016.62146","156783.417063","157550.168762","158317.307547","159083.451412","159850.673982","163750.629245","164500.752682","165267.173566","166033.504172","152183.544071","152950.496424","153716.772924","154483.443311","165275.913584","Mapping"
"Mixed","Male","cave","18","M_greet.wav","space","487.080115709","231","162983.925467","155250.076907","156016.62146","156783.417063","157550.168762","158317.307547","159083.451412","159850.673982","163750.629245","164500.752682","165267.173566","166033.504172","166800.300083","152950.496424","153716.772924","154483.443311","166042.980331","Mapping"
"Mixed","Male","cave","18","F_reek.wav","None","732.439348823","231","162983.925467","155250.076907","156016.62146","156783.417063","157550.168762","158317.307547","159083.451412","159850.673982","163750.629245","164500.752682","165267.173566","166033.504172","166800.300083","167566.71633","153716.772924","154483.443311","166809.073182","Mapping"
"Mixed","Male","cave","18","F_cad.wav","None","732.148416806","231","162983.925467","155250.076907","156016.62146","156783.417063","157550.168762","158317.307547","159083.451412","159850.673982","163750.629245","164500.752682","165267.173566","166033.504172","166800.300083","167566.71633","168333.439895","154483.443311","167575.473043","Mapping"
"Mixed","Male","cave","18","M_cling.wav","None","730.012957472","231","162983.925467","155250.076907","156016.62146","156783.417063","157550.168762","158317.307547","159083.451412","159850.673982","163750.629245","164500.752682","165267.173566","166033.504172","166800.300083","167566.71633","168333.439895","169100.364422","168342.238037","Mapping"
"Mixed","Male","cave","18","M_cave.wav","None","727.38560359","231","162983.925467","169866.775722","156016.62146","156783.417063","157550.168762","158317.307547","159083.451412","159850.673982","163750.629245","164500.752682","165267.173566","166033.504172","166800.300083","167566.71633","168333.439895","169100.364422","169109.819557","Mapping"
"Mixed","Male","cave","18","F_bluff.wav","space","470.370231895","231","162983.925467","169866.775722","170633.437762","156783.417063","157550.168762","158317.307547","159083.451412","159850.673982","163750.629245","164500.752682","165267.173566","166033.504172","166800.300083","167566.71633","168333.439895","169100.364422","169875.615293","Mapping"
"Mixed","Male","cave","18","F_reek.wav","None","725.908064866","231","162983.925467","169866.775722","170633.437762","171400.093927","157550.168762","158317.307547","159083.451412","159850.673982","163750.629245","164500.752682","165267.173566","166033.504172","166800.300083","167566.71633","168333.439895","169100.364422","170642.140987","Mapping"
"Mixed","Male","cave","18","F_reek.wav","None","724.034784478","231","162983.925467","169866.775722","170633.437762","171400.093927","172167.023401","158317.307547","159083.451412","159850.673982","163750.629245","164500.752682","165267.173566","166033.504172","166800.300083","167566.71633","168333.439895","169100.364422","171408.921131","Mapping"
"Mixed","Male","cave","18","F_gnash.wav","None","722.805202706","231","162983.925467","169866.775722","170633.437762","171400.093927","172167.023401","172934.189084","159083.451412","159850.673982","163750.629245","164500.752682","165267.173566","166033.504172","166800.300083","167566.71633","168333.439895","169100.364422","172175.85617","Mapping"
"Mixed","Male","cave","18","M_cave.wav","None","719.660602044","231","162983.925467","169866.775722","170633.437762","171400.093927","172167.023401","172934.189084","173700.597292","159850.673982","163750.629245","164500.752682","165267.173566","166033.504172","166800.300083","167566.71633","168333.439895","169100.364422","172943.429343","Mapping"
"Mixed","Male","cave","18","F_gnash.wav","space","452.132723178","231","162983.925467","169866.775722","170633.437762","171400.093927","172167.023401","172934.189084","173700.597292","174467.077846","163750.629245","164500.752682","165267.173566","166033.504172","166800.300083","167566.71633","168333.439895","169100.364422","173709.81931","Mapping"
"Mixed","Male","ball","3","M_cave.wav","None","720.817837282","231","177600.564612","169866.775722","170633.437762","171400.093927","172167.023401","172934.189084","173700.597292","174467.077846","163750.629245","164500.752682","165267.173566","166033.504172","166800.300083","167566.71633","168333.439895","169100.364422","174476.097047","Mapping"
"Mixed","Male","ball","3","F_bluff.wav","None","722.952369018","231","177600.564612","169866.775722","170633.437762","171400.093927","172167.023401","172934.189084","173700.597292","174467.077846","178367.007757","164500.752682","165267.173566","166033.504172","166800.300083","167566.71633","168333.439895","169100.364422","177610.097349","Mapping"
"Mixed","Male","ball","3","M_ball.wav","None","723.160133464","231","177600.564612","169866.775722","170633.437762","171400.093927","172167.023401","172934.189084","173700.597292","174467.077846","178367.007757","179133.723283","165267.173566","166033.504172","166800.300083","167566.71633","168333.439895","169100.364422","178376.152173","Mapping"
"Mixed","Male","ball","3","M_lash.wav","space","531.000951305","231","177600.564612","169866.775722","170633.437762","171400.093927","172167.023401","172934.189084","173700.597292","174467.077846","178367.007757","179133.723283","179900.053271","166033.504172","166800.300083","167566.71633","168333.439895","169100.364422","179142.811739","Mapping"
"Mixed","Male","ball","3","M_ball.wav","None","722.296921886","231","177600.564612","169866.775722","170633.437762","171400.093927","172167.023401","172934.189084","173700.597292","174467.077846","178367.007757","179133.723283","179900.053271","180666.787966","166800.300083","167566.71633","168333.439895","169100.364422","179909.128431","Mapping"
"Mixed","Male","ball","3","F_gnash.wav","space","493.819473195","231","177600.564612","169866.775722","170633.437762","171400.093927","172167.023401","172934.189084","173700.597292","174467.077846","178367.007757","179133.723283","179900.053271","180666.787966","181416.511951","167566.71633","168333.439895","169100.364422","180675.993907","Mapping"
"Mixed","Male","ball","3","F_gnash.wav","None","735.58827769","231","177600.564612","169866.775722","170633.437762","171400.093927","172167.023401","172934.189084","173700.597292","174467.077846","178367.007757","179133.723283","179900.053271","180666.787966","181416.511951","182182.931908","168333.439895","169100.364422","181425.539809","Mapping"
"Mixed","Male","ball","3","M_ball.wav","None","736.108616227","231","177600.564612","169866.775722","170633.437762","171400.093927","172167.023401","172934.189084","173700.597292","174467.077846","178367.007757","179133.723283","179900.053271","180666.787966","181416.511951","182182.931908","182949.531494","169100.364422","182191.723248","Mapping"
"Mixed","Male","ball","3","M_tile.wav","space","547.074865899","231","177600.564612","169866.775722","170633.437762","171400.093927","172167.023401","172934.189084","173700.597292","174467.077846","178367.007757","179133.723283","179900.053271","180666.787966","181416.511951","182182.931908","182949.531494","183716.574435","182958.690132","Mapping"
"Mixed","Male","ball","3","M_ball.wav","None","734.73032203","231","177600.564612","184483.35025","170633.437762","171400.093927","172167.023401","172934.189084","173700.597292","174467.077846","178367.007757","179133.723283","179900.053271","180666.787966","181416.511951","182182.931908","182949.531494","183716.574435","183725.350007","Mapping"
"Mixed","Male","ball","3","F_cling.wav","space","605.375656276","231","177600.564612","184483.35025","185249.745473","171400.093927","172167.023401","172934.189084","173700.597292","174467.077846","178367.007757","179133.723283","179900.053271","180666.787966","181416.511951","182182.931908","182949.531494","183716.574435","184492.258458","Mapping"
"Mixed","Male","ball","3","M_priest.wav","None","734.912115964","231","177600.564612","184483.35025","185249.745473","186016.569828","172167.023401","172934.189084","173700.597292","174467.077846","178367.007757","179133.723283","179900.053271","180666.787966","181416.511951","182182.931908","182949.531494","183716.574435","185258.531248","Mapping"
"Mixed","Male","ball","3","F_jaw.wav","None","733.318637242","231","177600.564612","184483.35025","185249.745473","186016.569828","186783.214554","172934.189084","173700.597292","174467.077846","178367.007757","179133.723283","179900.053271","180666.787966","181416.511951","182182.931908","182949.531494","183716.574435","186025.40538","Mapping"
"Mixed","Male","ball","3","F_cave.wav","None","732.424199232","231","177600.564612","184483.35025","185249.745473","186016.569828","186783.214554","187549.980166","173700.597292","174467.077846","178367.007757","179133.723283","179900.053271","180666.787966","181416.511951","182182.931908","182949.531494","183716.574435","186792.173466","Mapping"
"Mixed","Male","ball","3","F_dime.wav","None","730.517218937","231","177600.564612","184483.35025","185249.745473","186016.569828","186783.214554","187549.980166","188316.605105","174467.077846","178367.007757","179133.723283","179900.053271","180666.787966","181416.511951","182182.931908","182949.531494","183716.574435","187558.863022","Mapping"
"Mixed","Male","ball","3","F_cad.wav","None","728.598490125","231","177600.564612","184483.35025","185249.745473","186016.569828","186783.214554","187549.980166","188316.605105","189083.085351","178367.007757","179133.723283","179900.053271","180666.787966","181416.511951","182182.931908","182949.531494","183716.574435","188325.657078","Mapping"
"Mixed","Female","ball","7","M_gnash.wav","None","727.153105312","231","192216.776789","184483.35025","185249.745473","186016.569828","186783.214554","187549.980166","188316.605105","189083.085351","178367.007757","179133.723283","179900.053271","180666.787966","181416.511951","182182.931908","182949.531494","183716.574435","189091.857213","Mapping"
"Mixed","Female","ball","7","F_ball.wav","None","722.627118812","231","192216.776789","184483.35025","185249.745473","186016.569828","186783.214554","187549.980166","188316.605105","189083.085351","192983.162428","179133.723283","179900.053271","180666.787966","181416.511951","182182.931908","182949.531494","183716.574435","192226.141027","Mapping"
"Mixed","Female","ball","7","M_greet.wav","space","481.503867893","231","192216.776789","184483.35025","185249.745473","186016.569828","186783.214554","187549.980166","188316.605105","189083.085351","192983.162428","193749.919074","179900.053271","180666.787966","181416.511951","182182.931908","182949.531494","183716.574435","192992.060432","Mapping"
"Mixed","Female","ball","7","M_reek.wav","None","721.585823572","231","192216.776789","184483.35025","185249.745473","186016.569828","186783.214554","187549.980166","188316.605105","189083.085351","192983.162428","193749.919074","194516.513404","180666.787966","181416.511951","182182.931908","182949.531494","183716.574435","193759.202618","Mapping"
"Mixed","Female","ball","7","F_cling.wav","None","721.950029489","231","192216.776789","184483.35025","185249.745473","186016.569828","186783.214554","187549.980166","188316.605105","189083.085351","192983.162428","193749.919074","194516.513404","195283.104025","181416.511951","182182.931908","182949.531494","183716.574435","194525.37369","Mapping"
"Mixed","Female","ball","7","M_cad.wav","None","720.58904916","231","192216.776789","184483.35025","185249.745473","186016.569828","186783.214554","187549.980166","188316.605105","189083.085351","192983.162428","193749.919074","194516.513404","195283.104025","196032.522238","182182.931908","182949.531494","183716.574435","195292.109622","Mapping"
"Mixed","Female","ball","7","F_bluff.wav","None","737.462176476","231","192216.776789","184483.35025","185249.745473","186016.569828","186783.214554","187549.980166","188316.605105","189083.085351","192983.162428","193749.919074","194516.513404","195283.104025","196032.522238","196799.44893","182949.531494","183716.574435","196041.231647","Mapping"
"Mixed","Female","ball","7","F_jaw.wav","space","353.115986683","231","192216.776789","184483.35025","185249.745473","186016.569828","186783.214554","187549.980166","188316.605105","189083.085351","192983.162428","193749.919074","194516.513404","195283.104025","196032.522238","196799.44893","197566.132302","183716.574435","196808.377543","Mapping"
"Mixed","Female","ball","7","M_cad.wav","None","734.887072933","231","192216.776789","184483.35025","185249.745473","186016.569828","186783.214554","187549.980166","188316.605105","189083.085351","192983.162428","193749.919074","194516.513404","195283.104025","196032.522238","196799.44893","197566.132302","198332.935943","197574.92797","Mapping"
"Mixed","Female","ball","7","M_jaw.wav","None","733.898955397","231","192216.776789","199099.380633","185249.745473","186016.569828","186783.214554","187549.980166","188316.605105","189083.085351","192983.162428","193749.919074","194516.513404","195283.104025","196032.522238","196799.44893","197566.132302","198332.935943","198341.694201","Mapping"
"Mixed","Female","ball","7","F_ball.wav","None","734.61283627","231","192216.776789","199099.380633","199866.279499","186016.569828","186783.214554","187549.980166","188316.605105","189083.085351","192983.162428","193749.919074","194516.513404","195283.104025","196032.522238","196799.44893","197566.132302","198332.935943","199108.440954","Mapping"
"Mixed","Female","ball","7","M_park.wav","space","667.683331179","231","192216.776789","199099.380633","199866.279499","200632.998117","186783.214554","187549.980166","188316.605105","189083.085351","192983.162428","193749.919074","194516.513404","195283.104025","196032.522238","196799.44893","197566.132302","198332.935943","199869.744713","Mapping"
"Mixed","Female","ball","7","F_ball.wav","None","732.445223024","231","192216.776789","199099.380633","199866.279499","200632.998117","201399.564932","187549.980166","188316.605105","189083.085351","192983.162428","193749.919074","194516.513404","195283.104025","196032.522238","196799.44893","197566.132302","198332.935943","200642.019173","Mapping"
"Mixed","Female","ball","7","F_cave.wav","space","640.865647816","231","192216.776789","199099.380633","199866.279499","200632.998117","201399.564932","202166.162354","188316.605105","189083.085351","192983.162428","193749.919074","194516.513404","195283.104025","196032.522238","196799.44893","197566.132302","198332.935943","201408.576094","Mapping"
"Mixed","Female","ball","7","F_ball.wav","None","730.801967438","231","192216.776789","199099.380633","199866.279499","200632.998117","201399.564932","202166.162354","202932.919","189083.085351","192983.162428","193749.919074","194516.513404","195283.104025","196032.522238","196799.44893","197566.132302","198332.935943","202175.001925","Mapping"
"Mixed","Female","ball","7","M_cad.wav","space","507.723919465","231","192216.776789","199099.380633","199866.279499","200632.998117","201399.564932","202166.162354","202932.919","203699.511166","192983.162428","193749.919074","194516.513404","195283.104025","196032.522238","196799.44893","197566.132302","198332.935943","202941.756098","Mapping"
"Mixed","Female","ball","12","M_priest.wav","None","728.695261292","231","206833.624008","199099.380633","199866.279499","200632.998117","201399.564932","202166.162354","202932.919","203699.511166","192983.162428","193749.919074","194516.513404","195283.104025","196032.522238","196799.44893","197566.132302","198332.935943","203708.422156","Mapping"
"Mixed","Female","ball","12","M_jaw.wav","None","720.605126116","231","206833.624008","199099.380633","199866.279499","200632.998117","201399.564932","202166.162354","202932.919","203699.511166","207583.434871","193749.919074","194516.513404","195283.104025","196032.522238","196799.44893","197566.132302","198332.935943","206843.104186","Mapping"
"Mixed","Female","ball","12","F_lash.wav","None","736.670074868","231","206833.624008","199099.380633","199866.279499","200632.998117","201399.564932","202166.162354","202932.919","203699.511166","207583.434871","208349.82051","194516.513404","195283.104025","196032.522238","196799.44893","197566.132302","198332.935943","207592.216317","Mapping"
"Mixed","Female","ball","12","M_jolt.wav","None","736.924215103","231","206833.624008","199099.380633","199866.279499","200632.998117","201399.564932","202166.162354","202932.919","203699.511166","207583.434871","208349.82051","209116.058054","195283.104025","196032.522238","196799.44893","197566.132302","198332.935943","208358.605666","Mapping"
"Mixed","Female","ball","12","F_park.wav","None","735.571582336","231","206833.624008","199099.380633","199866.279499","200632.998117","201399.564932","202166.162354","202932.919","203699.511166","207583.434871","208349.82051","209116.058054","209882.978871","196032.522238","196799.44893","197566.132302","198332.935943","209125.336651","Mapping"
"Mixed","Female","ball","12","F_ball.wav","None","735.657223384","231","206833.624008","199099.380633","199866.279499","200632.998117","201399.564932","202166.162354","202932.919","203699.511166","207583.434871","208349.82051","209116.058054","209882.978871","210649.30453","196799.44893","197566.132302","198332.935943","209891.075808","Mapping"
"Mixed","Female","ball","12","M_done.wav","space","407.250668039","231","206833.624008","199099.380633","199866.279499","200632.998117","201399.564932","202166.162354","202932.919","203699.511166","207583.434871","208349.82051","209116.058054","209882.978871","210649.30453","211416.162585","197566.132302","198332.935943","210657.985805","Mapping"
"Mixed","Female","ball","12","F_ball.wav","None","733.073462965","231","206833.624008","199099.380633","199866.279499","200632.998117","201399.564932","202166.162354","202932.919","203699.511166","207583.434871","208349.82051","209116.058054","209882.978871","210649.30453","211416.162585","212182.710231","198332.935943","211424.885289","Mapping"
"Mixed","Female","ball","12","M_reek.wav","space","537.263254519","231","206833.624008","199099.380633","199866.279499","200632.998117","201399.564932","202166.162354","202932.919","203699.511166","207583.434871","208349.82051","209116.058054","209882.978871","210649.30453","211416.162585","212182.710231","212949.519127","212192.01047","Mapping"
"Mixed","Female","ball","12","F_ball.wav","None","730.347482953","231","206833.624008","213715.990098","199866.279499","200632.998117","201399.564932","202166.162354","202932.919","203699.511166","207583.434871","208349.82051","209116.058054","209882.978871","210649.30453","211416.162585","212182.710231","212949.519127","212958.875327","Mapping"
"Mixed","Female","ball","12","M_reek.wav","space","604.283038178","231","206833.624008","213715.990098","214482.931321","200632.998117","201399.564932","202166.162354","202932.919","203699.511166","207583.434871","208349.82051","209116.058054","209882.978871","210649.30453","211416.162585","212182.710231","212949.519127","213724.949319","Mapping"
"Mixed","Female","ball","12","M_depth.wav","None","728.029302205","231","206833.624008","213715.990098","214482.931321","215249.427643","201399.564932","202166.162354","202932.919","203699.511166","207583.434871","208349.82051","209116.058054","209882.978871","210649.30453","211416.162585","212182.710231","212949.519127","214492.161686","Mapping"
"Mixed","Female","ball","12","F_jaw.wav","None","727.292851661","231","206833.624008","213715.990098","214482.931321","215249.427643","216016.027229","202166.162354","202932.919","203699.511166","207583.434871","208349.82051","209116.058054","209882.978871","210649.30453","211416.162585","212182.710231","212949.519127","215258.427366","Mapping"
"Mixed","Female","ball","12","F_ball.wav","None","727.415284142","231","206833.624008","213715.990098","214482.931321","215249.427643","216016.027229","216782.608266","202932.919","203699.511166","207583.434871","208349.82051","209116.058054","209882.978871","210649.30453","211416.162585","212182.710231","212949.519127","216025.279238","Mapping"
"Mixed","Female","ball","12","F_knife.wav","space","473.834826727","231","206833.624008","213715.990098","214482.931321","215249.427643","216016.027229","216782.608266","217549.368622","203699.511166","207583.434871","208349.82051","209116.058054","209882.978871","210649.30453","211416.162585","212182.710231","212949.519127","216791.338389","Mapping"
"Mixed","Female","ball","12","M_reek.wav","None","726.475397707","231","206833.624008","213715.990098","214482.931321","215249.427643","216016.027229","216782.608266","217549.368622","218316.494112","207583.434871","208349.82051","209116.058054","209882.978871","210649.30453","211416.162585","212182.710231","212949.519127","217558.199536","Mapping"
"Mixed","Male","ball","6","F_jolt.wav","None","729.209725396","231","221449.403342","213715.990098","214482.931321","215249.427643","216016.027229","216782.608266","217549.368622","218316.494112","207583.434871","208349.82051","209116.058054","209882.978871","210649.30453","211416.162585","212182.710231","212949.519127","218320.453693","Mapping"
"Mixed","Male","ball","6","M_ball.wav","None","722.17047005","231","221449.403342","213715.990098","214482.931321","215249.427643","216016.027229","216782.608266","217549.368622","218316.494112","222216.397124","208349.82051","209116.058054","209882.978871","210649.30453","211416.162585","212182.710231","212949.519127","221458.402137","Mapping"
"Mixed","Male","ball","6","M_bluff.wav","space","391.598156421","231","221449.403342","213715.990098","214482.931321","215249.427643","216016.027229","216782.608266","217549.368622","218316.494112","222216.397124","222982.647345","209116.058054","209882.978871","210649.30453","211416.162585","212182.710231","212949.519127","222225.43302","Mapping"
"Mixed","Male","ball","6","F_cad.wav","None","720.448066131","231","221449.403342","213715.990098","214482.931321","215249.427643","216016.027229","216782.608266","217549.368622","218316.494112","222216.397124","222982.647345","223732.732754","209882.978871","210649.30453","211416.162585","212182.710231","212949.519127","222991.817422","Mapping"
"Mixed","Male","ball","6","F_gnash.wav","None","736.322254874","231","221449.403342","213715.990098","214482.931321","215249.427643","216016.027229","216782.608266","217549.368622","218316.494112","222216.397124","222982.647345","223732.732754","224498.985757","210649.30453","211416.162585","212182.710231","212949.519127","223741.951062","Mapping"
"Mixed","Male","ball","6","M_romp.wav","None","735.672372859","231","221449.403342","213715.990098","214482.931321","215249.427643","216016.027229","216782.608266","217549.368622","218316.494112","222216.397124","222982.647345","223732.732754","224498.985757","225265.726636","211416.162585","212182.710231","212949.519127","224507.902003","Mapping"
"Mixed","Male","ball","6","M_ball.wav","None","734.916135203","231","221449.403342","213715.990098","214482.931321","215249.427643","216016.027229","216782.608266","217549.368622","218316.494112","222216.397124","222982.647345","223732.732754","224498.985757","225265.726636","226032.762466","212182.710231","212949.519127","225274.57981","Mapping"
"Mixed","Male","ball","6","F_jolt.wav","space","423.277588445","231","221449.403342","213715.990098","214482.931321","215249.427643","216016.027229","216782.608266","217549.368622","218316.494112","222216.397124","222982.647345","223732.732754","224498.985757","225265.726636","226032.762466","226798.945287","212949.519127","226041.760333","Mapping"
"Mixed","Male","ball","6","M_ball.wav","None","735.00455881","231","221449.403342","213715.990098","214482.931321","215249.427643","216016.027229","216782.608266","217549.368622","218316.494112","222216.397124","222982.647345","223732.732754","224498.985757","225265.726636","226032.762466","226798.945287","227565.801796","226807.769708","Mapping"
"Mixed","Male","ball","6","F_cave.wav","space","562.318341457","231","221449.403342","228332.45827","214482.931321","215249.427643","216016.027229","216782.608266","217549.368622","218316.494112","222216.397124","222982.647345","223732.732754","224498.985757","225265.726636","226032.762466","226798.945287","227565.801796","227574.685269","Mapping"
"Mixed","Male","ball","6","F_lash.wav","None","732.136977371","231","221449.403342","228332.45827","229099.171014","215249.427643","216016.027229","216782.608266","217549.368622","218316.494112","222216.397124","222982.647345","223732.732754","224498.985757","225265.726636","226032.762466","226798.945287","227565.801796","228341.352256","Mapping"
"Mixed","Male","ball","6","F_cave.wav","None","731.047141831","231","221449.403342","228332.45827","229099.171014","229865.849439","216016.027229","216782.608266","217549.368622","218316.494112","222216.397124","222982.647345","223732.732754","224498.985757","225265.726636","226032.762466","226798.945287","227565.801796","229108.177229","Mapping"
"Mixed","Male","ball","6","M_jaw.wav","None","730.041092145","231","221449.403342","228332.45827","229099.171014","229865.849439","230632.52972","216782.608266","217549.368622","218316.494112","222216.397124","222982.647345","223732.732754","224498.985757","225265.726636","226032.762466","226798.945287","227565.801796","229874.96974","Mapping"
"Mixed","Male","ball","6","F_park.wav","None","728.844282799","231","221449.403342","228332.45827","229099.171014","229865.849439","230632.52972","231399.157441","217549.368622","218316.494112","222216.397124","222982.647345","223732.732754","224498.985757","225265.726636","226032.762466","226798.945287","227565.801796","230641.895504","Mapping"
"Mixed","Male","ball","6","M_ball.wav","None","730.255967588","231","221449.403342","228332.45827","229099.171014","229865.849439","230632.52972","231399.157441","232165.624701","218316.494112","222216.397124","222982.647345","223732.732754","224498.985757","225265.726636","226032.762466","226798.945287","227565.801796","231407.952491","Mapping"
"Mixed","Male","ball","6","M_cave.wav","space","450.43907233","231","221449.403342","228332.45827","229099.171014","229865.849439","230632.52972","231399.157441","232165.624701","232932.247785","222216.397124","222982.647345","223732.732754","224498.985757","225265.726636","226032.762466","226798.945287","227565.801796","232174.460871","Mapping"
"Mixed","Male","done","41","F_bluff.wav","None","729.955760413","231","236066.281169","228332.45827","229099.171014","229865.849439","230632.52972","231399.157441","232165.624701","232932.247785","222216.397124","222982.647345","223732.732754","224498.985757","225265.726636","226032.762466","226798.945287","227565.801796","232941.470112","Mapping"
"Mixed","Male","done","41","M_done.wav","None","722.626809729","231","236066.281169","228332.45827","229099.171014","229865.849439","230632.52972","231399.157441","232165.624701","232932.247785","236832.629088","222982.647345","223732.732754","224498.985757","225265.726636","226032.762466","226798.945287","227565.801796","236075.924899","Mapping"
"Mixed","Male","done","41","F_depth.wav","None","723.653264693","231","236066.281169","228332.45827","229099.171014","229865.849439","230632.52972","231399.157441","232165.624701","232932.247785","236832.629088","237599.466738","223732.732754","224498.985757","225265.726636","226032.762466","226798.945287","227565.801796","236841.822353","Mapping"
"Mixed","Male","done","41","M_done.wav","None","722.878785804","231","236066.281169","228332.45827","229099.171014","229865.849439","230632.52972","231399.157441","232165.624701","232932.247785","236832.629088","237599.466738","238366.281818","224498.985757","225265.726636","226032.762466","226798.945287","227565.801796","237608.685355","Mapping"
"Mixed","Male","done","41","F_cling.wav","None","722.490155138","231","236066.281169","228332.45827","229099.171014","229865.849439","230632.52972","231399.157441","232165.624701","232932.247785","236832.629088","237599.466738","238366.281818","239132.801947","225265.726636","226032.762466","226798.945287","227565.801796","238375.433654","Mapping"
"Mixed","Male","done","41","F_jaw.wav","None","721.920039738","231","236066.281169","228332.45827","229099.171014","229865.849439","230632.52972","231399.157441","232165.624701","232932.247785","236832.629088","237599.466738","238366.281818","239132.801947","239899.431523","226032.762466","226798.945287","227565.801796","239141.807853","Mapping"
"Mixed","Male","done","41","F_jolt.wav","space","220.227471087","231","236066.281169","228332.45827","229099.171014","229865.849439","230632.52972","231399.157441","232165.624701","232932.247785","236832.629088","237599.466738","238366.281818","239132.801947","239899.431523","240665.849007","226798.945287","227565.801796","239908.511013","Mapping"
"Mixed","Male","done","41","M_jaw.wav","None","720.559368492","231","236066.281169","228332.45827","229099.171014","229865.849439","230632.52972","231399.157441","232165.624701","232932.247785","236832.629088","237599.466738","238366.281818","239132.801947","239899.431523","240665.849007","241415.72325","227565.801796","240674.829251","Mapping"
"Mixed","Male","done","41","M_done.wav","None","736.798690865","231","236066.281169","228332.45827","229099.171014","229865.849439","230632.52972","231399.157441","232165.624701","232932.247785","236832.629088","237599.466738","238366.281818","239132.801947","239899.431523","240665.849007","241415.72325","242199.468655","241424.696693","Mapping"
"Mixed","Male","done","41","F_lash.wav","space","304.308050312","231","236066.281169","242965.924167","229099.171014","229865.849439","230632.52972","231399.157441","232165.624701","232932.247785","236832.629088","237599.466738","238366.281818","239132.801947","239899.431523","240665.849007","241415.72325","242199.468655","242208.378408","Mapping"
"Mixed","Male","done","41","M_ball.wav","None","720.296571264","231","236066.281169","242965.924167","243732.405031","229865.849439","230632.52972","231399.157441","232165.624701","232932.247785","236832.629088","237599.466738","238366.281818","239132.801947","239899.431523","240665.849007","241415.72325","242199.468655","242974.916469","Mapping"
"Mixed","Male","done","41","M_greet.wav","space","35.5156529695","231","236066.281169","242965.924167","243732.405031","244481.977212","230632.52972","231399.157441","232165.624701","232932.247785","236832.629088","237599.466738","238366.281818","239132.801947","239899.431523","240665.849007","241415.72325","242199.468655","243741.212138","Mapping"
"Mixed","Male","done","41","M_knife.wav","None","736.00566166","231","236066.281169","242965.924167","243732.405031","244481.977212","245248.783326","231399.157441","232165.624701","232932.247785","236832.629088","237599.466738","238366.281818","239132.801947","239899.431523","240665.849007","241415.72325","242199.468655","244491.014963","Mapping"
"Mixed","Male","done","41","M_done.wav","None","734.292532899","231","236066.281169","242965.924167","243732.405031","244481.977212","245248.783326","246015.425269","232165.624701","232932.247785","236832.629088","237599.466738","238366.281818","239132.801947","239899.431523","240665.849007","241415.72325","242199.468655","245257.862816","Mapping"
"Mixed","Male","done","41","F_dime.wav","space","632.249918301","231","236066.281169","242965.924167","243732.405031","244481.977212","245248.783326","246015.425269","246782.180988","232932.247785","236832.629088","237599.466738","238366.281818","239132.801947","239899.431523","240665.849007","241415.72325","242199.468655","246024.353882","Mapping"
"Mixed","Male","done","41","F_ball.wav","None","731.635807664","231","236066.281169","242965.924167","243732.405031","244481.977212","245248.783326","246015.425269","246782.180988","247548.531999","236832.629088","237599.466738","238366.281818","239132.801947","239899.431523","240665.849007","241415.72325","242199.468655","246791.152885","Mapping"
"Mixed","Male","done","42","F_bluff.wav","None","724.929222488","231","250682.497674","242965.924167","243732.405031","244481.977212","245248.783326","246015.425269","246782.180988","247548.531999","236832.629088","237599.466738","238366.281818","239132.801947","239899.431523","240665.849007","241415.72325","242199.468655","247565.156242","Mapping"
"Mixed","Male","done","42","M_tile.wav","None","722.851887811","231","250682.497674","242965.924167","243732.405031","244481.977212","245248.783326","246015.425269","246782.180988","247548.531999","251449.084275","237599.466738","238366.281818","239132.801947","239899.431523","240665.849007","241415.72325","242199.468655","250691.630651","Mapping"
"Mixed","Male","done","42","F_jaw.wav","None","723.792701843","231","250682.497674","242965.924167","243732.405031","244481.977212","245248.783326","246015.425269","246782.180988","247548.531999","251449.084275","252215.577506","238366.281818","239132.801947","239899.431523","240665.849007","241415.72325","242199.468655","251458.552086","Mapping"
"Mixed","Male","done","42","M_reek.wav","None","723.891946487","231","250682.497674","242965.924167","243732.405031","244481.977212","245248.783326","246015.425269","246782.180988","247548.531999","251449.084275","252215.577506","252982.299525","239132.801947","239899.431523","240665.849007","241415.72325","242199.468655","252225.086128","Mapping"
"Mixed","Male","done","42","M_done.wav","None","721.748139476","231","250682.497674","242965.924167","243732.405031","244481.977212","245248.783326","246015.425269","246782.180988","247548.531999","251449.084275","252215.577506","252982.299525","253748.790592","239899.431523","240665.849007","241415.72325","242199.468655","252992.477816","Mapping"
"Mixed","Male","done","42","F_jolt.wav","space","426.032321644","231","250682.497674","242965.924167","243732.405031","244481.977212","245248.783326","246015.425269","246782.180988","247548.531999","251449.084275","252215.577506","252982.299525","253748.790592","254498.987922","240665.849007","241415.72325","242199.468655","253758.47266","Mapping"
"Mixed","Male","done","42","M_done.wav","None","736.694190302","231","250682.497674","242965.924167","243732.405031","244481.977212","245248.783326","246015.425269","246782.180988","247548.531999","251449.084275","252215.577506","252982.299525","253748.790592","254498.987922","255265.667275","241415.72325","242199.468655","254508.078232","Mapping"
"Mixed","Male","done","42","M_cling.wav","space","485.281655216","231","250682.497674","242965.924167","243732.405031","244481.977212","245248.783326","246015.425269","246782.180988","247548.531999","251449.084275","252215.577506","252982.299525","253748.790592","254498.987922","255265.667275","256032.544499","242199.468655","255275.175896","Mapping"
"Mixed","Male","done","42","M_done.wav","None","736.24217906","231","250682.497674","242965.924167","243732.405031","244481.977212","245248.783326","246015.425269","246782.180988","247548.531999","251449.084275","252215.577506","252982.299525","253748.790592","254498.987922","255265.667275","256032.544499","256798.44288","256041.653669","Mapping"
"Mixed","Male","done","42","F_tile.wav","None","736.106142867","231","250682.497674","257564.884479","243732.405031","244481.977212","245248.783326","246015.425269","246782.180988","247548.531999","251449.084275","252215.577506","252982.299525","253748.790592","254498.987922","255265.667275","256032.544499","256798.44288","256807.977472","Mapping"
"Mixed","Male","done","42","F_depth.wav","space","25.9136608802","231","250682.497674","257564.884479","258348.868565","244481.977212","245248.783326","246015.425269","246782.180988","247548.531999","251449.084275","252215.577506","252982.299525","253748.790592","254498.987922","255265.667275","256032.544499","256798.44288","257574.506258","Mapping"
"Mixed","Male","done","42","M_gnash.wav","None","719.81735283","231","250682.497674","257564.884479","258348.868565","259098.531644","245248.783326","246015.425269","246782.180988","247548.531999","251449.084275","252215.577506","252982.299525","253748.790592","254498.987922","255265.667275","256032.544499","256798.44288","258358.595154","Mapping"
"Mixed","Male","done","42","M_done.wav","None","736.567738466","231","250682.497674","257564.884479","258348.868565","259098.531644","259882.238092","246015.425269","246782.180988","247548.531999","251449.084275","252215.577506","252982.299525","253748.790592","254498.987922","255265.667275","256032.544499","256798.44288","259107.860945","Mapping"
"Mixed","Male","done","42","F_reek.wav","space","645.079369424","231","250682.497674","257564.884479","258348.868565","259098.531644","259882.238092","260648.577973","246782.180988","247548.531999","251449.084275","252215.577506","252982.299525","253748.790592","254498.987922","255265.667275","256032.544499","256798.44288","259891.340151","Mapping"
"Mixed","Male","done","42","F_jaw.wav","None","720.717355958","231","250682.497674","257564.884479","258348.868565","259098.531644","259882.238092","260648.577973","261415.952039","247548.531999","251449.084275","252215.577506","252982.299525","253748.790592","254498.987922","255265.667275","256032.544499","256798.44288","260657.683742","Mapping"
"Mixed","Male","done","42","F_gnash.wav","None","719.683789997","231","250682.497674","257564.884479","258348.868565","259098.531644","259882.238092","260648.577973","261415.952039","262182.468457","251449.084275","252215.577506","252982.299525","253748.790592","254498.987922","255265.667275","256032.544499","256798.44288","261425.235891","Mapping"
"Mixed","Female","tile","33","F_lash.wav","None","721.088054706","231","265315.542786","257564.884479","258348.868565","259098.531644","259882.238092","260648.577973","261415.952039","262182.468457","251449.084275","252215.577506","252982.299525","253748.790592","254498.987922","255265.667275","256032.544499","256798.44288","262191.583502","Mapping"
"Mixed","Female","tile","33","F_tile.wav","None","721.841200604","231","265315.542786","257564.884479","258348.868565","259098.531644","259882.238092","260648.577973","261415.952039","262182.468457","266082.032616","252215.577506","252982.299525","253748.790592","254498.987922","255265.667275","256032.544499","256798.44288","265326.915104","Mapping"
"Mixed","Female","tile","33","F_bluff.wav","space","516.688087257","231","265315.542786","257564.884479","258348.868565","259098.531644","259882.238092","260648.577973","261415.952039","262182.468457","266082.032616","266848.976621","252982.299525","253748.790592","254498.987922","255265.667275","256032.544499","256798.44288","266091.617294","Mapping"
"Mixed","Female","tile","33","F_tile.wav","None","720.872560982","231","265315.542786","257564.884479","258348.868565","259098.531644","259882.238092","260648.577973","261415.952039","262182.468457","266082.032616","266848.976621","267615.39967","253748.790592","254498.987922","255265.667275","256032.544499","256798.44288","266858.56099","Mapping"
"Mixed","Female","tile","33","M_jaw.wav","space","375.299782027","231","265315.542786","257564.884479","258348.868565","259098.531644","259882.238092","260648.577973","261415.952039","262182.468457","266082.032616","266848.976621","267615.39967","268365.277314","254498.987922","255265.667275","256032.544499","256798.44288","267624.922513","Mapping"
"Mixed","Female","tile","33","M_cling.wav","None","736.142316135","231","265315.542786","257564.884479","258348.868565","259098.531644","259882.238092","260648.577973","261415.952039","262182.468457","266082.032616","266848.976621","267615.39967","268365.277314","269131.748903","255265.667275","256032.544499","256798.44288","268374.665359","Mapping"
"Mixed","Female","tile","33","F_bluff.wav","None","734.658284695","231","265315.542786","257564.884479","258348.868565","259098.531644","259882.238092","260648.577973","261415.952039","262182.468457","266082.032616","266848.976621","267615.39967","268365.277314","269131.748903","269898.263467","256032.544499","256798.44288","269141.59205","Mapping"
"Mixed","Female","tile","33","M_priest.wav","None","735.18171499","231","265315.542786","257564.884479","258348.868565","259098.531644","259882.238092","260648.577973","261415.952039","262182.468457","266082.032616","266848.976621","267615.39967","268365.277314","269131.748903","269898.263467","270664.840793","256798.44288","269907.582565","Mapping"
"Mixed","Female","tile","33","M_lash.wav","None","735.912600416","231","265315.542786","257564.884479","258348.868565","259098.531644","259882.238092","260648.577973","261415.952039","262182.468457","266082.032616","266848.976621","267615.39967","268365.277314","269131.748903","269898.263467","270664.840793","271431.871676","270674.037768","Mapping"
"Mixed","Female","tile","33","F_tile.wav","None","735.999478144","231","265315.542786","272198.150031","258348.868565","259098.531644","259882.238092","260648.577973","261415.952039","262182.468457","266082.032616","266848.976621","267615.39967","268365.277314","269131.748903","269898.263467","270664.840793","271431.871676","271440.912209","Mapping"
"Mixed","Female","tile","33","M_bluff.wav","space","553.086429602","231","265315.542786","272198.150031","272964.76353","259098.531644","259882.238092","260648.577973","261415.952039","262182.468457","266082.032616","266848.976621","267615.39967","268365.277314","269131.748903","269898.263467","270664.840793","271431.871676","272207.122238","Mapping"
"Mixed","Female","tile","33","F_tile.wav","None","734.477109276","231","265315.542786","272198.150031","272964.76353","273731.782665","259882.238092","260648.577973","261415.952039","262182.468457","266082.032616","266848.976621","267615.39967","268365.277314","269131.748903","269898.263467","270664.840793","271431.871676","272973.967926","Mapping"
"Mixed","Female","tile","33","M_greet.wav","space","555.057718069","231","265315.542786","272198.150031","272964.76353","273731.782665","274498.211588","260648.577973","261415.952039","262182.468457","266082.032616","266848.976621","267615.39967","268365.277314","269131.748903","269898.263467","270664.840793","271431.871676","273741.073629","Mapping"
"Mixed","Female","tile","33","F_romp.wav","None","732.385861804","231","265315.542786","272198.150031","272964.76353","273731.782665","274498.211588","275264.858787","261415.952039","262182.468457","266082.032616","266848.976621","267615.39967","268365.277314","269131.748903","269898.263467","270664.840793","271431.871676","274507.721137","Mapping"
"Mixed","Female","tile","33","M_lash.wav","None","732.583114179","231","265315.542786","272198.150031","272964.76353","273731.782665","274498.211588","275264.858787","276031.565965","262182.468457","266082.032616","266848.976621","267615.39967","268365.277314","269131.748903","269898.263467","270664.840793","271431.871676","275274.524778","Mapping"
"Mixed","Female","tile","33","M_dime.wav","None","731.812036363","231","265315.542786","272198.150031","272964.76353","273731.782665","274498.211588","275264.858787","276031.565965","276798.213783","266082.032616","266848.976621","267615.39967","268365.277314","269131.748903","269898.263467","270664.840793","271431.871676","276040.723366","Mapping"
"Mixed","Male","cave","16","F_priest.wav","None","731.748964987","231","279931.846478","272198.150031","272964.76353","273731.782665","274498.211588","275264.858787","276031.565965","276798.213783","266082.032616","266848.976621","267615.39967","268365.277314","269131.748903","269898.263467","270664.840793","271431.871676","276807.226181","Mapping"
"Mixed","Male","cave","16","F_priest.wav","None","723.024097155","231","279931.846478","272198.150031","272964.76353","273731.782665","274498.211588","275264.858787","276031.565965","276798.213783","280698.332907","266848.976621","267615.39967","268365.277314","269131.748903","269898.263467","270664.840793","271431.871676","279941.437031","Mapping"
"Mixed","Male","cave","16","M_dime.wav","None","729.949576897","231","279931.846478","272198.150031","272964.76353","273731.782665","274498.211588","275264.858787","276031.565965","276798.213783","280698.332907","281465.101302","267615.39967","268365.277314","269131.748903","269898.263467","270664.840793","271431.871676","280702.550957","Mapping"
"Mixed","Male","cave","16","M_tile.wav","None","722.965045134","231","279931.846478","272198.150031","272964.76353","273731.782665","274498.211588","275264.858787","276031.565965","276798.213783","280698.332907","281465.101302","282232.122601","268365.277314","269131.748903","269898.263467","270664.840793","271431.871676","281475.199517","Mapping"
"Mixed","Male","cave","16","M_cave.wav","None","722.165214131","231","279931.846478","272198.150031","272964.76353","273731.782665","274498.211588","275264.858787","276031.565965","276798.213783","280698.332907","281465.101302","282232.122601","282998.659425","269131.748903","269898.263467","270664.840793","271431.871676","282241.238882","Mapping"
"Mixed","Male","cave","16","F_greet.wav","space","487.987848232","231","279931.846478","272198.150031","272964.76353","273731.782665","274498.211588","275264.858787","276031.565965","276798.213783","280698.332907","281465.101302","282232.122601","282998.659425","283764.927887","269898.263467","270664.840793","271431.871676","283007.960901","Mapping"
"Mixed","Male","cave","16","F_cling.wav","None","722.087302478","231","279931.846478","272198.150031","272964.76353","273731.782665","274498.211588","275264.858787","276031.565965","276798.213783","280698.332907","281465.101302","282232.122601","282998.659425","283764.927887","284531.711122","270664.840793","271431.871676","283774.805352","Mapping"
"Mixed","Male","cave","16","M_cave.wav","None","722.058549407","231","279931.846478","272198.150031","272964.76353","273731.782665","274498.211588","275264.858787","276031.565965","276798.213783","280698.332907","281465.101302","282232.122601","282998.659425","283764.927887","284531.711122","285298.423866","271431.871676","284541.014453","Mapping"
"Mixed","Male","cave","16","F_tile.wav","space","491.9672166","231","279931.846478","272198.150031","272964.76353","273731.782665","274498.211588","275264.858787","276031.565965","276798.213783","280698.332907","281465.101302","282232.122601","282998.659425","283764.927887","284531.711122","285298.423866","286065.168455","285307.968352","Mapping"
"Mixed","Male","cave","16","M_cad.wav","None","720.537726302","231","279931.846478","286831.354367","272964.76353","273731.782665","274498.211588","275264.858787","276031.565965","276798.213783","280698.332907","281465.101302","282232.122601","282998.659425","283764.927887","284531.711122","285298.423866","286065.168455","286074.385835","Mapping"
"Mixed","Male","cave","16","F_gnash.wav","None","721.046934719","231","279931.846478","286831.354367","287598.594251","273731.782665","274498.211588","275264.858787","276031.565965","276798.213783","280698.332907","281465.101302","282232.122601","282998.659425","283764.927887","284531.711122","285298.423866","286065.168455","286841.055913","Mapping"
"Mixed","Male","cave","16","M_cave.wav","None","720.906879287","231","279931.846478","286831.354367","287598.594251","288364.986073","274498.211588","275264.858787","276031.565965","276798.213783","280698.332907","281465.101302","282232.122601","282998.659425","283764.927887","284531.711122","285298.423866","286065.168455","287608.246639","Mapping"
"Mixed","Male","cave","16","M_lash.wav","space","409.035834135","231","279931.846478","286831.354367","287598.594251","288364.986073","289115.084158","275264.858787","276031.565965","276798.213783","280698.332907","281465.101302","282232.122601","282998.659425","283764.927887","284531.711122","285298.423866","286065.168455","288374.846534","Mapping"
"Mixed","Male","cave","16","F_jolt.wav","None","736.176943523","231","279931.846478","286831.354367","287598.594251","288364.986073","289115.084158","289881.290477","276031.565965","276798.213783","280698.332907","281465.101302","282232.122601","282998.659425","283764.927887","284531.711122","285298.423866","286065.168455","289124.470348","Mapping"
"Mixed","Male","cave","16","M_cave.wav","None","736.663891352","231","279931.846478","286831.354367","287598.594251","288364.986073","289115.084158","289881.290477","290648.262617","276798.213783","280698.332907","281465.101302","282232.122601","282998.659425","283764.927887","284531.711122","285298.423866","286065.168455","289890.414487","Mapping"
"Mixed","Male","cave","16","F_cad.wav","space","518.483146792","231","279931.846478","286831.354367","287598.594251","288364.986073","289115.084158","289881.290477","290648.262617","291414.462133","280698.332907","281465.101302","282232.122601","282998.659425","283764.927887","284531.711122","285298.423866","286065.168455","290657.361893","Mapping"
"Mixed","Female","ball","9","F_jaw.wav","None","736.329365871","231","294547.813481","286831.354367","287598.594251","288364.986073","289115.084158","289881.290477","290648.262617","291414.462133","280698.332907","281465.101302","282232.122601","282998.659425","283764.927887","284531.711122","285298.423866","286065.168455","291423.445469","Mapping"
"Mixed","Female","ball","9","M_park.wav","None","724.752375507","231","294547.813481","286831.354367","287598.594251","288364.986073","289115.084158","289881.290477","290648.262617","291414.462133","295314.730588","281465.101302","282232.122601","282998.659425","283764.927887","284531.711122","285298.423866","286065.168455","294556.970573","Mapping"
"Mixed","Female","ball","9","F_cave.wav","None","724.72207644","231","294547.813481","286831.354367","287598.594251","288364.986073","289115.084158","289881.290477","290648.262617","291414.462133","295314.730588","296081.420762","282232.122601","282998.659425","283764.927887","284531.711122","285298.423866","286065.168455","295324.659685","Mapping"
"Mixed","Female","ball","9","F_ball.wav","None","726.629056735","231","294547.813481","286831.354367","287598.594251","288364.986073","289115.084158","289881.290477","290648.262617","291414.462133","295314.730588","296081.420762","296847.996851","282998.659425","283764.927887","284531.711122","285298.423866","286065.168455","296090.810661","Mapping"
"Mixed","Female","ball","9","M_cad.wav","space","414.501707186","231","294547.813481","286831.354367","287598.594251","288364.986073","289115.084158","289881.290477","290648.262617","291414.462133","295314.730588","296081.420762","296847.996851","297614.438141","283764.927887","284531.711122","285298.423866","286065.168455","296857.197227","Mapping"
"Mixed","Female","ball","9","M_dime.wav","None","725.149044651","231","294547.813481","286831.354367","287598.594251","288364.986073","289115.084158","289881.290477","290648.262617","291414.462133","295314.730588","296081.420762","296847.996851","297614.438141","298381.200662","284531.711122","285298.423866","286065.168455","297623.54391","Mapping"
"Mixed","Female","ball","9","M_cave.wav","None","723.714171792","231","294547.813481","286831.354367","287598.594251","288364.986073","289115.084158","289881.290477","290648.262617","291414.462133","295314.730588","296081.420762","296847.996851","297614.438141","298381.200662","299148.026563","285298.423866","286065.168455","298391.389155","Mapping"
"Mixed","Female","ball","9","F_ball.wav","None","723.265870707","231","294547.813481","286831.354367","287598.594251","288364.986073","289115.084158","289881.290477","290648.262617","291414.462133","295314.730588","296081.420762","296847.996851","297614.438141","298381.200662","299148.026563","299914.947071","286065.168455","299157.23034","Mapping"
"Mixed","Female","ball","9","M_dime.wav","space","395.504250657","231","294547.813481","286831.354367","287598.594251","288364.986073","289115.084158","289881.290477","290648.262617","291414.462133","295314.730588","296081.420762","296847.996851","297614.438141","298381.200662","299148.026563","299914.947071","300681.592415","299924.201243","Mapping"
"Mixed","Female","ball","9","F_ball.wav","None","720.518248505","231","294547.813481","301448.09894","287598.594251","288364.986073","289115.084158","289881.290477","290648.262617","291414.462133","295314.730588","296081.420762","296847.996851","297614.438141","298381.200662","299148.026563","299914.947071","300681.592415","300691.145867","Mapping"
"Mixed","Female","ball","9","M_done.wav","space","621.995261637","231","294547.813481","301448.09894","302214.839819","288364.986073","289115.084158","289881.290477","290648.262617","291414.462133","295314.730588","296081.420762","296847.996851","297614.438141","298381.200662","299148.026563","299914.947071","300681.592415","301457.612818","Mapping"
"Mixed","Female","ball","9","M_jolt.wav","None","720.862667426","231","294547.813481","301448.09894","302214.839819","302981.333668","289115.084158","289881.290477","290648.262617","291414.462133","295314.730588","296081.420762","296847.996851","297614.438141","298381.200662","299148.026563","299914.947071","300681.592415","302224.643083","Mapping"
"Mixed","Female","ball","9","F_ball.wav","None","720.998703619","231","294547.813481","301448.09894","302214.839819","302981.333668","303748.229752","289881.290477","290648.262617","291414.462133","295314.730588","296081.420762","296847.996851","297614.438141","298381.200662","299148.026563","299914.947071","300681.592415","302990.767779","Mapping"
"Mixed","Female","ball","9","F_dime.wav","space","514.291067375","231","294547.813481","301448.09894","302214.839819","302981.333668","303748.229752","304514.71278","290648.262617","291414.462133","295314.730588","296081.420762","296847.996851","297614.438141","298381.200662","299148.026563","299914.947071","300681.592415","303757.363037","Mapping"
"Mixed","Female","ball","9","M_cad.wav","None","720.017078682","231","294547.813481","301448.09894","302214.839819","302981.333668","303748.229752","304514.71278","305281.316076","291414.462133","295314.730588","296081.420762","296847.996851","297614.438141","298381.200662","299148.026563","299914.947071","300681.592415","304524.164204","Mapping"
"Mixed","Female","ball","9","F_dime.wav","None","721.579949255","231","294547.813481","301448.09894","302214.839819","302981.333668","303748.229752","304514.71278","305281.316076","306047.876707","295314.730588","296081.420762","296847.996851","297614.438141","298381.200662","299148.026563","299914.947071","300681.592415","305290.466057","Mapping"
"Mixed","Female","cave","20","M_cling.wav","None","722.117601428","231","309181.490233","301448.09894","302214.839819","302981.333668","303748.229752","304514.71278","305281.316076","306047.876707","295314.730588","296081.420762","296847.996851","297614.438141","298381.200662","299148.026563","299914.947071","300681.592415","306056.963616","Mapping"
"Mixed","Female","cave","20","M_lash.wav","space","0.0578153412789","231","309181.490233","301448.09894","302214.839819","302981.333668","303748.229752","304514.71278","305281.316076","306047.876707","309930.879075","296081.420762","296847.996851","297614.438141","298381.200662","299148.026563","299914.947071","300681.592415","309191.016787","Mapping"
"Mixed","Female","cave","20","M_lash.wav","None","736.080790753","231","309181.490233","301448.09894","302214.839819","302981.333668","303748.229752","304514.71278","305281.316076","306047.876707","309930.879075","310697.529675","296847.996851","297614.438141","298381.200662","299148.026563","299914.947071","300681.592415","309940.211159","Mapping"
"Mixed","Female","cave","20","F_tile.wav","None","734.780717292","231","309181.490233","301448.09894","302214.839819","302981.333668","303748.229752","304514.71278","305281.316076","306047.876707","309930.879075","310697.529675","311464.146266","297614.438141","298381.200662","299148.026563","299914.947071","300681.592415","310707.315625","Mapping"
"Mixed","Female","cave","20","F_jolt.wav","None","734.441863489","231","309181.490233","301448.09894","302214.839819","302981.333668","303748.229752","304514.71278","305281.316076","306047.876707","309930.879075","310697.529675","311464.146266","312230.769659","298381.200662","299148.026563","299914.947071","300681.592415","311473.744239","Mapping"
"Mixed","Female","cave","20","M_park.wav","None","735.564162256","231","309181.490233","301448.09894","302214.839819","302981.333668","303748.229752","304514.71278","305281.316076","306047.876707","309930.879075","310697.529675","311464.146266","312230.769659","312997.493224","299148.026563","299914.947071","300681.592415","312239.809883","Mapping"
"Mixed","Female","cave","20","F_cad.wav","None","734.461650602","231","309181.490233","301448.09894","302214.839819","302981.333668","303748.229752","304514.71278","305281.316076","306047.876707","309930.879075","310697.529675","311464.146266","312230.769659","312997.493224","313764.212151","299914.947071","300681.592415","313006.779859","Mapping"
"Mixed","Female","cave","20","F_cave.wav","None","733.755189809","231","309181.490233","301448.09894","302214.839819","302981.333668","303748.229752","304514.71278","305281.316076","306047.876707","309930.879075","310697.529675","311464.146266","312230.769659","312997.493224","313764.212151","314530.790095","300681.592415","313773.340181","Mapping"
"Mixed","Female","cave","20","M_lash.wav","space","531.332694227","231","309181.490233","301448.09894","302214.839819","302981.333668","303748.229752","304514.71278","305281.316076","306047.876707","309930.879075","310697.529675","311464.146266","312230.769659","312997.493224","313764.212151","314530.790095","315297.22953","314540.05076","Mapping"
"Mixed","Female","cave","20","F_cave.wav","None","733.508160454","231","309181.490233","316064.051103","302214.839819","302981.333668","303748.229752","304514.71278","305281.316076","306047.876707","309930.879075","310697.529675","311464.146266","312230.769659","312997.493224","313764.212151","314530.790095","315297.22953","315306.352613","Mapping"
"Mixed","Female","cave","20","M_dime.wav","space","638.250970049","231","309181.490233","316064.051103","316830.881951","302981.333668","303748.229752","304514.71278","305281.316076","306047.876707","309930.879075","310697.529675","311464.146266","312230.769659","312997.493224","313764.212151","314530.790095","315297.22953","316073.152852","Mapping"
"Mixed","Female","cave","20","M_reek.wav","None","731.027973001","231","309181.490233","316064.051103","316830.881951","317597.632723","303748.229752","304514.71278","305281.316076","306047.876707","309930.879075","310697.529675","311464.146266","312230.769659","312997.493224","313764.212151","314530.790095","315297.22953","316840.278652","Mapping"
"Mixed","Female","cave","20","F_cave.wav","None","731.040339917","231","309181.490233","316064.051103","316830.881951","317597.632723","318364.579201","304514.71278","305281.316076","306047.876707","309930.879075","310697.529675","311464.146266","312230.769659","312997.493224","313764.212151","314530.790095","315297.22953","317607.286965","Mapping"
"Mixed","Female","cave","20","M_romp.wav","space","689.315252472","231","309181.490233","316064.051103","316830.881951","317597.632723","318364.579201","319130.641754","305281.316076","306047.876707","309930.879075","310697.529675","311464.146266","312230.769659","312997.493224","313764.212151","314530.790095","315297.22953","318373.983941","Mapping"
"Mixed","Female","cave","20","F_cave.wav","None","732.733063283","231","309181.490233","316064.051103","316830.881951","317597.632723","318364.579201","319130.641754","319897.488061","306047.876707","309930.879075","310697.529675","311464.146266","312230.769659","312997.493224","313764.212151","314530.790095","315297.22953","319140.071227","Mapping"
"Mixed","Female","cave","20","F_romp.wav","None","731.806162046","231","309181.490233","316064.051103","316830.881951","317597.632723","318364.579201","319130.641754","319897.488061","320664.23976","309930.879075","310697.529675","311464.146266","312230.769659","312997.493224","313764.212151","314530.790095","315297.22953","319906.498604","Mapping"
"Mixed","Female","tile","31","M_cad.wav","space","6.05144700967","231","323797.859779","316064.051103","316830.881951","317597.632723","318364.579201","319130.641754","319897.488061","320664.23976","309930.879075","310697.529675","311464.146266","312230.769659","312997.493224","313764.212151","314530.790095","315297.22953","320673.24814","Mapping"
"Mixed","Female","tile","31","F_tile.wav","None","720.762495301","231","323797.859779","316064.051103","316830.881951","317597.632723","318364.579201","319130.641754","319897.488061","320664.23976","324564.211409","310697.529675","311464.146266","312230.769659","312997.493224","313764.212151","314530.790095","315297.22953","323807.819176","Mapping"
"Mixed","Female","tile","31","M_ball.wav","space","473.932216293","231","323797.859779","316064.051103","316830.881951","317597.632723","318364.579201","319130.641754","319897.488061","320664.23976","324564.211409","325330.997427","311464.146266","312230.769659","312997.493224","313764.212151","314530.790095","315297.22953","324573.317796","Mapping"
"Mixed","Female","tile","31","F_tile.wav","None","722.875075764","231","323797.859779","316064.051103","316830.881951","317597.632723","318364.579201","319130.641754","319897.488061","320664.23976","324564.211409","325330.997427","326097.672761","312230.769659","312997.493224","313764.212151","314530.790095","315297.22953","325340.349916","Mapping"
"Mixed","Female","tile","31","M_knife.wav","space","428.357613273","231","323797.859779","316064.051103","316830.881951","317597.632723","318364.579201","319130.641754","319897.488061","320664.23976","324564.211409","325330.997427","326097.672761","326864.186088","312997.493224","313764.212151","314530.790095","315297.22953","326106.8719","Mapping"
"Mixed","Female","tile","31","F_park.wav","None","722.251164261","231","323797.859779","316064.051103","316830.881951","317597.632723","318364.579201","319130.641754","319897.488061","320664.23976","324564.211409","325330.997427","326097.672761","326864.186088","327631.362591","313764.212151","314530.790095","315297.22953","326873.592064","Mapping"
"Mixed","Female","tile","31","F_tile.wav","None","721.729279961","231","323797.859779","316064.051103","316830.881951","317597.632723","318364.579201","319130.641754","319897.488061","320664.23976","324564.211409","325330.997427","326097.672761","326864.186088","327631.362591","328397.962178","314530.790095","315297.22953","327640.818963","Mapping"
"Mixed","Female","tile","31","M_jolt.wav","space","623.745181947","231","323797.859779","316064.051103","316830.881951","317597.632723","318364.579201","319130.641754","319897.488061","320664.23976","324564.211409","325330.997427","326097.672761","326864.186088","327631.362591","328397.962178","329147.209418","315297.22953","328407.445138","Mapping"
"Mixed","Female","tile","31","F_romp.wav","None","736.834554933","231","323797.859779","316064.051103","316830.881951","317597.632723","318364.579201","319130.641754","319897.488061","320664.23976","324564.211409","325330.997427","326097.672761","326864.186088","327631.362591","328397.962178","329147.209418","329930.782304","329156.231092","Mapping"
"Mixed","Female","tile","31","M_cad.wav","None","725.423281314","231","323797.859779","330697.530912","316830.881951","317597.632723","318364.579201","319130.641754","319897.488061","320664.23976","324564.211409","325330.997427","326097.672761","326864.186088","327631.362591","328397.962178","329147.209418","329930.782304","329934.943775","Mapping"
"Mixed","Female","tile","31","F_lash.wav","None","726.021222305","231","323797.859779","330697.530912","331464.215521","317597.632723","318364.579201","319130.641754","319897.488061","320664.23976","324564.211409","325330.997427","326097.672761","326864.186088","327631.362591","328397.962178","329147.209418","329930.782304","330701.230788","Mapping"
"Mixed","Female","tile","31","F_tile.wav","None","725.846848567","231","323797.859779","330697.530912","331464.215521","332230.963201","318364.579201","319130.641754","319897.488061","320664.23976","324564.211409","325330.997427","326097.672761","326864.186088","327631.362591","328397.962178","329147.209418","329930.782304","331468.54982","Mapping"
"Mixed","Female","tile","31","F_knife.wav","space","530.181951588","231","323797.859779","330697.530912","331464.215521","332230.963201","332980.54033","319130.641754","319897.488061","320664.23976","324564.211409","325330.997427","326097.672761","326864.186088","327631.362591","328397.962178","329147.209418","329930.782304","332236.963635","Mapping"
"Mixed","Female","tile","31","M_gnash.wav","None","741.107328562","231","323797.859779","330697.530912","331464.215521","332230.963201","332980.54033","333747.364067","319897.488061","320664.23976","324564.211409","325330.997427","326097.672761","326864.186088","327631.362591","328397.962178","329147.209418","329930.782304","332984.402521","Mapping"
"Mixed","Female","tile","31","M_bluff.wav","None","733.272261336","231","323797.859779","330697.530912","331464.215521","332230.963201","332980.54033","333747.364067","334514.242836","320664.23976","324564.211409","325330.997427","326097.672761","326864.186088","327631.362591","328397.962178","329147.209418","329930.782304","333757.747339","Mapping"
"Mixed","Female","tile","31","M_knife.wav","None","397.102367016","231","323797.859779","330697.530912","331464.215521","332230.963201","332980.54033","333747.364067","334514.242836","335280.440188","324564.211409","325330.997427","326097.672761","326864.186088","327631.362591","328397.962178","329147.209418","329930.782304","334859.700294","Mapping"
"Mixed","Female","done","45","F_bluff.wav","None","386.089926818","231","338413.739286","330697.530912","331464.215521","332230.963201","332980.54033","333747.364067","334514.242836","335280.440188","324564.211409","325330.997427","326097.672761","326864.186088","327631.362591","328397.962178","329147.209418","329930.782304","335637.09188","Mapping"
"Mixed","Female","done","45","M_gnash.wav","None","722.988542402","231","338413.739286","330697.530912","331464.215521","332230.963201","332980.54033","333747.364067","334514.242836","335280.440188","339180.213657","325330.997427","326097.672761","326864.186088","327631.362591","328397.962178","329147.209418","329930.782304","338425.650183","Mapping"
"Mixed","Female","done","45","F_cling.wav","None","288.229498081","231","338413.739286","330697.530912","331464.215521","332230.963201","332980.54033","333747.364067","334514.242836","335280.440188","339180.213657","339964.077166","326097.672761","326864.186088","327631.362591","328397.962178","329147.209418","329930.782304","339634.042504","Mapping"
"Mixed","Female","done","45","F_bluff.wav","None","716.86660382","231","338413.739286","330697.530912","331464.215521","332230.963201","332980.54033","333747.364067","334514.242836","335280.440188","339180.213657","339964.077166","340730.944187","326864.186088","327631.362591","328397.962178","329147.209418","329930.782304","339978.271926","Mapping"
"Mixed","Female","done","45","M_cad.wav","None","534.052799921","231","338413.739286","330697.530912","331464.215521","332230.963201","332980.54033","333747.364067","334514.242836","335280.440188","339180.213657","339964.077166","340730.944187","341497.190079","327631.362591","328397.962178","329147.209418","329930.782304","340926.948247","Mapping"
"Mixed","Female","done","45","M_jolt.wav","None","684.404345346","231","338413.739286","330697.530912","331464.215521","332230.963201","332980.54033","333747.364067","334514.242836","335280.440188","339180.213657","339964.077166","340730.944187","341497.190079","342263.861085","328397.962178","329147.209418","329930.782304","341546.186611","Mapping"
"Mixed","Female","done","45","M_jolt.wav","None","726.523010409","231","338413.739286","330697.530912","331464.215521","332230.963201","332980.54033","333747.364067","334514.242836","335280.440188","339180.213657","339964.077166","340730.944187","341497.190079","342263.861085","343030.104813","329147.209418","329930.782304","342272.997462","Mapping"
"Mixed","Female","done","45","F_done.wav","None","677.160726511","231","338413.739286","330697.530912","331464.215521","332230.963201","332980.54033","333747.364067","334514.242836","335280.440188","339180.213657","339964.077166","340730.944187","341497.190079","342263.861085","343030.104813","343796.919275","329930.782304","343089.652499","Mapping"
"Mixed","Female","done","45","M_park.wav","space","680.670460686","231","338413.739286","330697.530912","331464.215521","332230.963201","332980.54033","333747.364067","334514.242836","335280.440188","339180.213657","339964.077166","340730.944187","341497.190079","342263.861085","343030.104813","343796.919275","344564.017557","343806.188287","Mapping"
"Mixed","Female","done","45","F_done.wav","None","731.244394323","231","338413.739286","345330.428239","331464.215521","332230.963201","332980.54033","333747.364067","334514.242836","335280.440188","339180.213657","339964.077166","340730.944187","341497.190079","342263.861085","343030.104813","343796.919275","344564.017557","344573.302338","Mapping"
"Mixed","Female","done","45","F_jaw.wav","space","519.014615566","231","338413.739286","345330.428239","346096.921161","332230.963201","332980.54033","333747.364067","334514.242836","335280.440188","339180.213657","339964.077166","340730.944187","341497.190079","342263.861085","343030.104813","343796.919275","344564.017557","345367.830158","Mapping"
"Mixed","Female","done","45","M_cling.wav","None","732.08627291","231","338413.739286","345330.428239","346096.921161","346863.956372","332980.54033","333747.364067","334514.242836","335280.440188","339180.213657","339964.077166","340730.944187","341497.190079","342263.861085","343030.104813","343796.919275","344564.017557","346105.964786","Mapping"
"Mixed","Female","done","45","F_done.wav","None","677.043859032","231","338413.739286","345330.428239","346096.921161","346863.956372","347630.287905","333747.364067","334514.242836","335280.440188","339180.213657","339964.077166","340730.944187","341497.190079","342263.861085","343030.104813","343796.919275","344564.017557","346929.841181","Mapping"
"Mixed","Female","done","45","M_cling.wav","None","732.82890697","231","338413.739286","345330.428239","346096.921161","346863.956372","347630.287905","348396.924902","334514.242836","335280.440188","339180.213657","339964.077166","340730.944187","341497.190079","342263.861085","343030.104813","343796.919275","344564.017557","347639.69821","Mapping"
"Mixed","Female","done","45","F_done.wav","space","38.2728595287","231","338413.739286","345330.428239","346096.921161","346863.956372","347630.287905","348396.924902","349163.847574","335280.440188","339180.213657","339964.077166","340730.944187","341497.190079","342263.861085","343030.104813","343796.919275","344564.017557","348400.589222","Mapping"
"Mixed","Female","done","45","M_depth.wav","None","694.745879737","231","338413.739286","345330.428239","346096.921161","346863.956372","347630.287905","348396.924902","349163.847574","349930.186527","339180.213657","339964.077166","340730.944187","341497.190079","342263.861085","343030.104813","343796.919275","344564.017557","349208.899056","Mapping"
"Mixed","Male","ball","4","F_tile.wav","space","115.628303378","231","353063.449761","345330.428239","346096.921161","346863.956372","347630.287905","348396.924902","349163.847574","349930.186527","339180.213657","339964.077166","340730.944187","341497.190079","342263.861085","343030.104813","343796.919275","344564.017557","349939.14142","Mapping"
"Mixed","Male","ball","4","M_jolt.wav","None","672.965246136","231","353063.449761","345330.428239","346096.921161","346863.956372","347630.287905","348396.924902","349163.847574","349930.186527","353830.101597","339964.077166","340730.944187","341497.190079","342263.861085","343030.104813","343796.919275","344564.017557","353124.894843","Mapping"
"Mixed","Male","ball","4","F_gnash.wav","None","726.853207336","231","353063.449761","345330.428239","346096.921161","346863.956372","347630.287905","348396.924902","349163.847574","349930.186527","353830.101597","354597.172055","340730.944187","341497.190079","342263.861085","343030.104813","343796.919275","344564.017557","353839.106267","Mapping"
"Mixed","Male","ball","4","F_gnash.wav","None","731.872325065","231","353063.449761","345330.428239","346096.921161","346863.956372","347630.287905","348396.924902","349163.847574","349930.186527","353830.101597","354597.172055","355363.340653","341497.190079","342263.861085","343030.104813","343796.919275","344564.017557","354606.097267","Mapping"
"Mixed","Male","ball","4","M_ball.wav","None","693.819596781","231","353063.449761","345330.428239","346096.921161","346863.956372","347630.287905","348396.924902","349163.847574","349930.186527","353830.101597","354597.172055","355363.340653","356147.124086","342263.861085","343030.104813","343796.919275","344564.017557","355411.763051","Mapping"
"Mixed","Male","ball","4","M_greet.wav","space","634.007258806","231","353063.449761","345330.428239","346096.921161","346863.956372","347630.287905","348396.924902","349163.847574","349930.186527","353830.101597","354597.172055","355363.340653","356147.124086","356913.880114","343030.104813","343796.919275","344564.017557","356156.64322","Mapping"
"Mixed","Male","ball","4","M_ball.wav","None","666.463952162","231","353063.449761","345330.428239","346096.921161","346863.956372","347630.287905","348396.924902","349163.847574","349930.186527","353830.101597","354597.172055","355363.340653","356147.124086","356913.880114","357680.638925","343796.919275","344564.017557","356978.062616","Mapping"
"Mixed","Male","ball","4","M_romp.wav","space","676.256704028","231","353063.449761","345330.428239","346096.921161","346863.956372","347630.287905","348396.924902","349163.847574","349930.186527","353830.101597","354597.172055","355363.340653","356147.124086","356913.880114","357680.638925","358447.293235","344564.017557","357690.362113","Mapping"
"Mixed","Male","ball","4","F_greet.wav","None","722.343606991","231","353063.449761","345330.428239","346096.921161","346863.956372","347630.287905","348396.924902","349163.847574","349930.186527","353830.101597","354597.172055","355363.340653","356147.124086","356913.880114","357680.638925","358447.293235","359213.294262","358456.5539","Mapping"
"Mixed","Male","ball","4","F_cave.wav","None","685.30311191","231","353063.449761","359980.133767","346096.921161","346863.956372","347630.287905","348396.924902","349163.847574","349930.186527","353830.101597","354597.172055","355363.340653","356147.124086","356913.880114","357680.638925","358447.293235","359213.294262","359265.448998","Mapping"
"Mixed","Male","ball","4","F_park.wav","None","730.683554197","231","353063.449761","359980.133767","360746.90278","346863.956372","347630.287905","348396.924902","349163.847574","349930.186527","353830.101597","354597.172055","355363.340653","356147.124086","356913.880114","357680.638925","358447.293235","359213.294262","359989.889109","Mapping"
"Mixed","Male","ball","4","F_lash.wav","None","684.323960333","231","353063.449761","359980.133767","360746.90278","361513.144962","347630.287905","348396.924902","349163.847574","349930.186527","353830.101597","354597.172055","355363.340653","356147.124086","356913.880114","357680.638925","358447.293235","359213.294262","360804.867499","Mapping"
"Mixed","Male","ball","4","M_ball.wav","None","736.406040844","231","353063.449761","359980.133767","360746.90278","361513.144962","362297.125029","348396.924902","349163.847574","349930.186527","353830.101597","354597.172055","355363.340653","356147.124086","356913.880114","357680.638925","358447.293235","359213.294262","361522.160144","Mapping"
"Mixed","Male","ball","4","F_jaw.wav","space","484.185017878","231","353063.449761","359980.133767","360746.90278","361513.144962","362297.125029","363046.837885","349163.847574","349930.186527","353830.101597","354597.172055","355363.340653","356147.124086","356913.880114","357680.638925","358447.293235","359213.294262","362306.415375","Mapping"
"Mixed","Male","ball","4","M_ball.wav","None","692.426153109","231","353063.449761","359980.133767","360746.90278","361513.144962","362297.125029","363046.837885","363813.123969","349930.186527","353830.101597","354597.172055","355363.340653","356147.124086","356913.880114","357680.638925","358447.293235","359213.294262","363099.788433","Mapping"
"Mixed","Male","ball","4","M_depth.wav","space","648.41411158","231","353063.449761","359980.133767","360746.90278","361513.144962","362297.125029","363046.837885","363813.123969","364579.62864","353830.101597","354597.172055","355363.340653","356147.124086","356913.880114","357680.638925","358447.293235","359213.294262","363822.141624","Mapping"
"Mixed","Male","ball","5","F_park.wav","None","735.932078329","231","367713.890812","359980.133767","360746.90278","361513.144962","362297.125029","363046.837885","363813.123969","364579.62864","353830.101597","354597.172055","355363.340653","356147.124086","356913.880114","357680.638925","358447.293235","359213.294262","364588.720496","Mapping"
"Mixed","Male","ball","5","F_jaw.wav","space","575.543534243","231","367713.890812","359980.133767","360746.90278","361513.144962","362297.125029","363046.837885","363813.123969","364579.62864","368480.11197","354597.172055","355363.340653","356147.124086","356913.880114","357680.638925","358447.293235","359213.294262","367758.870566","Mapping"
"Mixed","Male","ball","5","F_romp.wav","None","722.701938823","231","367713.890812","359980.133767","360746.90278","361513.144962","362297.125029","363046.837885","363813.123969","364579.62864","368480.11197","369246.453706","355363.340653","356147.124086","356913.880114","357680.638925","358447.293235","359213.294262","368489.595858","Mapping"
"Mixed","Male","ball","5","M_ball.wav","None","679.829818662","231","367713.890812","359980.133767","360746.90278","361513.144962","362297.125029","363046.837885","363813.123969","364579.62864","368480.11197","369246.453706","370013.260439","356147.124086","356913.880114","357680.638925","358447.293235","359213.294262","369301.764482","Mapping"
"Mixed","Male","ball","5","F_cling.wav","space","415.889894823","231","367713.890812","359980.133767","360746.90278","361513.144962","362297.125029","363046.837885","363813.123969","364579.62864","368480.11197","369246.453706","370013.260439","370780.214647","356913.880114","357680.638925","358447.293235","359213.294262","370022.527905","Mapping"
"Mixed","Male","ball","5","F_cad.wav","None","677.812154405","231","367713.890812","359980.133767","360746.90278","361513.144962","362297.125029","363046.837885","363813.123969","364579.62864","368480.11197","369246.453706","370013.260439","370780.214647","371546.425602","357680.638925","358447.293235","359213.294262","370835.316731","Mapping"
"Mixed","Male","ball","5","M_jaw.wav","None","727.969322586","231","367713.890812","359980.133767","360746.90278","361513.144962","362297.125029","363046.837885","363813.123969","364579.62864","368480.11197","369246.453706","370013.260439","370780.214647","371546.425602","372313.006947","358447.293235","359213.294262","371555.542502","Mapping"
"Mixed","Male","ball","5","M_ball.wav","None","732.392354403","231","367713.890812","359980.133767","360746.90278","361513.144962","362297.125029","363046.837885","363813.123969","364579.62864","368480.11197","369246.453706","370013.260439","370780.214647","371546.425602","372313.006947","373079.739169","359213.294262","372322.194029","Mapping"
"Mixed","Male","ball","5","F_depth.wav","space","502.582678339","231","367713.890812","359980.133767","360746.90278","361513.144962","362297.125029","363046.837885","363813.123969","364579.62864","368480.11197","369246.453706","370013.260439","370780.214647","371546.425602","372313.006947","373079.739169","373846.36318","373095.765471","Mapping"
"Mixed","Male","ball","5","M_ball.wav","None","735.776255024","231","367713.890812","374613.01378","360746.90278","361513.144962","362297.125029","363046.837885","363813.123969","364579.62864","368480.11197","369246.453706","370013.260439","370780.214647","371546.425602","372313.006947","373079.739169","373846.36318","373855.228722","Mapping"
"Mixed","Male","ball","5","M_dime.wav","space","632.334631751","231","367713.890812","374613.01378","375396.668288","361513.144962","362297.125029","363046.837885","363813.123969","364579.62864","368480.11197","369246.453706","370013.260439","370780.214647","371546.425602","372313.006947","373079.739169","373846.36318","374622.029271","Mapping"
"Mixed","Male","ball","5","F_jaw.wav","None","716.205591569","231","367713.890812","374613.01378","375396.668288","376162.938914","362297.125029","363046.837885","363813.123969","364579.62864","368480.11197","369246.453706","370013.260439","370780.214647","371546.425602","372313.006947","373079.739169","373846.36318","375412.97872","Mapping"
"Mixed","Male","ball","5","M_done.wav","None","724.737226032","231","367713.890812","374613.01378","375396.668288","376162.938914","376929.792641","363046.837885","363813.123969","364579.62864","368480.11197","369246.453706","370013.260439","370780.214647","371546.425602","372313.006947","373079.739169","373846.36318","376172.447845","Mapping"
"Mixed","Male","ball","5","M_ball.wav","None","722.161504091","231","367713.890812","374613.01378","375396.668288","376162.938914","376929.792641","377696.307823","363813.123969","364579.62864","368480.11197","369246.453706","370013.260439","370780.214647","371546.425602","372313.006947","373079.739169","373846.36318","376943.737589","Mapping"
"Mixed","Male","ball","5","M_bluff.wav","space","589.019466424","231","367713.890812","374613.01378","375396.668288","376162.938914","376929.792641","377696.307823","378463.001398","364579.62864","368480.11197","369246.453706","370013.260439","370780.214647","371546.425602","372313.006947","373079.739169","373846.36318","377705.285594","Mapping"
"Mixed","Male","ball","5","F_tile.wav","None","729.410688044","231","367713.890812","374613.01378","375396.668288","376162.938914","376929.792641","377696.307823","378463.001398","379229.697446","368480.11197","369246.453706","370013.260439","370780.214647","371546.425602","372313.006947","373079.739169","373846.36318","378472.31895","Mapping"
"Mixed","Female","tile","34","M_greet.wav","None","719.617936062","231","382363.48411","374613.01378","375396.668288","376162.938914","376929.792641","377696.307823","378463.001398","379229.697446","368480.11197","369246.453706","370013.260439","370780.214647","371546.425602","372313.006947","373079.739169","373846.36318","379250.364747","Mapping"
"Mixed","Female","tile","34","F_tile.wav","None","723.297406454","231","382363.48411","374613.01378","375396.668288","376162.938914","376929.792641","377696.307823","378463.001398","379229.697446","383130.505099","369246.453706","370013.260439","370780.214647","371546.425602","372313.006947","373079.739169","373846.36318","382372.515677","Mapping"
"Mixed","Female","tile","34","M_reek.wav","None","718.078871956","231","382363.48411","374613.01378","375396.668288","376162.938914","376929.792641","377696.307823","378463.001398","379229.697446","383130.505099","383896.258479","370013.260439","370780.214647","371546.425602","372313.006947","373079.739169","373846.36318","383143.868493","Mapping"
"Mixed","Female","tile","34","F_dime.wav","space","125.211435836","231","382363.48411","374613.01378","375396.668288","376162.938914","376929.792641","377696.307823","378463.001398","379229.697446","383130.505099","383896.258479","384662.902895","370780.214647","371546.425602","372313.006947","373079.739169","373846.36318","383904.938207","Mapping"
"Mixed","Female","tile","34","F_tile.wav","None","728.433082462","231","382363.48411","374613.01378","375396.668288","376162.938914","376929.792641","377696.307823","378463.001398","379229.697446","383130.505099","383896.258479","384662.902895","385429.420242","371546.425602","372313.006947","373079.739169","373846.36318","384672.373179","Mapping"
"Mixed","Female","tile","34","M_cling.wav","space","606.049344642","231","382363.48411","374613.01378","375396.668288","376162.938914","376929.792641","377696.307823","378463.001398","379229.697446","383130.505099","383896.258479","384662.902895","385429.420242","386196.222955","372313.006947","373079.739169","373846.36318","385440.091355","Mapping"
"Mixed","Female","tile","34","M_priest.wav","None","729.260429856","231","382363.48411","374613.01378","375396.668288","376162.938914","376929.792641","377696.307823","378463.001398","379229.697446","383130.505099","383896.258479","384662.902895","385429.420242","386196.222955","386962.844492","373079.739169","373846.36318","386205.368298","Mapping"
"Mixed","Female","tile","34","F_cad.wav","None","732.595172012","231","382363.48411","374613.01378","375396.668288","376162.938914","376929.792641","377696.307823","378463.001398","379229.697446","383130.505099","383896.258479","384662.902895","385429.420242","386196.222955","386962.844492","387729.662046","373846.36318","386973.441713","Mapping"
"Mixed","Female","tile","34","F_tile.wav","None","733.901119675","231","382363.48411","374613.01378","375396.668288","376162.938914","376929.792641","377696.307823","378463.001398","379229.697446","383130.505099","383896.258479","384662.902895","385429.420242","386196.222955","386962.844492","387729.662046","388496.125905","387738.578601","Mapping"
"Mixed","Female","tile","34","F_cave.wav","space","452.794353827","231","382363.48411","389262.708487","375396.668288","376162.938914","376929.792641","377696.307823","378463.001398","379229.697446","383130.505099","383896.258479","384662.902895","385429.420242","386196.222955","386962.844492","387729.662046","388496.125905","388505.316388","Mapping"
"Mixed","Female","tile","34","F_jolt.wav","None","733.611115254","231","382363.48411","389262.708487","390046.91456","376162.938914","376929.792641","377696.307823","378463.001398","379229.697446","383130.505099","383896.258479","384662.902895","385429.420242","386196.222955","386962.844492","387729.662046","388496.125905","389274.013405","Mapping"
"Mixed","Female","tile","34","F_tile.wav","None","722.219319432","231","382363.48411","389262.708487","390046.91456","390813.220122","376929.792641","377696.307823","378463.001398","379229.697446","383130.505099","383896.258479","384662.902895","385429.420242","386196.222955","386962.844492","387729.662046","388496.125905","390056.119573","Mapping"
"Mixed","Female","tile","34","M_gnash.wav","space","565.9795705","231","382363.48411","389262.708487","390046.91456","390813.220122","391579.996865","377696.307823","378463.001398","379229.697446","383130.505099","383896.258479","384662.902895","385429.420242","386196.222955","386962.844492","387729.662046","388496.125905","390824.005629","Mapping"
"Mixed","Female","tile","34","M_knife.wav","None","722.1398619","231","382363.48411","389262.708487","390046.91456","390813.220122","391579.996865","392346.111977","378463.001398","379229.697446","383130.505099","383896.258479","384662.902895","385429.420242","386196.222955","386962.844492","387729.662046","388496.125905","391589.298341","Mapping"
"Mixed","Female","tile","34","M_greet.wav","None","726.812396431","231","382363.48411","389262.708487","390046.91456","390813.220122","391579.996865","392346.111977","393112.659313","379229.697446","383130.505099","383896.258479","384662.902895","385429.420242","386196.222955","386962.844492","387729.662046","388496.125905","392355.197959","Mapping"
"Mixed","Female","tile","34","M_park.wav","None","727.06777358","231","382363.48411","389262.708487","390046.91456","390813.220122","391579.996865","392346.111977","393112.659313","393879.265392","383130.505099","383896.258479","384662.902895","385429.420242","386196.222955","386962.844492","387729.662046","388496.125905","393122.855227","Mapping"
"Mixed","Female","done","48","F_knife.wav","None","727.339227684","231","397012.85604","389262.708487","390046.91456","390813.220122","391579.996865","392346.111977","393112.659313","393879.265392","383130.505099","383896.258479","384662.902895","385429.420242","386196.222955","386962.844492","387729.662046","388496.125905","393888.821317","Mapping"
"Mixed","Female","done","48","M_depth.wav","None","726.309371763","231","397012.85604","389262.708487","390046.91456","390813.220122","391579.996865","392346.111977","393112.659313","393879.265392","397779.269813","383896.258479","384662.902895","385429.420242","386196.222955","386962.844492","387729.662046","388496.125905","397022.369299","Mapping"
"Mixed","Female","done","48","M_lash.wav","None","726.811159868","231","397012.85604","389262.708487","390046.91456","390813.220122","391579.996865","392346.111977","393112.659313","393879.265392","397779.269813","398545.78314","384662.902895","385429.420242","386196.222955","386962.844492","387729.662046","388496.125905","397788.381457","Mapping"
"Mixed","Female","done","48","F_done.wav","None","730.131989229","231","397012.85604","389262.708487","390046.91456","390813.220122","391579.996865","392346.111977","393112.659313","393879.265392","397779.269813","398545.78314","399312.670876","385429.420242","386196.222955","386962.844492","387729.662046","388496.125905","398556.485171","Mapping"
"Mixed","Female","done","48","M_romp.wav","space","666.475391481","231","397012.85604","389262.708487","390046.91456","390813.220122","391579.996865","392346.111977","393112.659313","393879.265392","397779.269813","398545.78314","399312.670876","400079.589529","386196.222955","386962.844492","387729.662046","388496.125905","399323.428249","Mapping"
"Mixed","Female","done","48","F_done.wav","None","727.590276278","231","397012.85604","389262.708487","390046.91456","390813.220122","391579.996865","392346.111977","393112.659313","393879.265392","397779.269813","398545.78314","399312.670876","400079.589529","400845.753491","386962.844492","387729.662046","388496.125905","400090.826429","Mapping"
"Mixed","Female","done","48","M_reek.wav","space","420.751334168","231","397012.85604","389262.708487","390046.91456","390813.220122","391579.996865","392346.111977","393112.659313","393879.265392","397779.269813","398545.78314","399312.670876","400079.589529","400845.753491","401612.859194","387729.662046","388496.125905","400857.049443","Mapping"
"Mixed","Female","done","48","F_done.wav","None","728.435555706","231","397012.85604","389262.708487","390046.91456","390813.220122","391579.996865","392346.111977","393112.659313","393879.265392","397779.269813","398545.78314","399312.670876","400079.589529","400845.753491","401612.859194","402379.049744","388496.125905","401624.126083","Mapping"
"Mixed","Female","done","48","M_tile.wav","space","337.667529355","231","397012.85604","389262.708487","390046.91456","390813.220122","391579.996865","392346.111977","393112.659313","393879.265392","397779.269813","398545.78314","399312.670876","400079.589529","400845.753491","401612.859194","402379.049744","403145.815047","402388.136344","Mapping"
"Mixed","Female","done","48","F_jaw.wav","None","731.942816521","231","397012.85604","403912.624253","390046.91456","390813.220122","391579.996865","392346.111977","393112.659313","393879.265392","397779.269813","398545.78314","399312.670876","400079.589529","400845.753491","401612.859194","402379.049744","403145.815047","403157.001861","Mapping"
"Mixed","Female","done","48","F_gnash.wav","None","732.708329335","231","397012.85604","403912.624253","404679.030297","390813.220122","391579.996865","392346.111977","393112.659313","393879.265392","397779.269813","398545.78314","399312.670876","400079.589529","400845.753491","401612.859194","402379.049744","403145.815047","403922.469564","Mapping"
"Mixed","Female","done","48","F_romp.wav","None","732.871572836","231","397012.85604","403912.624253","404679.030297","405445.81044","391579.996865","392346.111977","393112.659313","393879.265392","397779.269813","398545.78314","399312.670876","400079.589529","400845.753491","401612.859194","402379.049744","403145.815047","404690.365823","Mapping"
"Mixed","Female","done","48","M_knife.wav","None","733.972229413","231","397012.85604","403912.624253","404679.030297","405445.81044","406212.497214","392346.111977","393112.659313","393879.265392","397779.269813","398545.78314","399312.670876","400079.589529","400845.753491","401612.859194","402379.049744","403145.815047","405455.247025","Mapping"
"Mixed","Female","done","48","M_bluff.wav","None","735.173058114","231","397012.85604","403912.624253","404679.030297","405445.81044","406212.497214","406979.009304","393112.659313","393879.265392","397779.269813","398545.78314","399312.670876","400079.589529","400845.753491","401612.859194","402379.049744","403145.815047","406221.633282","Mapping"
"Mixed","Female","done","48","F_done.wav","None","733.805894153","231","397012.85604","403912.624253","404679.030297","405445.81044","406212.497214","406979.009304","407746.140359","393879.265392","397779.269813","398545.78314","399312.670876","400079.589529","400845.753491","401612.859194","402379.049744","403145.815047","406990.011232","Mapping"
