Condition,Talker,Target,Trial,current_stimulus,response_response,response_time_response,subject_nr,time_Audio1,time_Audio10,time_Audio11,time_Audio12,time_Audio13,time_Audio14,time_Audio15,time_Audio16,time_Audio2,time_Audio3,time_Audio4,time_Audio5,time_Audio6,time_Audio7,time_Audio8,time_Audio9,time_response
Blocked,Female,done,21,F_dime.wav,NA,NA,4341,223492.4229,NA,NA,NA,NA,NA,NA,NA,NA,NA,NA,NA,NA,NA,NA,NA,NA
Blocked,Female,done,21,F_done.wav,None,624.2303499,4341,223492.4229,NA,NA,NA,NA,NA,NA,NA,224242.2209,NA,NA,NA,NA,NA,NA,NA,223598.9415
Blocked,Female,done,21,F_jolt.wav,None,735.379695,4341,223492.4229,NA,NA,NA,NA,NA,NA,NA,224242.2209,225008.7574,NA,NA,NA,NA,NA,NA,224251.9383
Blocked,Female,done,21,F_reek.wav,space,181.330333,4341,223492.4229,NA,NA,NA,NA,NA,NA,NA,224242.2209,225008.7574,225775.1429,NA,NA,NA,NA,NA,225018.7891
Blocked,Female,done,21,F_done.wav,None,731.3508466,4341,223492.4229,NA,NA,NA,NA,NA,NA,NA,224242.2209,225008.7574,225775.1429,226541.7529,NA,NA,NA,NA,225784.2134
Blocked,Female,done,21,F_reek.wav,space,682.1804075,4341,223492.4229,NA,NA,NA,NA,NA,NA,NA,224242.2209,225008.7574,225775.1429,226541.7529,227308.6186,NA,NA,NA,226557.9372
Blocked,Female,done,21,F_cad.wav,None,725.3850224,4341,223492.4229,NA,NA,NA,NA,NA,NA,NA,224242.2209,225008.7574,225775.1429,226541.7529,227308.6186,228075.8522,NA,NA,227318.5826
Blocked,Female,done,21,F_lash.wav,None,722.7768293,4341,223492.4229,NA,NA,NA,NA,NA,NA,NA,224242.2209,225008.7574,225775.1429,226541.7529,227308.6186,228075.8522,228842.2801,NA,228085.5899
Blocked,Female,done,21,F_done.wav,None,720.9808361,4341,223492.4229,NA,NA,NA,NA,NA,NA,NA,224242.2209,225008.7574,225775.1429,226541.7529,227308.6186,228075.8522,228842.2801,229591.8243,228851.6647
Blocked,Female,done,21,F_knife.wav,space,342.9811131,4341,223492.4229,230358.7063,NA,NA,NA,NA,NA,NA,224242.2209,225008.7574,225775.1429,226541.7529,227308.6186,228075.8522,228842.2801,229591.8243,229601.1295
Blocked,Female,done,21,F_romp.wav,None,732.8126221,4341,223492.4229,230358.7063,231125.7612,NA,NA,NA,NA,NA,224242.2209,225008.7574,225775.1429,226541.7529,227308.6186,228075.8522,228842.2801,229591.8243,230368.0755
Blocked,Female,done,21,F_done.wav,None,729.2339313,4341,223492.4229,230358.7063,231125.7612,231892.395,NA,NA,NA,NA,224242.2209,225008.7574,225775.1429,226541.7529,227308.6186,228075.8522,228842.2801,229591.8243,231135.8681
Blocked,Female,done,21,F_romp.wav,space,361.9715171,4341,223492.4229,230358.7063,231125.7612,231892.395,232658.6275,NA,NA,NA,224242.2209,225008.7574,225775.1429,226541.7529,227308.6186,228075.8522,228842.2801,229591.8243,231902.0725
Blocked,Female,done,21,F_jaw.wav,None,726.1137459,4341,223492.4229,230358.7063,231125.7612,231892.395,232658.6275,233425.5637,NA,NA,224242.2209,225008.7574,225775.1429,226541.7529,227308.6186,228075.8522,228842.2801,229591.8243,232667.7843
Blocked,Female,done,21,F_bluff.wav,None,723.6134545,4341,223492.4229,230358.7063,231125.7612,231892.395,232658.6275,233425.5637,234192.7698,NA,224242.2209,225008.7574,225775.1429,226541.7529,227308.6186,228075.8522,228842.2801,229591.8243,233434.8698
Blocked,Female,done,21,F_cling.wav,None,720.6305419,4341,223492.4229,230358.7063,231125.7612,231892.395,232658.6275,233425.5637,234192.7698,234941.8493,224242.2209,225008.7574,225775.1429,226541.7529,227308.6186,228075.8522,228842.2801,229591.8243,234202.0246
Blocked,Female,cave,8,F_priest.wav,None,741.5492656,4341,238159.1811,230358.7063,231125.7612,231892.395,232658.6275,233425.5637,234192.7698,234941.8493,224242.2209,225008.7574,225775.1429,226541.7529,227308.6186,228075.8522,228842.2801,229591.8243,234945.4589
Blocked,Female,cave,8,F_cave.wav,None,720.8475824,4341,238159.1811,230358.7063,231125.7612,231892.395,232658.6275,233425.5637,234192.7698,234941.8493,238909.4967,225008.7574,225775.1429,226541.7529,227308.6186,228075.8522,228842.2801,229591.8243,238169.1421
Blocked,Female,cave,8,F_bluff.wav,space,612.0346659,4341,238159.1811,230358.7063,231125.7612,231892.395,232658.6275,233425.5637,234192.7698,234941.8493,238909.4967,239675.7347,225775.1429,226541.7529,227308.6186,228075.8522,228842.2801,229591.8243,238915.8697
Blocked,Female,cave,8,F_greet.wav,None,732.6431945,4341,238159.1811,230358.7063,231125.7612,231892.395,232658.6275,233425.5637,234192.7698,234941.8493,238909.4967,239675.7347,240442.743,226541.7529,227308.6186,228075.8522,228842.2801,229591.8243,239685.6707
Blocked,Female,cave,8,F_knife.wav,None,730.9377901,4341,238159.1811,230358.7063,231125.7612,231892.395,232658.6275,233425.5637,234192.7698,234941.8493,238909.4967,239675.7347,240442.743,241208.7331,227308.6186,228075.8522,228842.2801,229591.8243,240452.3607
Blocked,Female,cave,8,F_cave.wav,None,729.7072769,4341,238159.1811,230358.7063,231125.7612,231892.395,232658.6275,233425.5637,234192.7698,234941.8493,238909.4967,239675.7347,240442.743,241208.7331,241975.6689,228075.8522,228842.2801,229591.8243,241217.7585
Blocked,Female,cave,8,F_cad.wav,space,374.3786756,4341,238159.1811,230358.7063,231125.7612,231892.395,232658.6275,233425.5637,234192.7698,234941.8493,238909.4967,239675.7347,240442.743,241208.7331,241975.6689,242742.512,228842.2801,229591.8243,241985.4901
Blocked,Female,cave,8,F_cave.wav,None,723.0560137,4341,238159.1811,230358.7063,231125.7612,231892.395,232658.6275,233425.5637,234192.7698,234941.8493,238909.4967,239675.7347,240442.743,241208.7331,241975.6689,242742.512,243509.1594,229591.8243,242752.7423
Blocked,Female,cave,8,F_jolt.wav,space,529.0541775,4341,238159.1811,230358.7063,231125.7612,231892.395,232658.6275,233425.5637,234192.7698,234941.8493,238909.4967,239675.7347,240442.743,241208.7331,241975.6689,242742.512,243509.1594,244259.0502,243518.8143
Blocked,Female,cave,8,F_reek.wav,None,735.0649559,4341,238159.1811,245025.1949,231125.7612,231892.395,232658.6275,233425.5637,234192.7698,234941.8493,238909.4967,239675.7347,240442.743,241208.7331,241975.6689,242742.512,243509.1594,244259.0502,244269.0845
Blocked,Female,cave,8,F_bluff.wav,None,734.1389796,4341,238159.1811,245025.1949,245792.1852,231892.395,232658.6275,233425.5637,234192.7698,234941.8493,238909.4967,239675.7347,240442.743,241208.7331,241975.6689,242742.512,243509.1594,244259.0502,245034.3196
Blocked,Female,cave,8,F_bluff.wav,None,730.949848,4341,238159.1811,245025.1949,245792.1852,246558.7825,232658.6275,233425.5637,234192.7698,234941.8493,238909.4967,239675.7347,240442.743,241208.7331,241975.6689,242742.512,243509.1594,244259.0502,245801.8187
Blocked,Female,cave,8,F_park.wav,None,728.2751827,4341,238159.1811,245025.1949,245792.1852,246558.7825,247325.2098,233425.5637,234192.7698,234941.8493,238909.4967,239675.7347,240442.743,241208.7331,241975.6689,242742.512,243509.1594,244259.0502,246568.5351
Blocked,Female,cave,8,F_greet.wav,None,726.7781608,4341,238159.1811,245025.1949,245792.1852,246558.7825,247325.2098,248091.8414,234192.7698,234941.8493,238909.4967,239675.7347,240442.743,241208.7331,241975.6689,242742.512,243509.1594,244259.0502,247334.472
Blocked,Female,cave,8,F_cave.wav,None,726.1112724,4341,238159.1811,245025.1949,245792.1852,246558.7825,247325.2098,248091.8414,248858.8669,234941.8493,238909.4967,239675.7347,240442.743,241208.7331,241975.6689,242742.512,243509.1594,244259.0502,248101.0789
Blocked,Female,cave,8,F_cad.wav,space,514.9648022,4341,238159.1811,245025.1949,245792.1852,246558.7825,247325.2098,248091.8414,248858.8669,249625.3678,238909.4967,239675.7347,240442.743,241208.7331,241975.6689,242742.512,243509.1594,244259.0502,248868.7989
Blocked,Female,tile,14,F_dime.wav,None,720.2616977,4341,252742.5055,245025.1949,245792.1852,246558.7825,247325.2098,248091.8414,248858.8669,249625.3678,238909.4967,239675.7347,240442.743,241208.7331,241975.6689,242742.512,243509.1594,244259.0502,249635.4209
Blocked,Female,tile,14,F_tile.wav,None,719.4324923,4341,252742.5055,245025.1949,245792.1852,246558.7825,247325.2098,248091.8414,248858.8669,249625.3678,253491.7984,239675.7347,240442.743,241208.7331,241975.6689,242742.512,243509.1594,244259.0502,252753.5366
Blocked,Female,tile,14,F_park.wav,space,617.2272456,4341,252742.5055,245025.1949,245792.1852,246558.7825,247325.2098,248091.8414,248858.8669,249625.3678,253491.7984,254258.5385,240442.743,241208.7331,241975.6689,242742.512,243509.1594,244259.0502,253502.5085
Blocked,Female,tile,14,F_romp.wav,None,733.8128006,4341,252742.5055,245025.1949,245792.1852,246558.7825,247325.2098,248091.8414,248858.8669,249625.3678,253491.7984,254258.5385,255025.0586,241208.7331,241975.6689,242742.512,243509.1594,244259.0502,254268.1322
Blocked,Female,tile,14,F_tile.wav,None,732.4700574,4341,252742.5055,245025.1949,245792.1852,246558.7825,247325.2098,248091.8414,248858.8669,249625.3678,253491.7984,254258.5385,255025.0586,255792.1289,241975.6689,242742.512,243509.1594,244259.0502,255034.0778
Blocked,Female,tile,14,F_dime.wav,space,645.6644661,4341,252742.5055,245025.1949,245792.1852,246558.7825,247325.2098,248091.8414,248858.8669,249625.3678,253491.7984,254258.5385,255025.0586,255792.1289,256558.5228,242742.512,243509.1594,244259.0502,255802.0148
Blocked,Female,tile,14,F_jaw.wav,None,726.9005943,4341,252742.5055,245025.1949,245792.1852,246558.7825,247325.2098,248091.8414,248858.8669,249625.3678,253491.7984,254258.5385,255025.0586,255792.1289,256558.5228,257325.3576,243509.1594,244259.0502,256568.3617
Blocked,Female,tile,14,F_tile.wav,None,724.8384026,4341,252742.5055,245025.1949,245792.1852,246558.7825,247325.2098,248091.8414,248858.8669,249625.3678,253491.7984,254258.5385,255025.0586,255792.1289,256558.5228,257325.3576,258092.1543,244259.0502,257335.1633
Blocked,Female,tile,14,F_romp.wav,space,394.2415696,4341,252742.5055,245025.1949,245792.1852,246558.7825,247325.2098,248091.8414,248858.8669,249625.3678,253491.7984,254258.5385,255025.0586,255792.1289,256558.5228,257325.3576,258092.1543,258858.4276,258101.4057
Blocked,Female,tile,14,F_knife.wav,None,721.1558293,4341,252742.5055,259608.4486,245792.1852,246558.7825,247325.2098,248091.8414,248858.8669,249625.3678,253491.7984,254258.5385,255025.0586,255792.1289,256558.5228,257325.3576,258092.1543,258858.4276,258867.4437
Blocked,Female,tile,14,F_greet.wav,None,734.9796235,4341,252742.5055,259608.4486,260375.2728,246558.7825,247325.2098,248091.8414,248858.8669,249625.3678,253491.7984,254258.5385,255025.0586,255792.1289,256558.5228,257325.3576,258092.1543,258858.4276,259618.1693
Blocked,Female,tile,14,F_cling.wav,None,732.5198343,4341,252742.5055,259608.4486,260375.2728,261142.0096,247325.2098,248091.8414,248858.8669,249625.3678,253491.7984,254258.5385,255025.0586,255792.1289,256558.5228,257325.3576,258092.1543,258858.4276,260385.3132
Blocked,Female,tile,14,F_tile.wav,None,730.1840237,4341,252742.5055,259608.4486,260375.2728,261142.0096,261908.7148,248091.8414,248858.8669,249625.3678,253491.7984,254258.5385,255025.0586,255792.1289,256558.5228,257325.3576,258092.1543,258858.4276,261152.0509
Blocked,Female,tile,14,F_knife.wav,space,521.2048641,4341,252742.5055,259608.4486,260375.2728,261142.0096,261908.7148,262674.9785,248858.8669,249625.3678,253491.7984,254258.5385,255025.0586,255792.1289,256558.5228,257325.3576,258092.1543,258858.4276,261918.4436
Blocked,Female,tile,14,F_lash.wav,None,726.6872637,4341,252742.5055,259608.4486,260375.2728,261142.0096,261908.7148,262674.9785,263441.9957,249625.3678,253491.7984,254258.5385,255025.0586,255792.1289,256558.5228,257325.3576,258092.1543,258858.4276,262684.7243
Blocked,Female,tile,14,F_depth.wav,None,723.980444,4341,252742.5055,259608.4486,260375.2728,261142.0096,261908.7148,262674.9785,263441.9957,264208.8277,253491.7984,254258.5385,255025.0586,255792.1289,256558.5228,257325.3576,258092.1543,258858.4276,263451.973
Blocked,Female,cave,11,F_knife.wav,None,721.6523625,4341,267325.7091,259608.4486,260375.2728,261142.0096,261908.7148,262674.9785,263441.9957,264208.8277,253491.7984,254258.5385,255025.0586,255792.1289,256558.5228,257325.3576,258092.1543,258858.4276,264219.0378
Blocked,Female,cave,11,F_jaw.wav,None,720.1324627,4341,267325.7091,259608.4486,260375.2728,261142.0096,261908.7148,262674.9785,263441.9957,264208.8277,268075.1105,254258.5385,255025.0586,255792.1289,256558.5228,257325.3576,258092.1543,258858.4276,267336.1388
Blocked,Female,cave,11,F_lash.wav,None,736.267643,4341,267325.7091,259608.4486,260375.2728,261142.0096,261908.7148,262674.9785,263441.9957,264208.8277,268075.1105,268841.4985,255025.0586,255792.1289,256558.5228,257325.3576,258092.1543,258858.4276,268084.5072
Blocked,Female,cave,11,F_dime.wav,None,734.5569828,4341,267325.7091,259608.4486,260375.2728,261142.0096,261908.7148,262674.9785,263441.9957,264208.8277,268075.1105,268841.4985,269608.4872,255792.1289,256558.5228,257325.3576,258092.1543,258858.4276,268850.7248
Blocked,Female,cave,11,F_cave.wav,None,731.0763001,4341,267325.7091,259608.4486,260375.2728,261142.0096,261908.7148,262674.9785,263441.9957,264208.8277,268075.1105,268841.4985,269608.4872,270375.2509,256558.5228,257325.3576,258092.1543,258858.4276,269618.502
Blocked,Female,cave,11,F_bluff.wav,None,728.6097086,4341,267325.7091,259608.4486,260375.2728,261142.0096,261908.7148,262674.9785,263441.9957,264208.8277,268075.1105,268841.4985,269608.4872,270375.2509,271141.4234,257325.3576,258092.1543,258858.4276,270385.2901
Blocked,Female,cave,11,F_jaw.wav,space,0.020405743,4341,267325.7091,259608.4486,260375.2728,261142.0096,261908.7148,262674.9785,263441.9957,264208.8277,268075.1105,268841.4985,269608.4872,270375.2509,271141.4234,271908.3722,258092.1543,258858.4276,271150.7125
Blocked,Female,cave,11,F_gnash.wav,None,725.086051,4341,267325.7091,259608.4486,260375.2728,261142.0096,261908.7148,262674.9785,263441.9957,264208.8277,268075.1105,268841.4985,269608.4872,270375.2509,271141.4234,271908.3722,272675.548,258858.4276,271917.4932
Blocked,Female,cave,11,F_jaw.wav,None,721.2461079,4341,267325.7091,259608.4486,260375.2728,261142.0096,261908.7148,262674.9785,263441.9957,264208.8277,268075.1105,268841.4985,269608.4872,270375.2509,271141.4234,271908.3722,272675.548,273441.9073,272685.8392
Blocked,Female,cave,11,F_bluff.wav,None,719.4980374,4341,267325.7091,274191.6901,260375.2728,261142.0096,261908.7148,262674.9785,263441.9957,264208.8277,268075.1105,268841.4985,269608.4872,270375.2509,271141.4234,271908.3722,272675.548,273441.9073,273452.1483
Blocked,Female,cave,11,F_cave.wav,None,734.2932574,4341,267325.7091,274191.6901,274958.1966,261142.0096,261908.7148,262674.9785,263441.9957,264208.8277,268075.1105,268841.4985,269608.4872,270375.2509,271141.4234,271908.3722,272675.548,273441.9073,274201.5312
Blocked,Female,cave,11,F_park.wav,space,368.1061505,4341,267325.7091,274191.6901,274958.1966,275725.1615,261908.7148,262674.9785,263441.9957,264208.8277,268075.1105,268841.4985,269608.4872,270375.2509,271141.4234,271908.3722,272675.548,273441.9073,274967.2888
Blocked,Female,cave,11,F_cave.wav,None,730.4223967,4341,267325.7091,274191.6901,274958.1966,275725.1615,276491.7483,262674.9785,263441.9957,264208.8277,268075.1105,268841.4985,269608.4872,270375.2509,271141.4234,271908.3722,272675.548,273441.9073,275734.3971
Blocked,Female,cave,11,F_lash.wav,space,650.0210394,4341,267325.7091,274191.6901,274958.1966,275725.1615,276491.7483,277257.919,263441.9957,264208.8277,268075.1105,268841.4985,269608.4872,270375.2509,271141.4234,271908.3722,272675.548,273441.9073,276501.3333
Blocked,Female,cave,11,F_cave.wav,None,726.5428794,4341,267325.7091,274191.6901,274958.1966,275725.1615,276491.7483,277257.919,278025.5554,264208.8277,268075.1105,268841.4985,269608.4872,270375.2509,271141.4234,271908.3722,272675.548,273441.9073,277267.1194
Blocked,Female,cave,11,F_jolt.wav,space,683.8202672,4341,267325.7091,274191.6901,274958.1966,275725.1615,276491.7483,277257.919,278025.5554,278792.2823,268075.1105,268841.4985,269608.4872,270375.2509,271141.4234,271908.3722,272675.548,273441.9073,278035.538
Blocked,Female,done,24,F_lash.wav,None,720.1346266,4341,281908.6774,274191.6901,274958.1966,275725.1615,276491.7483,277257.919,278025.5554,278792.2823,268075.1105,268841.4985,269608.4872,270375.2509,271141.4234,271908.3722,272675.548,273441.9073,278802.2114
Blocked,Female,done,24,F_dime.wav,None,721.0318502,4341,281908.6774,274191.6901,274958.1966,275725.1615,276491.7483,277257.919,278025.5554,278792.2823,282658.1928,268841.4985,269608.4872,270375.2509,271141.4234,271908.3722,272675.548,273441.9073,281918.2902
Blocked,Female,done,24,F_done.wav,None,738.3063375,4341,281908.6774,274191.6901,274958.1966,275725.1615,276491.7483,277257.919,278025.5554,278792.2823,282658.1928,283424.929,269608.4872,270375.2509,271141.4234,271908.3722,272675.548,273441.9073,282665.506
Blocked,Female,done,24,F_cling.wav,space,564.5918916,4341,281908.6774,274191.6901,274958.1966,275725.1615,276491.7483,277257.919,278025.5554,278792.2823,282658.1928,283424.929,284191.2489,270375.2509,271141.4234,271908.3722,272675.548,273441.9073,283434.6775
Blocked,Female,done,24,F_done.wav,None,731.8513999,4341,281908.6774,274191.6901,274958.1966,275725.1615,276491.7483,277257.919,278025.5554,278792.2823,282658.1928,283424.929,284191.2489,284957.8286,271141.4234,271908.3722,272675.548,273441.9073,284200.65
Blocked,Female,done,24,F_dime.wav,space,384.1185891,4341,281908.6774,274191.6901,274958.1966,275725.1615,276491.7483,277257.919,278025.5554,278792.2823,282658.1928,283424.929,284191.2489,284957.8286,285724.9754,271908.3722,272675.548,273441.9073,284967.1107
Blocked,Female,done,24,F_reek.wav,None,726.8597828,4341,281908.6774,274191.6901,274958.1966,275725.1615,276491.7483,277257.919,278025.5554,278792.2823,282658.1928,283424.929,284191.2489,284957.8286,285724.9754,286491.5291,272675.548,273441.9073,285734.7116
Blocked,Female,done,24,F_done.wav,None,724.9868056,4341,281908.6774,274191.6901,274958.1966,275725.1615,276491.7483,277257.919,278025.5554,278792.2823,282658.1928,283424.929,284191.2489,284957.8286,285724.9754,286491.5291,287258.1576,273441.9073,286501.2393
Blocked,Female,done,24,F_priest.wav,space,491.3516259,4341,281908.6774,274191.6901,274958.1966,275725.1615,276491.7483,277257.919,278025.5554,278792.2823,282658.1928,283424.929,284191.2489,284957.8286,285724.9754,286491.5291,287258.1576,288025.4487,287267.8496
Blocked,Female,done,24,F_cling.wav,None,718.8082701,4341,281908.6774,288774.6881,274958.1966,275725.1615,276491.7483,277257.919,278025.5554,278792.2823,282658.1928,283424.929,284191.2489,284957.8286,285724.9754,286491.5291,287258.1576,288025.4487,288036.033
Blocked,Female,done,24,F_reek.wav,None,735.2569532,4341,281908.6774,288774.6881,289541.6122,275725.1615,276491.7483,277257.919,278025.5554,278792.2823,282658.1928,283424.929,284191.2489,284957.8286,285724.9754,286491.5291,287258.1576,288025.4487,288784.4224
Blocked,Female,done,24,F_lash.wav,None,732.751715,4341,281908.6774,288774.6881,289541.6122,290308.0766,276491.7483,277257.919,278025.5554,278792.2823,282658.1928,283424.929,284191.2489,284957.8286,285724.9754,286491.5291,287258.1576,288025.4487,289551.4548
Blocked,Female,done,24,F_dime.wav,None,731.0664067,4341,281908.6774,288774.6881,289541.6122,290308.0766,291074.8696,277257.919,278025.5554,278792.2823,282658.1928,283424.929,284191.2489,284957.8286,285724.9754,286491.5291,287258.1576,288025.4487,290317.7179
Blocked,Female,done,24,F_done.wav,None,728.5855934,4341,281908.6774,288774.6881,289541.6122,290308.0766,291074.8696,291841.5847,278025.5554,278792.2823,282658.1928,283424.929,284191.2489,284957.8286,285724.9754,286491.5291,287258.1576,288025.4487,291084.9088
Blocked,Female,done,24,F_dime.wav,space,547.4441657,4341,281908.6774,288774.6881,289541.6122,290308.0766,291074.8696,291841.5847,292608.0256,278792.2823,282658.1928,283424.929,284191.2489,284957.8286,285724.9754,286491.5291,287258.1576,288025.4487,291851.6836
Blocked,Female,done,24,F_cad.wav,None,724.777495,4341,281908.6774,288774.6881,289541.6122,290308.0766,291074.8696,291841.5847,292608.0256,293375.3844,282658.1928,283424.929,284191.2489,284957.8286,285724.9754,286491.5291,287258.1576,288025.4487,292617.6941
Blocked,Female,cave,9,F_jolt.wav,None,721.6551453,4341,296491.8327,288774.6881,289541.6122,290308.0766,291074.8696,291841.5847,292608.0256,293375.3844,282658.1928,283424.929,284191.2489,284957.8286,285724.9754,286491.5291,287258.1576,288025.4487,293385.4004
Blocked,Female,cave,9,F_cling.wav,None,720.4478201,4341,296491.8327,288774.6881,289541.6122,290308.0766,291074.8696,291841.5847,292608.0256,293375.3844,297241.7077,283424.929,284191.2489,284957.8286,285724.9754,286491.5291,287258.1576,288025.4487,296501.8162
Blocked,Female,cave,9,F_cave.wav,None,735.3376476,4341,296491.8327,288774.6881,289541.6122,290308.0766,291074.8696,291841.5847,292608.0256,293375.3844,297241.7077,298007.7089,284191.2489,284957.8286,285724.9754,286491.5291,287258.1576,288025.4487,297251.5945
Blocked,Female,cave,9,F_dime.wav,space,432.0328543,4341,296491.8327,288774.6881,289541.6122,290308.0766,291074.8696,291841.5847,292608.0256,293375.3844,297241.7077,298007.7089,298774.386,284957.8286,285724.9754,286491.5291,287258.1576,288025.4487,298015.0147
Blocked,Female,cave,9,F_reek.wav,None,731.5579932,4341,296491.8327,288774.6881,289541.6122,290308.0766,291074.8696,291841.5847,292608.0256,293375.3844,297241.7077,298007.7089,298774.386,299541.5782,285724.9754,286491.5291,287258.1576,288025.4487,298783.9188
Blocked,Female,cave,9,F_cave.wav,None,728.7831553,4341,296491.8327,288774.6881,289541.6122,290308.0766,291074.8696,291841.5847,292608.0256,293375.3844,297241.7077,298007.7089,298774.386,299541.5782,300307.9211,286491.5291,287258.1576,288025.4487,299551.243
Blocked,Female,cave,9,F_reek.wav,space,609.2994022,4341,296491.8327,288774.6881,289541.6122,290308.0766,291074.8696,291841.5847,292608.0256,293375.3844,297241.7077,298007.7089,298774.386,299541.5782,300307.9211,301074.7197,287258.1576,288025.4487,300317.7231
Blocked,Female,cave,9,F_gnash.wav,None,724.9633088,4341,296491.8327,288774.6881,289541.6122,290308.0766,291074.8696,291841.5847,292608.0256,293375.3844,297241.7077,298007.7089,298774.386,299541.5782,300307.9211,301074.7197,301841.6339,288025.4487,301084.4018
Blocked,Female,cave,9,F_priest.wav,None,721.8350843,4341,296491.8327,288774.6881,289541.6122,290308.0766,291074.8696,291841.5847,292608.0256,293375.3844,297241.7077,298007.7089,298774.386,299541.5782,300307.9211,301074.7197,301841.6339,302608.2773,301852.0515
Blocked,Female,cave,9,F_jaw.wav,None,719.4711394,4341,296491.8327,303357.8478,289541.6122,290308.0766,291074.8696,291841.5847,292608.0256,293375.3844,297241.7077,298007.7089,298774.386,299541.5782,300307.9211,301074.7197,301841.6339,302608.2773,302619.0297
Blocked,Female,cave,9,F_cave.wav,None,735.1097865,4341,296491.8327,303357.8478,304124.5418,290308.0766,291074.8696,291841.5847,292608.0256,293375.3844,297241.7077,298007.7089,298774.386,299541.5782,300307.9211,301074.7197,301841.6339,302608.2773,303367.9908
Blocked,Female,cave,9,F_jolt.wav,space,592.4976417,4341,296491.8327,303357.8478,304124.5418,304891.29,291074.8696,291841.5847,292608.0256,293375.3844,297241.7077,298007.7089,298774.386,299541.5782,300307.9211,301074.7197,301841.6339,302608.2773,304134.4654
Blocked,Female,cave,9,F_cling.wav,None,731.0215761,4341,296491.8327,303357.8478,304124.5418,304891.29,305657.8654,291841.5847,292608.0256,293375.3844,297241.7077,298007.7089,298774.386,299541.5782,300307.9211,301074.7197,301841.6339,302608.2773,304900.8414
Blocked,Female,cave,9,F_cave.wav,None,728.8966221,4341,296491.8327,303357.8478,304124.5418,304891.29,305657.8654,306424.3675,292608.0256,293375.3844,297241.7077,298007.7089,298774.386,299541.5782,300307.9211,301074.7197,301841.6339,302608.2773,305667.6066
Blocked,Female,cave,9,F_romp.wav,space,708.7366125,4341,296491.8327,303357.8478,304124.5418,304891.29,305657.8654,306424.3675,307191.3432,293375.3844,297241.7077,298007.7089,298774.386,299541.5782,300307.9211,301074.7197,301841.6339,302608.2773,306434.1726
Blocked,Female,cave,9,F_cling.wav,None,724.2908552,4341,296491.8327,303357.8478,304124.5418,304891.29,305657.8654,306424.3675,307191.3432,307958.1922,297241.7077,298007.7089,298774.386,299541.5782,300307.9211,301074.7197,301841.6339,302608.2773,307201.2591
Blocked,Female,ball,1,F_park.wav,None,721.9374212,4341,311074.6609,303357.8478,304124.5418,304891.29,305657.8654,306424.3675,307191.3432,307958.1922,297241.7077,298007.7089,298774.386,299541.5782,300307.9211,301074.7197,301841.6339,302608.2773,307968.3835
Blocked,Female,ball,1,F_ball.wav,None,719.7478502,4341,311074.6609,303357.8478,304124.5418,304891.29,305657.8654,306424.3675,307191.3432,307958.1922,311841.1364,298007.7089,298774.386,299541.5782,300307.9211,301074.7197,301841.6339,302608.2773,311085.0572
Blocked,Female,ball,1,F_reek.wav,space,540.495167,4341,311074.6609,303357.8478,304124.5418,304891.29,305657.8654,306424.3675,307191.3432,307958.1922,311841.1364,312591.2099,298774.386,299541.5782,300307.9211,301074.7197,301841.6339,302608.2773,311850.3681
Blocked,Female,ball,1,F_priest.wav,None,735.4177237,4341,311074.6609,303357.8478,304124.5418,304891.29,305657.8654,306424.3675,307191.3432,307958.1922,311841.1364,312591.2099,313357.7043,299541.5782,300307.9211,301074.7197,301841.6339,302608.2773,312600.8784
Blocked,Female,ball,1,F_ball.wav,None,734.2861462,4341,311074.6609,303357.8478,304124.5418,304891.29,305657.8654,306424.3675,307191.3432,307958.1922,311841.1364,312591.2099,313357.7043,314124.271,300307.9211,301074.7197,301841.6339,302608.2773,313366.7971
Blocked,Female,ball,1,F_romp.wav,space,512.7582261,4341,311074.6609,303357.8478,304124.5418,304891.29,305657.8654,306424.3675,307191.3432,307958.1922,311841.1364,312591.2099,313357.7043,314124.271,314891.1491,301074.7197,301841.6339,302608.2773,314134.0582
Blocked,Female,ball,1,F_jolt.wav,None,729.252791,4341,311074.6609,303357.8478,304124.5418,304891.29,305657.8654,306424.3675,307191.3432,307958.1922,311841.1364,312591.2099,313357.7043,314124.271,314891.1491,315657.7618,301841.6339,302608.2773,314900.7897
Blocked,Female,ball,1,F_ball.wav,None,727.394036,4341,311074.6609,303357.8478,304124.5418,304891.29,305657.8654,306424.3675,307191.3432,307958.1922,311841.1364,312591.2099,313357.7043,314124.271,314891.1491,315657.7618,316424.4667,302608.2773,315667.6678
Blocked,Female,ball,1,F_priest.wav,space,468.2219983,4341,311074.6609,303357.8478,304124.5418,304891.29,305657.8654,306424.3675,307191.3432,307958.1922,311841.1364,312591.2099,313357.7043,314124.271,314891.1491,315657.7618,316424.4667,317191.6775,316434.5647
Blocked,Female,ball,1,F_jaw.wav,None,722.4821863,4341,311074.6609,317957.922,304124.5418,304891.29,305657.8654,306424.3675,307191.3432,307958.1922,311841.1364,312591.2099,313357.7043,314124.271,314891.1491,315657.7618,316424.4667,317191.6775,317201.5095
Blocked,Female,ball,1,F_dime.wav,None,720.9301316,4341,311074.6609,317957.922,318724.3131,304891.29,305657.8654,306424.3675,307191.3432,307958.1922,311841.1364,312591.2099,313357.7043,314124.271,314891.1491,315657.7618,316424.4667,317191.6775,317967.861
Blocked,Female,ball,1,F_jaw.wav,None,720.0517678,4341,311074.6609,317957.922,318724.3131,319474.3823,305657.8654,306424.3675,307191.3432,307958.1922,311841.1364,312591.2099,313357.7043,314124.271,314891.1491,315657.7618,316424.4667,317191.6775,318733.5401
Blocked,Female,ball,1,F_ball.wav,None,733.6310064,4341,311074.6609,317957.922,318724.3131,319474.3823,320241.1323,306424.3675,307191.3432,307958.1922,311841.1364,312591.2099,313357.7043,314124.271,314891.1491,315657.7618,316424.4667,317191.6775,319484.5461
Blocked,Female,ball,1,F_knife.wav,space,531.7844949,4341,311074.6609,317957.922,318724.3131,319474.3823,320241.1323,321007.282,307191.3432,307958.1922,311841.1364,312591.2099,313357.7043,314124.271,314891.1491,315657.7618,316424.4667,317191.6775,320250.9746
Blocked,Female,ball,1,F_dime.wav,None,730.6295438,4341,311074.6609,317957.922,318724.3131,319474.3823,320241.1323,321007.282,321774.0982,307958.1922,311841.1364,312591.2099,313357.7043,314124.271,314891.1491,315657.7618,316424.4667,317191.6775,321016.4691
Blocked,Female,ball,1,F_jaw.wav,None,728.4631603,4341,311074.6609,317957.922,318724.3131,319474.3823,320241.1323,321007.282,321774.0982,322541.0838,311841.1364,312591.2099,313357.7043,314124.271,314891.1491,315657.7618,316424.4667,317191.6775,321783.4591
Blocked,Female,tile,13,F_reek.wav,None,719.0998206,4341,325674.9105,317957.922,318724.3131,319474.3823,320241.1323,321007.282,321774.0982,322541.0838,311841.1364,312591.2099,313357.7043,314124.271,314891.1491,315657.7618,316424.4667,317191.6775,322557.6985
Blocked,Female,tile,13,F_dime.wav,None,720.2001717,4341,325674.9105,317957.922,318724.3131,319474.3823,320241.1323,321007.282,321774.0982,322541.0838,326424.1165,312591.2099,313357.7043,314124.271,314891.1491,315657.7618,316424.4667,317191.6775,325684.741
Blocked,Female,tile,13,F_knife.wav,None,736.4197569,4341,325674.9105,317957.922,318724.3131,319474.3823,320241.1323,321007.282,321774.0982,322541.0838,326424.1165,327190.8835,313357.7043,314124.271,314891.1491,315657.7618,316424.4667,317191.6775,326433.5036
Blocked,Female,tile,13,F_tile.wav,None,734.3622032,4341,325674.9105,317957.922,318724.3131,319474.3823,320241.1323,321007.282,321774.0982,322541.0838,326424.1165,327190.8835,327957.508,314124.271,314891.1491,315657.7618,316424.4667,317191.6775,327200.5087
Blocked,Female,tile,13,F_jolt.wav,space,511.8072066,4341,325674.9105,317957.922,318724.3131,319474.3823,320241.1323,321007.282,321774.0982,322541.0838,326424.1165,327190.8835,327957.508,328724.3654,314891.1491,315657.7618,316424.4667,317191.6775,327966.8188
Blocked,Female,tile,13,F_dime.wav,None,736.3214395,4341,325674.9105,317957.922,318724.3131,319474.3823,320241.1323,321007.282,321774.0982,322541.0838,326424.1165,327190.8835,327957.508,328724.3654,329490.6112,315657.7618,316424.4667,317191.6775,328728.3562
Blocked,Female,tile,13,F_reek.wav,None,729.8408402,4341,325674.9105,317957.922,318724.3131,319474.3823,320241.1323,321007.282,321774.0982,322541.0838,326424.1165,327190.8835,327957.508,328724.3654,329490.6112,330257.4691,316424.4667,317191.6775,329499.9334
Blocked,Female,tile,13,F_jaw.wav,None,727.4060934,4341,325674.9105,317957.922,318724.3131,319474.3823,320241.1323,321007.282,321774.0982,322541.0838,326424.1165,327190.8835,327957.508,328724.3654,329490.6112,330257.4691,331024.0374,317191.6775,330267.3509
Blocked,Female,tile,13,F_tile.wav,None,726.422302,4341,325674.9105,317957.922,318724.3131,319474.3823,320241.1323,321007.282,321774.0982,322541.0838,326424.1165,327190.8835,327957.508,328724.3654,329490.6112,330257.4691,331024.0374,331791.0774,331033.3896
Blocked,Female,tile,13,F_priest.wav,space,541.1880268,4341,325674.9105,332557.7106,318724.3131,319474.3823,320241.1323,321007.282,321774.0982,322541.0838,326424.1165,327190.8835,327957.508,328724.3654,329490.6112,330257.4691,331024.0374,331791.0774,331801.3497
Blocked,Female,tile,13,F_tile.wav,None,721.5899094,4341,325674.9105,332557.7106,333324.0581,319474.3823,320241.1323,321007.282,321774.0982,322541.0838,326424.1165,327190.8835,327957.508,328724.3654,329490.6112,330257.4691,331024.0374,331791.0774,332567.9835
Blocked,Female,tile,13,F_jolt.wav,space,569.2196107,4341,325674.9105,332557.7106,333324.0581,334074.0837,320241.1323,321007.282,321774.0982,322541.0838,326424.1165,327190.8835,327957.508,328724.3654,329490.6112,330257.4691,331024.0374,331791.0774,333333.2978
Blocked,Female,tile,13,F_cling.wav,None,734.7999937,4341,325674.9105,332557.7106,333324.0581,334074.0837,334840.8198,321007.282,321774.0982,322541.0838,326424.1165,327190.8835,327957.508,328724.3654,329490.6112,330257.4691,331024.0374,331791.0774,334084.1139
Blocked,Female,tile,13,F_tile.wav,None,733.4986799,4341,325674.9105,332557.7106,333324.0581,334074.0837,334840.8198,335607.3185,321774.0982,322541.0838,326424.1165,327190.8835,327957.508,328724.3654,329490.6112,330257.4691,331024.0374,331791.0774,334850.4185
Blocked,Female,tile,13,F_reek.wav,space,541.6020108,4341,325674.9105,332557.7106,333324.0581,334074.0837,334840.8198,335607.3185,336374.3014,322541.0838,326424.1165,327190.8835,327957.508,328724.3654,329490.6112,330257.4691,331024.0374,331791.0774,335616.8732
Blocked,Female,tile,13,F_cling.wav,None,731.0988698,4341,325674.9105,332557.7106,333324.0581,334074.0837,334840.8198,335607.3185,336374.3014,337140.5181,326424.1165,327190.8835,327957.508,328724.3654,329490.6112,330257.4691,331024.0374,331791.0774,336383.4647
Blocked,Female,cave,12,F_lash.wav,None,731.7441166,4341,340274.5436,332557.7106,333324.0581,334074.0837,334840.8198,335607.3185,336374.3014,337140.5181,326424.1165,327190.8835,327957.508,328724.3654,329490.6112,330257.4691,331024.0374,331791.0774,337149.4659
Blocked,Female,cave,12,F_cave.wav,None,721.0281403,4341,340274.5436,332557.7106,333324.0581,334074.0837,334840.8198,335607.3185,336374.3014,337140.5181,341041.2506,327190.8835,327957.508,328724.3654,329490.6112,330257.4691,331024.0374,331791.0774,340284.2788
Blocked,Female,cave,12,F_cad.wav,None,719.0583916,4341,340274.5436,332557.7106,333324.0581,334074.0837,334840.8198,335607.3185,336374.3014,337140.5181,341041.2506,341790.627,327957.508,328724.3654,329490.6112,330257.4691,331024.0374,331791.0774,341051.1798
Blocked,Female,cave,12,F_greet.wav,space,422.2156471,4341,340274.5436,332557.7106,333324.0581,334074.0837,334840.8198,335607.3185,336374.3014,337140.5181,341041.2506,341790.627,342557.2654,328724.3654,329490.6112,330257.4691,331024.0374,331791.0774,341800.1906
Blocked,Female,cave,12,F_cave.wav,None,732.1448061,4341,340274.5436,332557.7106,333324.0581,334074.0837,334840.8198,335607.3185,336374.3014,337140.5181,341041.2506,341790.627,342557.2654,343324.0124,329490.6112,330257.4691,331024.0374,331791.0774,342567.031
Blocked,Female,cave,12,F_cad.wav,space,537.0160304,4341,340274.5436,332557.7106,333324.0581,334074.0837,334840.8198,335607.3185,336374.3014,337140.5181,341041.2506,341790.627,342557.2654,343324.0124,344090.6421,330257.4691,331024.0374,331791.0774,343333.3429
Blocked,Female,cave,12,F_cave.wav,None,730.9380993,4341,340274.5436,332557.7106,333324.0581,334074.0837,334840.8198,335607.3185,336374.3014,337140.5181,341041.2506,341790.627,342557.2654,343324.0124,344090.6421,344857.2815,331024.0374,331791.0774,344100.0324
Blocked,Female,cave,12,F_jaw.wav,None,728.9272305,4341,340274.5436,332557.7106,333324.0581,334074.0837,334840.8198,335607.3185,336374.3014,337140.5181,341041.2506,341790.627,342557.2654,343324.0124,344090.6421,344857.2815,345623.7224,331791.0774,344866.8742
Blocked,Female,cave,12,F_cad.wav,space,5.255651195,4341,340274.5436,332557.7106,333324.0581,334074.0837,334840.8198,335607.3185,336374.3014,337140.5181,341041.2506,341790.627,342557.2654,343324.0124,344090.6421,344857.2815,345623.7224,346390.7324,345633.1377
Blocked,Female,cave,12,F_priest.wav,None,725.0013375,4341,340274.5436,347157.1288,333324.0581,334074.0837,334840.8198,335607.3185,336374.3014,337140.5181,341041.2506,341790.627,342557.2654,343324.0124,344090.6421,344857.2815,345623.7224,346390.7324,346400.3193
Blocked,Female,cave,12,F_greet.wav,None,724.2030497,4341,340274.5436,347157.1288,347924.5488,334074.0837,334840.8198,335607.3185,336374.3014,337140.5181,341041.2506,341790.627,342557.2654,343324.0124,344090.6421,344857.2815,345623.7224,346390.7324,347166.2086
Blocked,Female,cave,12,F_cave.wav,None,720.5993156,4341,340274.5436,347157.1288,347924.5488,348691.1502,334840.8198,335607.3185,336374.3014,337140.5181,341041.2506,341790.627,342557.2654,343324.0124,344090.6421,344857.2815,345623.7224,346390.7324,347934.8848
Blocked,Female,cave,12,F_jolt.wav,space,409.0924407,4341,340274.5436,347157.1288,347924.5488,348691.1502,349440.1768,335607.3185,336374.3014,337140.5181,341041.2506,341790.627,342557.2654,343324.0124,344090.6421,344857.2815,345623.7224,346390.7324,348701.215
Blocked,Female,cave,12,F_gnash.wav,None,734.9641654,4341,340274.5436,347157.1288,347924.5488,348691.1502,349440.1768,350207.1903,336374.3014,337140.5181,341041.2506,341790.627,342557.2654,343324.0124,344090.6421,344857.2815,345623.7224,346390.7324,349449.5958
Blocked,Female,cave,12,F_cad.wav,None,732.6169149,4341,340274.5436,347157.1288,347924.5488,348691.1502,349440.1768,350207.1903,350973.6649,337140.5181,341041.2506,341790.627,342557.2654,343324.0124,344090.6421,344857.2815,345623.7224,346390.7324,350216.9429
Blocked,Female,cave,12,F_cad.wav,None,731.7827633,4341,340274.5436,347157.1288,347924.5488,348691.1502,349440.1768,350207.1903,350973.6649,351740.6375,341041.2506,341790.627,342557.2654,343324.0124,344090.6421,344857.2815,345623.7224,346390.7324,350982.7991
Blocked,Female,ball,6,F_reek.wav,None,734.4163083,4341,354874.3794,347157.1288,347924.5488,348691.1502,349440.1768,350207.1903,350973.6649,351740.6375,341041.2506,341790.627,342557.2654,343324.0124,344090.6421,344857.2815,345623.7224,346390.7324,351745.0909
Blocked,Female,ball,6,F_cling.wav,None,721.1666503,4341,354874.3794,347157.1288,347924.5488,348691.1502,349440.1768,350207.1903,350973.6649,351740.6375,355640.9508,341790.627,342557.2654,343324.0124,344090.6421,344857.2815,345623.7224,346390.7324,354884.0872
Blocked,Female,ball,6,F_ball.wav,None,719.106623,4341,354874.3794,347157.1288,347924.5488,348691.1502,349440.1768,350207.1903,350973.6649,351740.6375,355640.9508,356390.3206,342557.2654,343324.0124,344090.6421,344857.2815,345623.7224,346390.7324,355651.0886
Blocked,Female,ball,6,F_knife.wav,space,398.2395004,4341,354874.3794,347157.1288,347924.5488,348691.1502,349440.1768,350207.1903,350973.6649,351740.6375,355640.9508,356390.3206,357157.0558,343324.0124,344090.6421,344857.2815,345623.7224,346390.7324,356399.9536
Blocked,Female,ball,6,F_dime.wav,None,732.7016289,4341,354874.3794,347157.1288,347924.5488,348691.1502,349440.1768,350207.1903,350973.6649,351740.6375,355640.9508,356390.3206,357157.0558,357923.89,344090.6421,344857.2815,345623.7224,346390.7324,357166.6467
Blocked,Female,ball,6,F_park.wav,None,731.2478917,4341,354874.3794,347157.1288,347924.5488,348691.1502,349440.1768,350207.1903,350973.6649,351740.6375,355640.9508,356390.3206,357157.0558,357923.89,358690.5139,344857.2815,345623.7224,346390.7324,357933.1742
Blocked,Female,ball,6,F_ball.wav,None,729.3792432,4341,354874.3794,347157.1288,347924.5488,348691.1502,349440.1768,350207.1903,350973.6649,351740.6375,355640.9508,356390.3206,357157.0558,357923.89,358690.5139,359457.0896,345623.7224,346390.7324,358700.7587
Blocked,Female,ball,6,F_cad.wav,space,395.2661725,4341,354874.3794,347157.1288,347924.5488,348691.1502,349440.1768,350207.1903,350973.6649,351740.6375,355640.9508,356390.3206,357157.0558,357923.89,358690.5139,359457.0896,360224.0811,346390.7324,359466.8675
Blocked,Female,ball,6,F_romp.wav,None,725.4465478,4341,354874.3794,347157.1288,347924.5488,348691.1502,349440.1768,350207.1903,350973.6649,351740.6375,355640.9508,356390.3206,357157.0558,357923.89,358690.5139,359457.0896,360224.0811,360990.9749,360233.9196
Blocked,Female,ball,6,F_depth.wav,None,723.6128356,4341,354874.3794,361757.3542,347924.5488,348691.1502,349440.1768,350207.1903,350973.6649,351740.6375,355640.9508,356390.3206,357157.0558,357923.89,358690.5139,359457.0896,360224.0811,360990.9749,361000.7315
Blocked,Female,ball,6,F_cad.wav,None,722.4008734,4341,354874.3794,361757.3542,362523.5731,348691.1502,349440.1768,350207.1903,350973.6649,351740.6375,355640.9508,356390.3206,357157.0558,357923.89,358690.5139,359457.0896,360224.0811,360990.9749,361767.1424
Blocked,Female,ball,6,F_gnash.wav,None,721.6375223,4341,354874.3794,361757.3542,362523.5731,363290.8241,349440.1768,350207.1903,350973.6649,351740.6375,355640.9508,356390.3206,357157.0558,357923.89,358690.5139,359457.0896,360224.0811,360990.9749,362532.9822
Blocked,Female,ball,6,F_ball.wav,None,718.1206662,4341,354874.3794,361757.3542,362523.5731,363290.8241,364040.0003,350207.1903,350973.6649,351740.6375,355640.9508,356390.3206,357157.0558,357923.89,358690.5139,359457.0896,360224.0811,360990.9749,363301.7277
Blocked,Female,ball,6,F_romp.wav,space,476.7691176,4341,354874.3794,361757.3542,362523.5731,363290.8241,364040.0003,364807.0036,350973.6649,351740.6375,355640.9508,356390.3206,357157.0558,357923.89,358690.5139,359457.0896,360224.0811,360990.9749,364049.2987
Blocked,Female,ball,6,F_ball.wav,None,732.2239545,4341,354874.3794,361757.3542,362523.5731,363290.8241,364040.0003,364807.0036,365573.7679,351740.6375,355640.9508,356390.3206,357157.0558,357923.89,358690.5139,359457.0896,360224.0811,360990.9749,364816.7763
Blocked,Female,ball,6,F_romp.wav,space,582.5604755,4341,354874.3794,361757.3542,362523.5731,363290.8241,364040.0003,364807.0036,365573.7679,366340.1247,355640.9508,356390.3206,357157.0558,357923.89,358690.5139,359457.0896,360224.0811,360990.9749,365583.4976
Blocked,Female,done,23,F_greet.wav,None,728.7407983,4341,369473.9943,361757.3542,362523.5731,363290.8241,364040.0003,364807.0036,365573.7679,366340.1247,355640.9508,356390.3206,357157.0558,357923.89,358690.5139,359457.0896,360224.0811,360990.9749,366349.2846
Blocked,Female,done,23,F_romp.wav,None,720.5940597,4341,369473.9943,361757.3542,362523.5731,363290.8241,364040.0003,364807.0036,365573.7679,366340.1247,370240.8414,356390.3206,357157.0558,357923.89,358690.5139,359457.0896,360224.0811,360990.9749,369484.436
Blocked,Female,done,23,F_lash.wav,None,719.2884171,4341,369473.9943,361757.3542,362523.5731,363290.8241,364040.0003,364807.0036,365573.7679,366340.1247,370240.8414,370990.2437,357157.0558,357923.89,358690.5139,359457.0896,360224.0811,360990.9749,370250.969
Blocked,Female,done,23,F_cad.wav,None,735.5076931,4341,369473.9943,361757.3542,362523.5731,363290.8241,364040.0003,364807.0036,365573.7679,366340.1247,370240.8414,370990.2437,371756.8645,357923.89,358690.5139,359457.0896,360224.0811,360990.9749,370999.7947
Blocked,Female,done,23,F_done.wav,None,733.8808193,4341,369473.9943,361757.3542,362523.5731,363290.8241,364040.0003,364807.0036,365573.7679,366340.1247,370240.8414,370990.2437,371756.8645,372523.6916,358690.5139,359457.0896,360224.0811,360990.9749,371766.4056
Blocked,Female,done,23,F_romp.wav,space,352.4866723,4341,369473.9943,361757.3542,362523.5731,363290.8241,364040.0003,364807.0036,365573.7679,366340.1247,370240.8414,370990.2437,371756.8645,372523.6916,373290.2947,359457.0896,360224.0811,360990.9749,372533.476
Blocked,Female,done,23,F_park.wav,None,729.2178543,4341,369473.9943,361757.3542,362523.5731,363290.8241,364040.0003,364807.0036,365573.7679,366340.1247,370240.8414,370990.2437,371756.8645,372523.6916,373290.2947,374056.8627,360224.0811,360990.9749,373300.2903
Blocked,Female,done,23,F_greet.wav,None,728.055669,4341,369473.9943,361757.3542,362523.5731,363290.8241,364040.0003,364807.0036,365573.7679,366340.1247,370240.8414,370990.2437,371756.8645,372523.6916,373290.2947,374056.8627,374823.6248,360990.9749,374066.4799
Blocked,Female,done,23,F_done.wav,None,726.6139896,4341,369473.9943,361757.3542,362523.5731,363290.8241,364040.0003,364807.0036,365573.7679,366340.1247,370240.8414,370990.2437,371756.8645,372523.6916,373290.2947,374056.8627,374823.6248,375589.8289,374832.9176
Blocked,Female,done,23,F_park.wav,space,342.860844,4341,369473.9943,376356.7663,362523.5731,363290.8241,364040.0003,364807.0036,365573.7679,366340.1247,370240.8414,370990.2437,371756.8645,372523.6916,373290.2947,374056.8627,374823.6248,375589.8289,375599.0435
Blocked,Female,done,23,F_done.wav,None,725.5801111,4341,369473.9943,376356.7663,377123.4301,363290.8241,364040.0003,364807.0036,365573.7679,366340.1247,370240.8414,370990.2437,371756.8645,372523.6916,373290.2947,374056.8627,374823.6248,375589.8289,376366.069
Blocked,Female,done,23,F_romp.wav,None,723.9597295,4341,369473.9943,376356.7663,377123.4301,377890.5103,364040.0003,364807.0036,365573.7679,366340.1247,370240.8414,370990.2437,371756.8645,372523.6916,373290.2947,374056.8627,374823.6248,375589.8289,377132.8623
Blocked,Female,done,23,F_done.wav,space,305.5361034,4341,369473.9943,376356.7663,377123.4301,377890.5103,378656.6562,364807.0036,365573.7679,366340.1247,370240.8414,370990.2437,371756.8645,372523.6916,373290.2947,374056.8627,374823.6248,375589.8289,377900.3226
Blocked,Female,done,23,F_greet.wav,space,572.0371143,4341,369473.9943,376356.7663,377123.4301,377890.5103,378656.6562,379406.8593,365573.7679,366340.1247,370240.8414,370990.2437,371756.8645,372523.6916,373290.2947,374056.8627,374823.6248,375589.8289,378665.8239
Blocked,Female,done,23,F_gnash.wav,None,733.6659427,4341,369473.9943,376356.7663,377123.4301,377890.5103,378656.6562,379406.8593,380173.4897,366340.1247,370240.8414,370990.2437,371756.8645,372523.6916,373290.2947,374056.8627,374823.6248,375589.8289,379416.521
Blocked,Female,done,23,F_park.wav,None,732.0205178,4341,369473.9943,376356.7663,377123.4301,377890.5103,378656.6562,379406.8593,380173.4897,380940.2598,370240.8414,370990.2437,371756.8645,372523.6916,373290.2947,374056.8627,374823.6248,375589.8289,380183.2673
Blocked,Female,tile,18,F_greet.wav,None,730.5268976,4341,384073.6567,376356.7663,377123.4301,377890.5103,378656.6562,379406.8593,380173.4897,380940.2598,370240.8414,370990.2437,371756.8645,372523.6916,373290.2947,374056.8627,374823.6248,375589.8289,380949.8656
Blocked,Female,tile,18,F_lash.wav,None,720.754521,4341,384073.6567,376356.7663,377123.4301,377890.5103,378656.6562,379406.8593,380173.4897,380940.2598,384840.638,370990.2437,371756.8645,372523.6916,373290.2947,374056.8627,374823.6248,375589.8289,384084.2883
Blocked,Female,tile,18,F_tile.wav,None,719.5246262,4341,384073.6567,376356.7663,377123.4301,377890.5103,378656.6562,379406.8593,380173.4897,380940.2598,384840.638,385607.2193,371756.8645,372523.6916,373290.2947,374056.8627,374823.6248,375589.8289,384850.7252
Blocked,Female,tile,18,F_romp.wav,space,468.2646641,4341,384073.6567,376356.7663,377123.4301,377890.5103,378656.6562,379406.8593,380173.4897,380940.2598,384840.638,385607.2193,386356.4348,372523.6916,373290.2947,374056.8627,374823.6248,375589.8289,385617.4863
Blocked,Female,tile,18,F_tile.wav,None,734.0589031,4341,384073.6567,376356.7663,377123.4301,377890.5103,378656.6562,379406.8593,380173.4897,380940.2598,384840.638,385607.2193,386356.4348,387123.4743,373290.2947,374056.8627,374823.6248,375589.8289,386365.6442
Blocked,Female,tile,18,F_park.wav,None,732.010006,4341,384073.6567,376356.7663,377123.4301,377890.5103,378656.6562,379406.8593,380173.4897,380940.2598,384840.638,385607.2193,386356.4348,387123.4743,387889.7287,374056.8627,374823.6248,375589.8289,387132.901
Blocked,Female,tile,18,F_cad.wav,space,138.61174,4341,384073.6567,376356.7663,377123.4301,377890.5103,378656.6562,379406.8593,380173.4897,380940.2598,384840.638,385607.2193,386356.4348,387123.4743,387889.7287,388656.6621,374823.6248,375589.8289,387899.106
Blocked,Female,tile,18,F_jolt.wav,None,727.6750752,4341,384073.6567,376356.7663,377123.4301,377890.5103,378656.6562,379406.8593,380173.4897,380940.2598,384840.638,385607.2193,386356.4348,387123.4743,387889.7287,388656.6621,389423.4632,375589.8289,388666.5674
Blocked,Female,tile,18,F_jolt.wav,None,726.5775073,4341,384073.6567,376356.7663,377123.4301,377890.5103,378656.6562,379406.8593,380173.4897,380940.2598,384840.638,385607.2193,386356.4348,387123.4743,387889.7287,388656.6621,389423.4632,390190.003,389433.1555
Blocked,Female,tile,18,F_knife.wav,None,725.5000351,4341,384073.6567,390956.4225,377123.4301,377890.5103,378656.6562,379406.8593,380173.4897,380940.2598,384840.638,385607.2193,386356.4348,387123.4743,387889.7287,388656.6621,389423.4632,390190.003,390199.5608
Blocked,Female,tile,18,F_tile.wav,None,724.7880069,4341,384073.6567,390956.4225,391723.1577,377890.5103,378656.6562,379406.8593,380173.4897,380940.2598,384840.638,385607.2193,386356.4348,387123.4743,387889.7287,388656.6621,389423.4632,390190.003,390965.661
Blocked,Female,tile,18,F_bluff.wav,space,393.2395359,4341,384073.6567,390956.4225,391723.1577,392490.2732,378656.6562,379406.8593,380173.4897,380940.2598,384840.638,385607.2193,386356.4348,387123.4743,387889.7287,388656.6621,389423.4632,390190.003,391732.4237
Blocked,Female,tile,18,F_reek.wav,None,719.8338001,4341,384073.6567,390956.4225,391723.1577,392490.2732,393257.0795,379406.8593,380173.4897,380940.2598,384840.638,385607.2193,386356.4348,387123.4743,387889.7287,388656.6621,389423.4632,390190.003,392500.6491
Blocked,Female,tile,18,F_tile.wav,None,713.2650865,4341,384073.6567,390956.4225,391723.1577,392490.2732,393257.0795,394006.3946,380173.4897,380940.2598,384840.638,385607.2193,386356.4348,387123.4743,387889.7287,388656.6621,389423.4632,390190.003,393272.4384
Blocked,Female,tile,18,F_knife.wav,space,493.4540102,4341,384073.6567,390956.4225,391723.1577,392490.2732,393257.0795,394006.3946,394773.0353,380940.2598,384840.638,385607.2193,386356.4348,387123.4743,387889.7287,388656.6621,389423.4632,390190.003,394016.1744
Blocked,Female,tile,18,F_bluff.wav,None,732.4861344,4341,384073.6567,390956.4225,391723.1577,392490.2732,393257.0795,394006.3946,394773.0353,395539.9745,384840.638,385607.2193,386356.4348,387123.4743,387889.7287,388656.6621,389423.4632,390190.003,394782.653
Blocked,Female,done,20,F_park.wav,None,730.2693552,4341,398673.6812,390956.4225,391723.1577,392490.2732,393257.0795,394006.3946,394773.0353,395539.9745,384840.638,385607.2193,386356.4348,387123.4743,387889.7287,388656.6621,389423.4632,390190.003,395550.1123
Blocked,Female,done,20,F_lash.wav,None,721.1354235,4341,398673.6812,390956.4225,391723.1577,392490.2732,393257.0795,394006.3946,394773.0353,395539.9745,399439.6191,385607.2193,386356.4348,387123.4743,387889.7287,388656.6621,389423.4632,390190.003,398683.636
Blocked,Female,done,20,F_park.wav,None,720.7996608,4341,398673.6812,390956.4225,391723.1577,392490.2732,393257.0795,394006.3946,394773.0353,395539.9745,399439.6191,400206.5506,386356.4348,387123.4743,387889.7287,388656.6621,389423.4632,390190.003,399449.5562
Blocked,Female,done,20,F_jaw.wav,None,719.7670187,4341,398673.6812,390956.4225,391723.1577,392490.2732,393257.0795,394006.3946,394773.0353,395539.9745,399439.6191,400206.5506,400956.0957,387123.4743,387889.7287,388656.6621,389423.4632,390190.003,400215.986
Blocked,Female,done,20,F_jaw.wav,None,735.5716922,4341,398673.6812,390956.4225,391723.1577,392490.2732,393257.0795,394006.3946,394773.0353,395539.9745,399439.6191,400206.5506,400956.0957,401723.1083,387889.7287,388656.6621,389423.4632,390190.003,400965.4183
Blocked,Female,done,20,F_park.wav,None,733.5459832,4341,398673.6812,390956.4225,391723.1577,392490.2732,393257.0795,394006.3946,394773.0353,395539.9745,399439.6191,400206.5506,400956.0957,401723.1083,402489.8484,388656.6621,389423.4632,390190.003,401733.0513
Blocked,Female,done,20,F_done.wav,None,732.0109336,4341,398673.6812,390956.4225,391723.1577,392490.2732,393257.0795,394006.3946,394773.0353,395539.9745,399439.6191,400206.5506,400956.0957,401723.1083,402489.8484,403256.0503,389423.4632,390190.003,402499.8586
Blocked,Female,done,20,F_cad.wav,space,508.3633154,4341,398673.6812,390956.4225,391723.1577,392490.2732,393257.0795,394006.3946,394773.0353,395539.9745,399439.6191,400206.5506,400956.0957,401723.1083,402489.8484,403256.0503,404023.2706,390190.003,403265.162
Blocked,Female,done,20,F_done.wav,None,728.888893,4341,398673.6812,390956.4225,391723.1577,392490.2732,393257.0795,394006.3946,394773.0353,395539.9745,399439.6191,400206.5506,400956.0957,401723.1083,402489.8484,403256.0503,404023.2706,404789.8608,404032.5656
Blocked,Female,done,20,F_cling.wav,None,727.2610911,4341,398673.6812,405556.1561,391723.1577,392490.2732,393257.0795,394006.3946,394773.0353,395539.9745,399439.6191,400206.5506,400956.0957,401723.1083,402489.8484,403256.0503,404023.2706,404789.8608,404799.3787
Blocked,Female,done,20,F_done.wav,space,87.49783179,4341,398673.6812,405556.1561,406323.4481,392490.2732,393257.0795,394006.3946,394773.0353,395539.9745,399439.6191,400206.5506,400956.0957,401723.1083,402489.8484,403256.0503,404023.2706,404789.8608,405565.9628
Blocked,Female,done,20,F_knife.wav,space,527.5877649,4341,398673.6812,405556.1561,406323.4481,407089.4156,393257.0795,394006.3946,394773.0353,395539.9745,399439.6191,400206.5506,400956.0957,401723.1083,402489.8484,403256.0503,404023.2706,404789.8608,406333.8447
Blocked,Female,done,20,F_park.wav,None,723.8103985,4341,398673.6812,405556.1561,406323.4481,407089.4156,407856.6863,394006.3946,394773.0353,395539.9745,399439.6191,400206.5506,400956.0957,401723.1083,402489.8484,403256.0503,404023.2706,404789.8608,407098.5545
Blocked,Female,done,20,F_done.wav,None,721.1799445,4341,398673.6812,405556.1561,406323.4481,407089.4156,407856.6863,408623.4389,394773.0353,395539.9745,399439.6191,400206.5506,400956.0957,401723.1083,402489.8484,403256.0503,404023.2706,404789.8608,407866.7061
Blocked,Female,done,20,F_reek.wav,space,371.455125,4341,398673.6812,405556.1561,406323.4481,407089.4156,407856.6863,408623.4389,409372.8529,395539.9745,399439.6191,400206.5506,400956.0957,401723.1083,402489.8484,403256.0503,404023.2706,404789.8608,408633.9495
Blocked,Female,done,20,F_knife.wav,None,734.8463698,4341,398673.6812,405556.1561,406323.4481,407089.4156,407856.6863,408623.4389,409372.8529,410139.3167,399439.6191,400206.5506,400956.0957,401723.1083,402489.8484,403256.0503,404023.2706,404789.8608,409382.6463
Blocked,Female,ball,5,F_depth.wav,None,733.5274331,4341,413273.523,405556.1561,406323.4481,407089.4156,407856.6863,408623.4389,409372.8529,410139.3167,399439.6191,400206.5506,400956.0957,401723.1083,402489.8484,403256.0503,404023.2706,404789.8608,410149.3033
Blocked,Female,ball,5,F_ball.wav,None,719.9488129,4341,413273.523,405556.1561,406323.4481,407089.4156,407856.6863,408623.4389,409372.8529,410139.3167,414040.2591,400206.5506,400956.0957,401723.1083,402489.8484,403256.0503,404023.2706,404789.8608,413283.4218
Blocked,Female,ball,5,F_cling.wav,space,411.2637709,4341,413273.523,405556.1561,406323.4481,407089.4156,407856.6863,408623.4389,409372.8529,410139.3167,414040.2591,414789.2304,400956.0957,401723.1083,402489.8484,403256.0503,404023.2706,404789.8608,414050.0816
Blocked,Female,ball,5,F_bluff.wav,None,734.7437241,4341,413273.523,405556.1561,406323.4481,407089.4156,407856.6863,408623.4389,409372.8529,410139.3167,414040.2591,414789.2304,415556.2303,401723.1083,402489.8484,403256.0503,404023.2706,404789.8608,414798.3894
Blocked,Female,ball,5,F_ball.wav,None,732.4852068,4341,413273.523,405556.1561,406323.4481,407089.4156,407856.6863,408623.4389,409372.8529,410139.3167,414040.2591,414789.2304,415556.2303,416323.1256,402489.8484,403256.0503,404023.2706,404789.8608,415566.1056
Blocked,Female,ball,5,F_bluff.wav,space,408.3754662,4341,413273.523,405556.1561,406323.4481,407089.4156,407856.6863,408623.4389,409372.8529,410139.3167,414040.2591,414789.2304,415556.2303,416323.1256,417089.6661,403256.0503,404023.2706,404789.8608,416332.9107
Blocked,Female,ball,5,F_bluff.wav,None,728.4832564,4341,413273.523,405556.1561,406323.4481,407089.4156,407856.6863,408623.4389,409372.8529,410139.3167,414040.2591,414789.2304,415556.2303,416323.1256,417089.6661,417856.2819,404023.2706,404789.8608,417099.6774
Blocked,Female,ball,5,F_depth.wav,None,727.312414,4341,413273.523,405556.1561,406323.4481,407089.4156,407856.6863,408623.4389,409372.8529,410139.3167,414040.2591,414789.2304,415556.2303,416323.1256,417089.6661,417856.2819,418622.9538,404789.8608,417866.0818
Blocked,Female,ball,5,F_gnash.wav,None,726.3375879,4341,413273.523,405556.1561,406323.4481,407089.4156,407856.6863,408623.4389,409372.8529,410139.3167,414040.2591,414789.2304,415556.2303,416323.1256,417089.6661,417856.2819,418622.9538,419389.2011,418632.8059
Blocked,Female,ball,5,F_ball.wav,None,726.4986676,4341,413273.523,420156.0634,406323.4481,407089.4156,407856.6863,408623.4389,409372.8529,410139.3167,414040.2591,414789.2304,415556.2303,416323.1256,417089.6661,417856.2819,418622.9538,419389.2011,419398.1418
Blocked,Female,ball,5,F_dime.wav,space,455.5282346,4341,413273.523,420156.0634,420922.7414,407089.4156,407856.6863,408623.4389,409372.8529,410139.3167,414040.2591,414789.2304,415556.2303,416323.1256,417089.6661,417856.2819,418622.9538,419389.2011,420165.7071
Blocked,Female,ball,5,F_greet.wav,None,722.0858247,4341,413273.523,420156.0634,420922.7414,421689.3665,407856.6863,408623.4389,409372.8529,410139.3167,414040.2591,414789.2304,415556.2303,416323.1256,417089.6661,417856.2819,418622.9538,419389.2011,420932.1774
Blocked,Female,ball,5,F_ball.wav,None,721.0732796,4341,413273.523,420156.0634,420922.7414,421689.3665,422456.1039,408623.4389,409372.8529,410139.3167,414040.2591,414789.2304,415556.2303,416323.1256,417089.6661,417856.2819,418622.9538,419389.2011,421698.6838
Blocked,Female,ball,5,F_reek.wav,None,719.6618994,4341,413273.523,420156.0634,420922.7414,421689.3665,422456.1039,423206.0148,409372.8529,410139.3167,414040.2591,414789.2304,415556.2303,416323.1256,417089.6661,417856.2819,418622.9538,419389.2011,422465.5486
Blocked,Female,ball,5,F_reek.wav,space,125.5781939,4341,413273.523,420156.0634,420922.7414,421689.3665,422456.1039,423206.0148,423972.806,410139.3167,414040.2591,414789.2304,415556.2303,416323.1256,417089.6661,417856.2819,418622.9538,419389.2011,423215.6326
Blocked,Female,ball,5,F_jolt.wav,None,731.6612578,4341,413273.523,420156.0634,420922.7414,421689.3665,422456.1039,423206.0148,423972.806,424739.1875,414040.2591,414789.2304,415556.2303,416323.1256,417089.6661,417856.2819,418622.9538,419389.2011,423983.0396
Blocked,Female,done,19,F_bluff.wav,None,731.9336399,4341,427873.4201,420156.0634,420922.7414,421689.3665,422456.1039,423206.0148,423972.806,424739.1875,414040.2591,414789.2304,415556.2303,416323.1256,417089.6661,417856.2819,418622.9538,419389.2011,424748.45
Blocked,Female,done,19,F_knife.wav,None,721.1651043,4341,427873.4201,420156.0634,420922.7414,421689.3665,422456.1039,423206.0148,423972.806,424739.1875,428639.2754,414789.2304,415556.2303,416323.1256,417089.6661,417856.2819,418622.9538,419389.2011,427883.0008
Blocked,Female,done,19,F_depth.wav,None,721.1162546,4341,427873.4201,420156.0634,420922.7414,421689.3665,422456.1039,423206.0148,423972.806,424739.1875,428639.2754,429406.4079,415556.2303,416323.1256,417089.6661,417856.2819,418622.9538,419389.2011,428648.7692
Blocked,Female,done,19,F_done.wav,space,332.4398203,4341,427873.4201,420156.0634,420922.7414,421689.3665,422456.1039,423206.0148,423972.806,424739.1875,428639.2754,429406.4079,430155.9388,416323.1256,417089.6661,417856.2819,418622.9538,419389.2011,429416.6508
Blocked,Female,done,19,F_park.wav,space,471.4890416,4341,427873.4201,420156.0634,420922.7414,421689.3665,422456.1039,423206.0148,423972.806,424739.1875,428639.2754,429406.4079,430155.9388,430922.8743,417089.6661,417856.2819,418622.9538,419389.2011,430165.6122
Blocked,Female,done,19,F_dime.wav,None,736.1850939,4341,427873.4201,420156.0634,420922.7414,421689.3665,422456.1039,423206.0148,423972.806,424739.1875,428639.2754,429406.4079,430155.9388,430922.8743,431689.3619,417856.2819,418622.9538,419389.2011,430927.5537
Blocked,Female,done,19,F_lash.wav,None,729.1674586,4341,427873.4201,420156.0634,420922.7414,421689.3665,422456.1039,423206.0148,423972.806,424739.1875,428639.2754,429406.4079,430155.9388,430922.8743,431689.3619,432455.8856,418622.9538,419389.2011,431699.855
Blocked,Female,done,19,F_depth.wav,None,728.651138,4341,427873.4201,420156.0634,420922.7414,421689.3665,422456.1039,423206.0148,423972.806,424739.1875,428639.2754,429406.4079,430155.9388,430922.8743,431689.3619,432455.8856,433222.3986,419389.2011,432465.637
Blocked,Female,done,19,F_done.wav,None,728.2918775,4341,427873.4201,420156.0634,420922.7414,421689.3665,422456.1039,423206.0148,423972.806,424739.1875,428639.2754,429406.4079,430155.9388,430922.8743,431689.3619,432455.8856,433222.3986,433989.3471,433231.5996
Blocked,Female,done,19,F_park.wav,None,726.270806,4341,427873.4201,434755.9259,420922.7414,421689.3665,422456.1039,423206.0148,423972.806,424739.1875,428639.2754,429406.4079,430155.9388,430922.8743,431689.3619,432455.8856,433222.3986,433989.3471,433998.9074
Blocked,Female,done,19,F_done.wav,space,7.443367969,4341,427873.4201,434755.9259,435522.7835,421689.3665,422456.1039,423206.0148,423972.806,424739.1875,428639.2754,429406.4079,430155.9388,430922.8743,431689.3619,432455.8856,433222.3986,433989.3471,434765.5625
Blocked,Female,done,19,F_jolt.wav,None,721.6823529,4341,427873.4201,434755.9259,435522.7835,436289.7633,422456.1039,423206.0148,423972.806,424739.1875,428639.2754,429406.4079,430155.9388,430922.8743,431689.3619,432455.8856,433222.3986,433989.3471,435532.8595
Blocked,Female,done,19,F_depth.wav,space,353.0267994,4341,427873.4201,434755.9259,435522.7835,436289.7633,437038.9896,423206.0148,423972.806,424739.1875,428639.2754,429406.4079,430155.9388,430922.8743,431689.3619,432455.8856,433222.3986,433989.3471,436299.9626
Blocked,Female,done,19,F_knife.wav,None,735.9018903,4341,427873.4201,434755.9259,435522.7835,436289.7633,437038.9896,437805.8034,423972.806,424739.1875,428639.2754,429406.4079,430155.9388,430922.8743,431689.3619,432455.8856,433222.3986,433989.3471,437048.3085
Blocked,Female,done,19,F_done.wav,None,734.16124,4341,427873.4201,434755.9259,435522.7835,436289.7633,437038.9896,437805.8034,438572.2879,424739.1875,428639.2754,429406.4079,430155.9388,430922.8743,431689.3619,432455.8856,433222.3986,433989.3471,437815.5816
Blocked,Female,done,19,F_cad.wav,space,519.2280044,4341,427873.4201,434755.9259,435522.7835,436289.7633,437038.9896,437805.8034,438572.2879,439339.045,428639.2754,429406.4079,430155.9388,430922.8743,431689.3619,432455.8856,433222.3986,433989.3471,438581.6985
Blocked,Female,ball,4,F_priest.wav,None,731.3755807,4341,442472.9802,434755.9259,435522.7835,436289.7633,437038.9896,437805.8034,438572.2879,439339.045,428639.2754,429406.4079,430155.9388,430922.8743,431689.3619,432455.8856,433222.3986,433989.3471,439348.1394
Blocked,Female,ball,4,F_lash.wav,None,719.4454777,4341,442472.9802,434755.9259,435522.7835,436289.7633,437038.9896,437805.8034,438572.2879,439339.045,443222.7736,429406.4079,430155.9388,430922.8743,431689.3619,432455.8856,433222.3986,433989.3471,442483.3415
Blocked,Female,ball,4,F_jolt.wav,None,736.0509122,4341,442472.9802,434755.9259,435522.7835,436289.7633,437038.9896,437805.8034,438572.2879,439339.045,443222.7736,443989.1211,430155.9388,430922.8743,431689.3619,432455.8856,433222.3986,433989.3471,443232.2807
Blocked,Female,ball,4,F_lash.wav,None,735.4338006,4341,442472.9802,434755.9259,435522.7835,436289.7633,437038.9896,437805.8034,438572.2879,439339.045,443222.7736,443989.1211,444755.7243,430922.8743,431689.3619,432455.8856,433222.3986,433989.3471,443998.8724
Blocked,Female,ball,4,F_ball.wav,None,734.5260652,4341,442472.9802,434755.9259,435522.7835,436289.7633,437038.9896,437805.8034,438572.2879,439339.045,443222.7736,443989.1211,444755.7243,445522.4805,431689.3619,432455.8856,433222.3986,433989.3471,444765.2824
Blocked,Female,ball,4,F_cad.wav,space,408.1497691,4341,442472.9802,434755.9259,435522.7835,436289.7633,437038.9896,437805.8034,438572.2879,439339.045,443222.7736,443989.1211,444755.7243,445522.4805,446289.2383,432455.8856,433222.3986,433989.3471,445532.7213
Blocked,Female,ball,4,F_ball.wav,None,730.0411854,4341,442472.9802,434755.9259,435522.7835,436289.7633,437038.9896,437805.8034,438572.2879,439339.045,443222.7736,443989.1211,444755.7243,445522.4805,446289.2383,447055.6384,433222.3986,433989.3471,446299.2707
Blocked,Female,ball,4,F_depth.wav,space,459.9540629,4341,442472.9802,434755.9259,435522.7835,436289.7633,437038.9896,437805.8034,438572.2879,439339.045,443222.7736,443989.1211,444755.7243,445522.4805,446289.2383,447055.6384,447822.3074,433989.3471,447064.9021
Blocked,Female,ball,4,F_cad.wav,None,727.5439855,4341,442472.9802,434755.9259,435522.7835,436289.7633,437038.9896,437805.8034,438572.2879,439339.045,443222.7736,443989.1211,444755.7243,445522.4805,446289.2383,447055.6384,447822.3074,448588.7622,447831.5168
Blocked,Female,ball,4,F_lash.wav,None,726.7599199,4341,442472.9802,449355.7361,435522.7835,436289.7633,437038.9896,437805.8034,438572.2879,439339.045,443222.7736,443989.1211,444755.7243,445522.4805,446289.2383,447055.6384,447822.3074,448588.7622,448597.9224
Blocked,Female,ball,4,F_ball.wav,None,725.1818948,4341,442472.9802,449355.7361,450122.8463,436289.7633,437038.9896,437805.8034,438572.2879,439339.045,443222.7736,443989.1211,444755.7243,445522.4805,446289.2383,447055.6384,447822.3074,448588.7622,449365.0416
Blocked,Female,ball,4,F_romp.wav,space,527.0705163,4341,442472.9802,449355.7361,450122.8463,450889.4876,437038.9896,437805.8034,438572.2879,439339.045,443222.7736,443989.1211,444755.7243,445522.4805,446289.2383,447055.6384,447822.3074,448588.7622,450133.7061
Blocked,Female,ball,4,F_jolt.wav,None,720.7455547,4341,442472.9802,449355.7361,450122.8463,450889.4876,451655.7822,437805.8034,438572.2879,439339.045,443222.7736,443989.1211,444755.7243,445522.4805,446289.2383,447055.6384,447822.3074,448588.7622,450899.4003
Blocked,Female,ball,4,F_gnash.wav,None,720.6116822,4341,442472.9802,449355.7361,450122.8463,450889.4876,451655.7822,452422.8578,438572.2879,439339.045,443222.7736,443989.1211,444755.7243,445522.4805,446289.2383,447055.6384,447822.3074,448588.7622,451665.2921
Blocked,Female,ball,4,F_ball.wav,None,718.0959322,4341,442472.9802,449355.7361,450122.8463,450889.4876,451655.7822,452422.8578,453172.2446,439339.045,443222.7736,443989.1211,444755.7243,445522.4805,446289.2383,447055.6384,447822.3074,448588.7622,452433.5469
Blocked,Female,ball,4,F_knife.wav,None,734.8701763,4341,442472.9802,449355.7361,450122.8463,450889.4876,451655.7822,452422.8578,453172.2446,453939.0259,443222.7736,443989.1211,444755.7243,445522.4805,446289.2383,447055.6384,447822.3074,448588.7622,453182.247
Blocked,Female,cave,7,F_priest.wav,space,8.226505946,4341,457072.8189,449355.7361,450122.8463,450889.4876,451655.7822,452422.8578,453172.2446,453939.0259,443222.7736,443989.1211,444755.7243,445522.4805,446289.2383,447055.6384,447822.3074,448588.7622,453948.5237
Blocked,Female,cave,7,F_reek.wav,None,719.503602,4341,457072.8189,449355.7361,450122.8463,450889.4876,451655.7822,452422.8578,453172.2446,453939.0259,457839.1874,443989.1211,444755.7243,445522.4805,446289.2383,447055.6384,447822.3074,448588.7622,457083.1273
Blocked,Female,cave,7,F_bluff.wav,None,718.8608292,4341,457072.8189,449355.7361,450122.8463,450889.4876,451655.7822,452422.8578,453172.2446,453939.0259,457839.1874,458588.6994,444755.7243,445522.4805,446289.2383,447055.6384,447822.3074,448588.7622,457849.2253
Blocked,Female,cave,7,F_cave.wav,None,735.3391936,4341,457072.8189,449355.7361,450122.8463,450889.4876,451655.7822,452422.8578,453172.2446,453939.0259,457839.1874,458588.6994,459355.4959,445522.4805,446289.2383,447055.6384,447822.3074,448588.7622,458598.457
Blocked,Female,cave,7,F_jaw.wav,space,552.0165423,4341,457072.8189,449355.7361,450122.8463,450889.4876,451655.7822,452422.8578,453172.2446,453939.0259,457839.1874,458588.6994,459355.4959,460122.403,446289.2383,447055.6384,447822.3074,448588.7622,459364.696
Blocked,Female,cave,7,F_priest.wav,None,731.0756817,4341,457072.8189,449355.7361,450122.8463,450889.4876,451655.7822,452422.8578,453172.2446,453939.0259,457839.1874,458588.6994,459355.4959,460122.403,460888.5851,447055.6384,447822.3074,448588.7622,460132.3698
Blocked,Female,cave,7,F_dime.wav,None,732.0004217,4341,457072.8189,449355.7361,450122.8463,450889.4876,451655.7822,452422.8578,453172.2446,453939.0259,457839.1874,458588.6994,459355.4959,460122.403,460888.5851,461655.5781,447822.3074,448588.7622,460897.51
Blocked,Female,cave,7,F_reek.wav,None,730.1537241,4341,457072.8189,449355.7361,450122.8463,450889.4876,451655.7822,452422.8578,453172.2446,453939.0259,457839.1874,458588.6994,459355.4959,460122.403,460888.5851,461655.5781,462422.0969,448588.7622,461665.1313
Blocked,Female,cave,7,F_lash.wav,None,729.3878999,4341,457072.8189,449355.7361,450122.8463,450889.4876,451655.7822,452422.8578,453172.2446,453939.0259,457839.1874,458588.6994,459355.4959,460122.403,460888.5851,461655.5781,462422.0969,463188.7057,462431.519
Blocked,Female,cave,7,F_cave.wav,None,728.414929,4341,457072.8189,463955.1339,450122.8463,450889.4876,451655.7822,452422.8578,453172.2446,453939.0259,457839.1874,458588.6994,459355.4959,460122.403,460888.5851,461655.5781,462422.0969,463188.7057,463198.0755
Blocked,Female,cave,7,F_bluff.wav,space,384.2468965,4341,457072.8189,463955.1339,464722.2958,450889.4876,451655.7822,452422.8578,453172.2446,453939.0259,457839.1874,458588.6994,459355.4959,460122.403,460888.5851,461655.5781,462422.0969,463188.7057,463964.355
Blocked,Female,cave,7,F_cave.wav,None,724.4268917,4341,457072.8189,463955.1339,464722.2958,465489.3145,451655.7822,452422.8578,453172.2446,453939.0259,457839.1874,458588.6994,459355.4959,460122.403,460888.5851,461655.5781,462422.0969,463188.7057,464732.283
Blocked,Female,cave,7,F_priest.wav,space,569.2619672,4341,457072.8189,463955.1339,464722.2958,465489.3145,466255.8422,452422.8578,453172.2446,453939.0259,457839.1874,458588.6994,459355.4959,460122.403,460888.5851,461655.5781,462422.0969,463188.7057,465499.2816
Blocked,Female,cave,7,F_cling.wav,None,720.6667154,4341,457072.8189,463955.1339,464722.2958,465489.3145,466255.8422,467021.9869,453172.2446,453939.0259,457839.1874,458588.6994,459355.4959,460122.403,460888.5851,461655.5781,462422.0969,463188.7057,466265.8935
Blocked,Female,cave,7,F_cave.wav,None,721.0324681,4341,457072.8189,463955.1339,464722.2958,465489.3145,466255.8422,467021.9869,467772.527,453939.0259,457839.1874,458588.6994,459355.4959,460122.403,460888.5851,461655.5781,462422.0969,463188.7057,467031.1199
Blocked,Female,cave,7,F_romp.wav,space,446.3568931,4341,457072.8189,463955.1339,464722.2958,465489.3145,466255.8422,467021.9869,467772.527,468538.9042,457839.1874,458588.6994,459355.4959,460122.403,460888.5851,461655.5781,462422.0969,463188.7057,467782.1537
Blocked,Female,done,22,F_greet.wav,None,733.293388,4341,471672.6727,463955.1339,464722.2958,465489.3145,466255.8422,467021.9869,467772.527,468538.9042,457839.1874,458588.6994,459355.4959,460122.403,460888.5851,461655.5781,462422.0969,463188.7057,468548.5046
Blocked,Female,done,22,F_dime.wav,None,721.2099349,4341,471672.6727,463955.1339,464722.2958,465489.3145,466255.8422,467021.9869,467772.527,468538.9042,472439.1952,458588.6994,459355.4959,460122.403,460888.5851,461655.5781,462422.0969,463188.7057,471682.7051
Blocked,Female,done,22,F_jolt.wav,None,720.8887027,4341,471672.6727,463955.1339,464722.2958,465489.3145,466255.8422,467021.9869,467772.527,468538.9042,472439.1952,473205.4023,459355.4959,460122.403,460888.5851,461655.5781,462422.0969,463188.7057,472449.342
Blocked,Female,done,22,F_dime.wav,None,719.98375,4341,471672.6727,463955.1339,464722.2958,465489.3145,466255.8422,467021.9869,467772.527,468538.9042,472439.1952,473205.4023,473972.5895,460122.403,460888.5851,461655.5781,462422.0969,463188.7057,473215.905
Blocked,Female,done,22,F_park.wav,space,405.8989808,4341,471672.6727,463955.1339,464722.2958,465489.3145,466255.8422,467021.9869,467772.527,468538.9042,472439.1952,473205.4023,473972.5895,474721.696,460888.5851,461655.5781,462422.0969,463188.7057,473982.5465
Blocked,Female,done,22,F_reek.wav,None,734.8973835,4341,471672.6727,463955.1339,464722.2958,465489.3145,466255.8422,467021.9869,467772.527,468538.9042,472439.1952,473205.4023,473972.5895,474721.696,475488.7162,461655.5781,462422.0969,463188.7057,474731.1554
Blocked,Female,done,22,F_done.wav,None,733.2627797,4341,471672.6727,463955.1339,464722.2958,465489.3145,466255.8422,467021.9869,467772.527,468538.9042,472439.1952,473205.4023,473972.5895,474721.696,475488.7162,476254.9209,462422.0969,463188.7057,475498.4911
Blocked,Female,done,22,F_lash.wav,space,476.5397105,4341,471672.6727,463955.1339,464722.2958,465489.3145,466255.8422,467021.9869,467772.527,468538.9042,472439.1952,473205.4023,473972.5895,474721.696,475488.7162,476254.9209,477021.743,463188.7057,476263.8767
Blocked,Female,done,22,F_done.wav,None,731.3415715,4341,471672.6727,463955.1339,464722.2958,465489.3145,466255.8422,467021.9869,467772.527,468538.9042,472439.1952,473205.4023,473972.5895,474721.696,475488.7162,476254.9209,477021.743,477788.7911,477030.6042
Blocked,Female,done,22,F_park.wav,None,729.3879003,4341,471672.6727,478555.3102,464722.2958,465489.3145,466255.8422,467021.9869,467772.527,468538.9042,472439.1952,473205.4023,473972.5895,474721.696,475488.7162,476254.9209,477021.743,477788.7911,477798.3415
Blocked,Female,done,22,F_done.wav,space,0.034627505,4341,471672.6727,478555.3102,479321.8293,465489.3145,466255.8422,467021.9869,467772.527,468538.9042,472439.1952,473205.4023,473972.5895,474721.696,475488.7162,476254.9209,477021.743,477788.7911,478565.2393
Blocked,Female,done,22,F_cling.wav,space,633.0980826,4341,471672.6727,478555.3102,479321.8293,480089.2162,466255.8422,467021.9869,467772.527,468538.9042,472439.1952,473205.4023,473972.5895,474721.696,475488.7162,476254.9209,477021.743,477788.7911,479331.2544
Blocked,Female,done,22,F_done.wav,None,722.3977819,4341,471672.6727,478555.3102,479321.8293,480089.2162,480855.0987,467021.9869,467772.527,468538.9042,472439.1952,473205.4023,473972.5895,474721.696,475488.7162,476254.9209,477021.743,477788.7911,480099.0622
Blocked,Female,done,22,F_lash.wav,space,532.0714084,4341,471672.6727,478555.3102,479321.8293,480089.2162,480855.0987,481622.4798,467772.527,468538.9042,472439.1952,473205.4023,473972.5895,474721.696,475488.7162,476254.9209,477021.743,477788.7911,480864.2911
Blocked,Female,done,22,F_knife.wav,None,718.7025319,4341,471672.6727,478555.3102,479321.8293,480089.2162,480855.0987,481622.4798,482372.2188,468538.9042,472439.1952,473205.4023,473972.5895,474721.696,475488.7162,476254.9209,477021.743,477788.7911,481632.63
Blocked,Female,done,22,F_knife.wav,None,735.1960461,4341,471672.6727,478555.3102,479321.8293,480089.2162,480855.0987,481622.4798,482372.2188,483138.6056,472439.1952,473205.4023,473972.5895,474721.696,475488.7162,476254.9209,477021.743,477788.7911,482381.9726
Blocked,Female,tile,15,F_bluff.wav,None,734.727338,4341,486272.3432,478555.3102,479321.8293,480089.2162,480855.0987,481622.4798,482372.2188,483138.6056,472439.1952,473205.4023,473972.5895,474721.696,475488.7162,476254.9209,477021.743,477788.7911,483147.9228
Blocked,Female,tile,15,F_jaw.wav,None,721.0281398,4341,486272.3432,478555.3102,479321.8293,480089.2162,480855.0987,481622.4798,482372.2188,483138.6056,487038.4761,473205.4023,473972.5895,474721.696,475488.7162,476254.9209,477021.743,477788.7911,486282.4176
Blocked,Female,tile,15,F_cling.wav,None,721.8069499,4341,486272.3432,478555.3102,479321.8293,480089.2162,480855.0987,481622.4798,482372.2188,483138.6056,487038.4761,487805.5254,473972.5895,474721.696,475488.7162,476254.9209,477021.743,477788.7911,487047.6487
Blocked,Female,tile,15,F_tile.wav,None,719.6962181,4341,486272.3432,478555.3102,479321.8293,480089.2162,480855.0987,481622.4798,482372.2188,483138.6056,487038.4761,487805.5254,488571.7391,474721.696,475488.7162,476254.9209,477021.743,477788.7911,487815.73
Blocked,Female,tile,15,F_jaw.wav,space,399.0835459,4341,486272.3432,478555.3102,479321.8293,480089.2162,480855.0987,481622.4798,482372.2188,483138.6056,487038.4761,487805.5254,488571.7391,489321.4199,475488.7162,476254.9209,477021.743,477788.7911,488581.1698
Blocked,Female,tile,15,F_tile.wav,None,735.3024017,4341,486272.3432,478555.3102,479321.8293,480089.2162,480855.0987,481622.4798,482372.2188,483138.6056,487038.4761,487805.5254,488571.7391,489321.4199,490088.5147,476254.9209,477021.743,477788.7911,489330.7384
Blocked,Female,tile,15,F_knife.wav,space,570.2024749,4341,486272.3432,478555.3102,479321.8293,480089.2162,480855.0987,481622.4798,482372.2188,483138.6056,487038.4761,487805.5254,488571.7391,489321.4199,490088.5147,490855.0721,477021.743,477788.7911,490097.9971
Blocked,Female,tile,15,F_cad.wav,None,733.1245788,4341,486272.3432,478555.3102,479321.8293,480089.2162,480855.0987,481622.4798,482372.2188,483138.6056,487038.4761,487805.5254,488571.7391,489321.4199,490088.5147,490855.0721,491621.9409,477788.7911,490864.0852
Blocked,Female,tile,15,F_cad.wav,None,731.534496,4341,486272.3432,478555.3102,479321.8293,480089.2162,480855.0987,481622.4798,482372.2188,483138.6056,487038.4761,487805.5254,488571.7391,489321.4199,490088.5147,490855.0721,491621.9409,492388.11,491631.516
Blocked,Female,tile,15,F_tile.wav,None,731.9623935,4341,486272.3432,493155.0063,479321.8293,480089.2162,480855.0987,481622.4798,482372.2188,483138.6056,487038.4761,487805.5254,488571.7391,489321.4199,490088.5147,490855.0721,491621.9409,492388.11,492397.1228
Blocked,Female,tile,15,F_bluff.wav,space,687.789754,4341,486272.3432,493155.0063,493921.9406,480089.2162,480855.0987,481622.4798,482372.2188,483138.6056,487038.4761,487805.5254,488571.7391,489321.4199,490088.5147,490855.0721,491621.9409,492388.11,493164.3579
Blocked,Female,tile,15,F_greet.wav,None,727.3374568,4341,486272.3432,493155.0063,493921.9406,494688.1357,480855.0987,481622.4798,482372.2188,483138.6056,487038.4761,487805.5254,488571.7391,489321.4199,490088.5147,490855.0721,491621.9409,492388.11,493931.8772
Blocked,Female,tile,15,F_knife.wav,None,727.6410661,4341,486272.3432,493155.0063,493921.9406,494688.1357,495454.6962,481622.4798,482372.2188,483138.6056,487038.4761,487805.5254,488571.7391,489321.4199,490088.5147,490855.0721,491621.9409,492388.11,494697.6994
Blocked,Female,tile,15,F_cad.wav,None,727.4985365,4341,486272.3432,493155.0063,493921.9406,494688.1357,495454.6962,496221.7638,482372.2188,483138.6056,487038.4761,487805.5254,488571.7391,489321.4199,490088.5147,490855.0721,491621.9409,492388.11,495463.8249
Blocked,Female,tile,15,F_tile.wav,None,725.9891485,4341,486272.3432,493155.0063,493921.9406,494688.1357,495454.6962,496221.7638,496988.5442,483138.6056,487038.4761,487805.5254,488571.7391,489321.4199,490088.5147,490855.0721,491621.9409,492388.11,496231.4141
Blocked,Female,tile,15,F_romp.wav,space,470.3181987,4341,486272.3432,493155.0063,493921.9406,494688.1357,495454.6962,496221.7638,496988.5442,497755.2803,487038.4761,487805.5254,488571.7391,489321.4199,490088.5147,490855.0721,491621.9409,492388.11,496997.7817
Blocked,Female,cave,10,F_jolt.wav,None,722.6104937,4341,500872.1834,493155.0063,493921.9406,494688.1357,495454.6962,496221.7638,496988.5442,497755.2803,487038.4761,487805.5254,488571.7391,489321.4199,490088.5147,490855.0721,491621.9409,492388.11,497765.0975
Blocked,Female,cave,10,F_cave.wav,None,720.3927874,4341,500872.1834,493155.0063,493921.9406,494688.1357,495454.6962,496221.7638,496988.5442,497755.2803,501638.8948,487805.5254,488571.7391,489321.4199,490088.5147,490855.0721,491621.9409,492388.11,500882.6319
Blocked,Female,cave,10,F_knife.wav,None,720.0171403,4341,500872.1834,493155.0063,493921.9406,494688.1357,495454.6962,496221.7638,496988.5442,497755.2803,501638.8948,502405.6319,488571.7391,489321.4199,490088.5147,490855.0721,491621.9409,492388.11,501648.7877
Blocked,Female,cave,10,F_cad.wav,space,0.038337428,4341,500872.1834,493155.0063,493921.9406,494688.1357,495454.6962,496221.7638,496988.5442,497755.2803,501638.8948,502405.6319,503154.8394,489321.4199,490088.5147,490855.0721,491621.9409,492388.11,502415.8111
Blocked,Female,cave,10,F_cling.wav,None,734.3124263,4341,500872.1834,493155.0063,493921.9406,494688.1357,495454.6962,496221.7638,496988.5442,497755.2803,501638.8948,502405.6319,503154.8394,503921.5662,490088.5147,490855.0721,491621.9409,492388.11,503164.4457
Blocked,Female,cave,10,F_depth.wav,None,733.4121107,4341,500872.1834,493155.0063,493921.9406,494688.1357,495454.6962,496221.7638,496988.5442,497755.2803,501638.8948,502405.6319,503154.8394,503921.5662,504688.2152,490855.0721,491621.9409,492388.11,503931.5547
Blocked,Female,cave,10,F_priest.wav,None,732.7915984,4341,500872.1834,493155.0063,493921.9406,494688.1357,495454.6962,496221.7638,496988.5442,497755.2803,501638.8948,502405.6319,503154.8394,503921.5662,504688.2152,505454.8861,491621.9409,492388.11,504697.982
Blocked,Female,cave,10,F_priest.wav,None,732.1417141,4341,500872.1834,493155.0063,493921.9406,494688.1357,495454.6962,496221.7638,496988.5442,497755.2803,501638.8948,502405.6319,503154.8394,503921.5662,504688.2152,505454.8861,506221.2756,492388.11,505464.472
Blocked,Female,cave,10,F_romp.wav,None,731.7459714,4341,500872.1834,493155.0063,493921.9406,494688.1357,495454.6962,496221.7638,496988.5442,497755.2803,501638.8948,502405.6319,503154.8394,503921.5662,504688.2152,505454.8861,506221.2756,506987.9657,506230.6387
Blocked,Female,cave,10,F_depth.wav,None,731.3539386,4341,500872.1834,507754.8268,493921.9406,494688.1357,495454.6962,496221.7638,496988.5442,497755.2803,501638.8948,502405.6319,503154.8394,503921.5662,504688.2152,505454.8861,506221.2756,506987.9657,506996.9982
Blocked,Female,cave,10,F_cave.wav,None,730.124353,4341,500872.1834,507754.8268,508521.7156,494688.1357,495454.6962,496221.7638,496988.5442,497755.2803,501638.8948,502405.6319,503154.8394,503921.5662,504688.2152,505454.8861,506221.2756,506987.9657,507764.1171
Blocked,Female,cave,10,F_reek.wav,space,456.0315707,4341,500872.1834,507754.8268,508521.7156,509288.2752,495454.6962,496221.7638,496988.5442,497755.2803,501638.8948,502405.6319,503154.8394,503921.5662,504688.2152,505454.8861,506221.2756,506987.9657,508531.8711
Blocked,Female,cave,10,F_cave.wav,None,726.469296,4341,500872.1834,507754.8268,508521.7156,509288.2752,510054.4808,496221.7638,496988.5442,497755.2803,501638.8948,502405.6319,503154.8394,503921.5662,504688.2152,505454.8861,506221.2756,506987.9657,509297.7935
Blocked,Female,cave,10,F_lash.wav,space,668.256131,4341,500872.1834,507754.8268,508521.7156,509288.2752,510054.4808,510822.1658,496988.5442,497755.2803,501638.8948,502405.6319,503154.8394,503921.5662,504688.2152,505454.8861,506221.2756,506987.9657,510063.654
Blocked,Female,cave,10,F_cave.wav,None,722.0487236,4341,500872.1834,507754.8268,508521.7156,509288.2752,510054.4808,510822.1658,511588.7845,497755.2803,501638.8948,502405.6319,503154.8394,503921.5662,504688.2152,505454.8861,506221.2756,506987.9657,510832.2155
Blocked,Female,cave,10,F_jaw.wav,None,721.4532546,4341,500872.1834,507754.8268,508521.7156,509288.2752,510054.4808,510822.1658,511588.7845,512355.1097,501638.8948,502405.6319,503154.8394,503921.5662,504688.2152,505454.8861,506221.2756,506987.9657,511598.6867
Blocked,Female,tile,17,F_gnash.wav,space,111.0160914,4341,515472.1028,507754.8268,508521.7156,509288.2752,510054.4808,510822.1658,511588.7845,512355.1097,501638.8948,502405.6319,503154.8394,503921.5662,504688.2152,505454.8861,506221.2756,506987.9657,512364.8938
Blocked,Female,tile,17,F_depth.wav,None,719.9420114,4341,515472.1028,507754.8268,508521.7156,509288.2752,510054.4808,510822.1658,511588.7845,512355.1097,516238.5532,502405.6319,503154.8394,503921.5662,504688.2152,505454.8861,506221.2756,506987.9657,515482.0378
Blocked,Female,tile,17,F_tile.wav,None,719.7234253,4341,515472.1028,507754.8268,508521.7156,509288.2752,510054.4808,510822.1658,511588.7845,512355.1097,516238.5532,517005.2204,503154.8394,503921.5662,504688.2152,505454.8861,506221.2756,506987.9657,516248.5578
Blocked,Female,tile,17,F_priest.wav,space,484.6039,4341,515472.1028,507754.8268,508521.7156,509288.2752,510054.4808,510822.1658,511588.7845,512355.1097,516238.5532,517005.2204,517754.5844,503921.5662,504688.2152,505454.8861,506221.2756,506987.9657,517015.203
Blocked,Female,tile,17,F_greet.wav,None,734.1269217,4341,515472.1028,507754.8268,508521.7156,509288.2752,510054.4808,510822.1658,511588.7845,512355.1097,516238.5532,517005.2204,517754.5844,518521.3576,504688.2152,505454.8861,506221.2756,506987.9657,517764.4656
Blocked,Female,tile,17,F_tile.wav,None,733.115613,4341,515472.1028,507754.8268,508521.7156,509288.2752,510054.4808,510822.1658,511588.7845,512355.1097,516238.5532,517005.2204,517754.5844,518521.3576,519287.779,505454.8861,506221.2756,506987.9657,518531.4645
Blocked,Female,tile,17,F_romp.wav,None,734.3841544,4341,515472.1028,507754.8268,508521.7156,509288.2752,510054.4808,510822.1658,511588.7845,512355.1097,516238.5532,517005.2204,517754.5844,518521.3576,519287.779,520054.6088,506221.2756,506987.9657,519296.9457
Blocked,Female,tile,17,F_jolt.wav,space,0.034627505,4341,515472.1028,507754.8268,508521.7156,509288.2752,510054.4808,510822.1658,511588.7845,512355.1097,516238.5532,517005.2204,517754.5844,518521.3576,519287.779,520054.6088,520821.3749,506987.9657,520064.3425
Blocked,Female,tile,17,F_jolt.wav,None,730.180623,4341,515472.1028,507754.8268,508521.7156,509288.2752,510054.4808,510822.1658,511588.7845,512355.1097,516238.5532,517005.2204,517754.5844,518521.3576,519287.779,520054.6088,520821.3749,521588.1126,520831.3452
Blocked,Female,tile,17,F_tile.wav,None,729.593501,4341,515472.1028,522354.4589,508521.7156,509288.2752,510054.4808,510822.1658,511588.7845,512355.1097,516238.5532,517005.2204,517754.5844,518521.3576,519287.779,520054.6088,520821.3749,521588.1126,521597.8887
Blocked,Female,tile,17,F_knife.wav,space,647.9285485,4341,515472.1028,522354.4589,523120.9922,509288.2752,510054.4808,510822.1658,511588.7845,512355.1097,516238.5532,517005.2204,517754.5844,518521.3576,519287.779,520054.6088,520821.3749,521588.1126,522363.7848
Blocked,Female,tile,17,F_tile.wav,None,727.3495151,4341,515472.1028,522354.4589,523120.9922,523887.6866,510054.4808,510822.1658,511588.7845,512355.1097,516238.5532,517005.2204,517754.5844,518521.3576,519287.779,520054.6088,520821.3749,521588.1126,523130.3389
Blocked,Female,tile,17,F_greet.wav,None,726.7441521,4341,515472.1028,522354.4589,523120.9922,523887.6866,524654.2162,510822.1658,511588.7845,512355.1097,516238.5532,517005.2204,517754.5844,518521.3576,519287.779,520054.6088,520821.3749,521588.1126,523897.0107
Blocked,Female,tile,17,F_park.wav,space,0.019478146,4341,515472.1028,522354.4589,523120.9922,523887.6866,524654.2162,525421.2782,511588.7845,512355.1097,516238.5532,517005.2204,517754.5844,518521.3576,519287.779,520054.6088,520821.3749,521588.1126,524663.5694
Blocked,Female,tile,17,F_reek.wav,None,724.079689,4341,515472.1028,522354.4589,523120.9922,523887.6866,524654.2162,525421.2782,526188.3059,512355.1097,516238.5532,517005.2204,517754.5844,518521.3576,519287.779,520054.6088,520821.3749,521588.1126,525430.3661
Blocked,Female,tile,17,F_gnash.wav,None,721.874659,4341,515472.1028,522354.4589,523120.9922,523887.6866,524654.2162,525421.2782,526188.3059,526955.2263,516238.5532,517005.2204,517754.5844,518521.3576,519287.779,520054.6088,520821.3749,521588.1126,526198.6577
Blocked,Female,ball,3,F_knife.wav,None,721.0927573,4341,530071.7383,522354.4589,523120.9922,523887.6866,524654.2162,525421.2782,526188.3059,526955.2263,516238.5532,517005.2204,517754.5844,518521.3576,519287.779,520054.6088,520821.3749,521588.1126,526965.5317
Blocked,Female,ball,3,F_ball.wav,None,688.9200951,4341,530071.7383,522354.4589,523120.9922,523887.6866,524654.2162,525421.2782,526188.3059,526955.2263,530838.2358,517005.2204,517754.5844,518521.3576,519287.779,520054.6088,520821.3749,521588.1126,530113.7789
Blocked,Female,ball,3,F_jolt.wav,space,546.2594102,4341,530071.7383,522354.4589,523120.9922,523887.6866,524654.2162,525421.2782,526188.3059,526955.2263,530838.2358,531587.8943,517754.5844,518521.3576,519287.779,520054.6088,520821.3749,521588.1126,530865.3503
Blocked,Female,ball,3,F_ball.wav,None,730.3206786,4341,530071.7383,522354.4589,523120.9922,523887.6866,524654.2162,525421.2782,526188.3059,526955.2263,530838.2358,531587.8943,532354.1735,518521.3576,519287.779,520054.6088,520821.3749,521588.1126,531602.6825
Blocked,Female,ball,3,F_jaw.wav,space,487.3422557,4341,530071.7383,522354.4589,523120.9922,523887.6866,524654.2162,525421.2782,526188.3059,526955.2263,530838.2358,531587.8943,532354.1735,533121.0349,519287.779,520054.6088,520821.3749,521588.1126,532364.2112
Blocked,Female,ball,3,F_depth.wav,None,732.8240615,4341,530071.7383,522354.4589,523120.9922,523887.6866,524654.2162,525421.2782,526188.3059,526955.2263,530838.2358,531587.8943,532354.1735,533121.0349,533887.951,520054.6088,520821.3749,521588.1126,533130.4001
Blocked,Female,ball,3,F_ball.wav,None,731.6359053,4341,530071.7383,522354.4589,523120.9922,523887.6866,524654.2162,525421.2782,526188.3059,526955.2263,530838.2358,531587.8943,532354.1735,533121.0349,533887.951,534653.9856,520821.3749,521588.1126,533897.8009
Blocked,Female,ball,3,F_bluff.wav,space,460.821915,4341,530071.7383,522354.4589,523120.9922,523887.6866,524654.2162,525421.2782,526188.3059,526955.2263,530838.2358,531587.8943,532354.1735,533121.0349,533887.951,534653.9856,535421.2362,521588.1126,534662.7197
Blocked,Female,ball,3,F_reek.wav,None,732.6874067,4341,530071.7383,522354.4589,523120.9922,523887.6866,524654.2162,525421.2782,526188.3059,526955.2263,530838.2358,531587.8943,532354.1735,533121.0349,533887.951,534653.9856,535421.2362,536187.823,535430.3036
Blocked,Female,ball,3,F_gnash.wav,None,731.7410246,4341,530071.7383,536954.4271,523120.9922,523887.6866,524654.2162,525421.2782,526188.3059,526955.2263,530838.2358,531587.8943,532354.1735,533121.0349,533887.951,534653.9856,535421.2362,536187.823,536197.3548
Blocked,Female,ball,3,F_lash.wav,None,731.7651403,4341,530071.7383,536954.4271,537721.1827,523887.6866,524654.2162,525421.2782,526188.3059,526955.2263,530838.2358,531587.8943,532354.1735,533121.0349,533887.951,534653.9856,535421.2362,536187.823,536963.7311
Blocked,Female,ball,3,F_romp.wav,None,731.7846185,4341,530071.7383,536954.4271,537721.1827,538487.5958,524654.2162,525421.2782,526188.3059,526955.2263,530838.2358,531587.8943,532354.1735,533121.0349,533887.951,534653.9856,535421.2362,536187.823,537730.3949
Blocked,Female,ball,3,F_ball.wav,None,731.5743798,4341,530071.7383,536954.4271,537721.1827,538487.5958,539254.3996,525421.2782,526188.3059,526955.2263,530838.2358,531587.8943,532354.1735,533121.0349,533887.951,534653.9856,535421.2362,536187.823,538496.7146
Blocked,Female,ball,3,F_reek.wav,space,435.5735164,4341,530071.7383,536954.4271,537721.1827,538487.5958,539254.3996,540021.154,526188.3059,526955.2263,530838.2358,531587.8943,532354.1735,533121.0349,533887.951,534653.9856,535421.2362,536187.823,539263.8755
Blocked,Female,ball,3,F_bluff.wav,None,727.9375643,4341,530071.7383,536954.4271,537721.1827,538487.5958,539254.3996,540021.154,540787.7489,526955.2263,530838.2358,531587.8943,532354.1735,533121.0349,533887.951,534653.9856,535421.2362,536187.823,540030.6036
Blocked,Female,ball,3,F_park.wav,space,150.2886293,4341,530071.7383,536954.4271,537721.1827,538487.5958,539254.3996,540021.154,540787.7489,541554.2856,530838.2358,531587.8943,532354.1735,533121.0349,533887.951,534653.9856,535421.2362,536187.823,540797.1545
Blocked,Female,tile,16,F_lash.wav,None,725.1407746,4341,544688.2554,536954.4271,537721.1827,538487.5958,539254.3996,540021.154,540787.7489,541554.2856,530838.2358,531587.8943,532354.1735,533121.0349,533887.951,534653.9856,535421.2362,536187.823,541563.7188
Blocked,Female,tile,16,F_jolt.wav,None,720.7402992,4341,544688.2554,536954.4271,537721.1827,538487.5958,539254.3996,540021.154,540787.7489,541554.2856,545454.1873,531587.8943,532354.1735,533121.0349,533887.951,534653.9856,535421.2362,536187.823,544697.803
Blocked,Female,tile,16,F_tile.wav,None,721.426975,4341,544688.2554,536954.4271,537721.1827,538487.5958,539254.3996,540021.154,540787.7489,541554.2856,545454.1873,546222.3169,532354.1735,533121.0349,533887.951,534653.9856,535421.2362,536187.823,545463.3033
Blocked,Female,tile,16,F_park.wav,space,467.4771978,4341,544688.2554,536954.4271,537721.1827,538487.5958,539254.3996,540021.154,540787.7489,541554.2856,545454.1873,546222.3169,546970.8814,533121.0349,533887.951,534653.9856,535421.2362,536187.823,546231.8911
Blocked,Female,tile,16,F_tile.wav,None,734.7857715,4341,544688.2554,536954.4271,537721.1827,538487.5958,539254.3996,540021.154,540787.7489,541554.2856,545454.1873,546222.3169,546970.8814,547737.2901,533887.951,534653.9856,535421.2362,536187.823,546980.4506
Blocked,Female,tile,16,F_cling.wav,space,457.1483075,4341,544688.2554,536954.4271,537721.1827,538487.5958,539254.3996,540021.154,540787.7489,541554.2856,545454.1873,546222.3169,546970.8814,547737.2901,548503.897,534653.9856,535421.2362,536187.823,547746.2153
Blocked,Female,tile,16,F_greet.wav,None,733.054087,4341,544688.2554,536954.4271,537721.1827,538487.5958,539254.3996,540021.154,540787.7489,541554.2856,545454.1873,546222.3169,546970.8814,547737.2901,548503.897,549270.588,535421.2362,536187.823,548512.9932
Blocked,Female,tile,16,F_jolt.wav,None,732.5999103,4341,544688.2554,536954.4271,537721.1827,538487.5958,539254.3996,540021.154,540787.7489,541554.2856,545454.1873,546222.3169,546970.8814,547737.2901,548503.897,549270.588,550037.6593,536187.823,549279.67
Blocked,Female,tile,16,F_tile.wav,None,731.4800816,4341,544688.2554,536954.4271,537721.1827,538487.5958,539254.3996,540021.154,540787.7489,541554.2856,545454.1873,546222.3169,546970.8814,547737.2901,548503.897,549270.588,550037.6593,550803.8624,550047.2047
Blocked,Female,tile,16,F_greet.wav,space,0.022569671,4341,544688.2554,551571.0722,537721.1827,538487.5958,539254.3996,540021.154,540787.7489,541554.2856,545454.1873,546222.3169,546970.8814,547737.2901,548503.897,549270.588,550037.6593,550803.8624,550813.1129
Blocked,Female,tile,16,F_greet.wav,space,0.034627505,4341,544688.2554,551571.0722,552337.6247,538487.5958,539254.3996,540021.154,540787.7489,541554.2856,545454.1873,546222.3169,546970.8814,547737.2901,548503.897,549270.588,550037.6593,550803.8624,551580.8541
Blocked,Female,tile,16,F_park.wav,None,726.6337769,4341,544688.2554,551571.0722,552337.6247,553103.8457,539254.3996,540021.154,540787.7489,541554.2856,545454.1873,546222.3169,546970.8814,547737.2901,548503.897,549270.588,550037.6593,550803.8624,552347.0588
Blocked,Female,tile,16,F_tile.wav,None,727.2743853,4341,544688.2554,551571.0722,552337.6247,553103.8457,553870.9699,540021.154,540787.7489,541554.2856,545454.1873,546222.3169,546970.8814,547737.2901,548503.897,549270.588,550037.6593,550803.8624,553112.8857
Blocked,Female,tile,16,F_greet.wav,space,722.6030733,4341,544688.2554,551571.0722,552337.6247,553103.8457,553870.9699,554637.8822,540787.7489,541554.2856,545454.1873,546222.3169,546970.8814,547737.2901,548503.897,549270.588,550037.6593,550803.8624,553880.6696
Blocked,Female,tile,16,F_reek.wav,None,722.8272245,4341,544688.2554,551571.0722,552337.6247,553103.8457,553870.9699,554637.8822,555404.4907,541554.2856,545454.1873,546222.3169,546970.8814,547737.2901,548503.897,549270.588,550037.6593,550803.8624,554648.0278
Blocked,Female,tile,16,F_priest.wav,None,723.0377719,4341,544688.2554,551571.0722,552337.6247,553103.8457,553870.9699,554637.8822,555404.4907,556171.3388,545454.1873,546222.3169,546970.8814,547737.2901,548503.897,549270.588,550037.6593,550803.8624,555414.1193
Blocked,Female,ball,2,F_dime.wav,None,722.4645633,4341,559304.42,551571.0722,552337.6247,553103.8457,553870.9699,554637.8822,555404.4907,556171.3388,545454.1873,546222.3169,546970.8814,547737.2901,548503.897,549270.588,550037.6593,550803.8624,556181.1612
Blocked,Female,ball,2,F_depth.wav,None,721.2318857,4341,559304.42,551571.0722,552337.6247,553103.8457,553870.9699,554637.8822,555404.4907,556171.3388,560071.2479,546222.3169,546970.8814,547737.2901,548503.897,549270.588,550037.6593,550803.8624,559313.9617
Blocked,Female,ball,2,F_ball.wav,None,720.4252505,4341,559304.42,551571.0722,552337.6247,553103.8457,553870.9699,554637.8822,555404.4907,556171.3388,560071.2479,560838.1087,546970.8814,547737.2901,548503.897,549270.588,550037.6593,550803.8624,560081.0491
Blocked,Female,ball,2,F_jaw.wav,space,483.2138531,4341,559304.42,551571.0722,552337.6247,553103.8457,553870.9699,554637.8822,555404.4907,556171.3388,560071.2479,560838.1087,561587.0441,547737.2901,548503.897,549270.588,550037.6593,550803.8624,560847.9478
Blocked,Female,ball,2,F_greet.wav,None,735.9643434,4341,559304.42,551571.0722,552337.6247,553103.8457,553870.9699,554637.8822,555404.4907,556171.3388,560071.2479,560838.1087,561587.0441,562353.9219,548503.897,549270.588,550037.6593,550803.8624,561596.0219
Blocked,Female,ball,2,F_ball.wav,None,734.8540989,4341,559304.42,551571.0722,552337.6247,553103.8457,553870.9699,554637.8822,555404.4907,556171.3388,560071.2479,560838.1087,561587.0441,562353.9219,563120.6741,549270.588,550037.6593,550803.8624,562363.3529
Blocked,Female,ball,2,F_dime.wav,space,552.9830204,4341,559304.42,551571.0722,552337.6247,553103.8457,553870.9699,554637.8822,555404.4907,556171.3388,560071.2479,560838.1087,561587.0441,562353.9219,563120.6741,563887.4155,550037.6593,550803.8624,563130.1354
Blocked,Female,ball,2,F_park.wav,None,731.4364878,4341,559304.42,551571.0722,552337.6247,553103.8457,553870.9699,554637.8822,555404.4907,556171.3388,560071.2479,560838.1087,561587.0441,562353.9219,563120.6741,563887.4155,564653.9757,550803.8624,563897.0617
Blocked,Female,ball,2,F_ball.wav,None,731.7459714,4341,559304.42,551571.0722,552337.6247,553103.8457,553870.9699,554637.8822,555404.4907,556171.3388,560071.2479,560838.1087,561587.0441,562353.9219,563120.6741,563887.4155,564653.9757,565420.4246,564663.506
Blocked,Female,ball,2,F_bluff.wav,space,477.5034064,4341,559304.42,566187.3815,552337.6247,553103.8457,553870.9699,554637.8822,555404.4907,556171.3388,560071.2479,560838.1087,561587.0441,562353.9219,563120.6741,563887.4155,564653.9757,565420.4246,565429.5771
Blocked,Female,ball,2,F_cling.wav,None,729.0855274,4341,559304.42,566187.3815,566953.8827,553103.8457,553870.9699,554637.8822,555404.4907,556171.3388,560071.2479,560838.1087,561587.0441,562353.9219,563120.6741,563887.4155,564653.9757,565420.4246,566196.6975
Blocked,Female,ball,2,F_lash.wav,None,729.0400788,4341,559304.42,566187.3815,566953.8827,567720.4123,553870.9699,554637.8822,555404.4907,556171.3388,560071.2479,560838.1087,561587.0441,562353.9219,563120.6741,563887.4155,564653.9757,565420.4246,566962.8611
Blocked,Female,ball,2,F_ball.wav,None,729.1498361,4341,559304.42,566187.3815,566953.8827,567720.4123,568487.3917,554637.8822,555404.4907,556171.3388,560071.2479,560838.1087,561587.0441,562353.9219,563120.6741,563887.4155,564653.9757,565420.4246,567729.4151
Blocked,Female,ball,2,F_park.wav,space,650.0102179,4341,559304.42,566187.3815,566953.8827,567720.4123,568487.3917,569253.892,555404.4907,556171.3388,560071.2479,560838.1087,561587.0441,562353.9219,563120.6741,563887.4155,564653.9757,565420.4246,568497.0191
Blocked,Female,ball,2,F_lash.wav,None,725.9900761,4341,559304.42,566187.3815,566953.8827,567720.4123,568487.3917,569253.892,570020.3347,556171.3388,560071.2479,560838.1087,561587.0441,562353.9219,563120.6741,563887.4155,564653.9757,565420.4246,569262.8713
Blocked,Female,ball,2,F_lash.wav,None,725.8837204,4341,559304.42,566187.3815,566953.8827,567720.4123,568487.3917,569253.892,570020.3347,570787.0368,560071.2479,560838.1087,561587.0441,562353.9219,563120.6741,563887.4155,564653.9757,565420.4246,570029.3678
Blocked,Male,ball,4,M_park.wav,None,725.9143288,4341,594137.4001,566187.3815,566953.8827,567720.4123,568487.3917,569253.892,570020.3347,570787.0368,560071.2479,560838.1087,561587.0441,562353.9219,563120.6741,563887.4155,564653.9757,565420.4246,570796.0613
Blocked,Male,ball,4,M_ball.wav,None,720.6534212,4341,594137.4001,566187.3815,566953.8827,567720.4123,568487.3917,569253.892,570020.3347,570787.0368,594903.892,560838.1087,561587.0441,562353.9219,563120.6741,563887.4155,564653.9757,565420.4246,594147.1493
Blocked,Male,ball,4,M_bluff.wav,space,532.0942868,4341,594137.4001,566187.3815,566953.8827,567720.4123,568487.3917,569253.892,570020.3347,570787.0368,594903.892,595653.1032,561587.0441,562353.9219,563120.6741,563887.4155,564653.9757,565420.4246,594910.5476
Blocked,Male,ball,4,M_reek.wav,None,736.2503293,4341,594137.4001,566187.3815,566953.8827,567720.4123,568487.3917,569253.892,570020.3347,570787.0368,594903.892,595653.1032,596419.9723,562353.9219,563120.6741,563887.4155,564653.9757,565420.4246,595662.2334
