"Condition","Talker","Target","Trial","current_stimulus","response_response","response_time_response","subject_nr","time_Audio1","time_Audio10","time_Audio11","time_Audio12","time_Audio13","time_Audio14","time_Audio15","time_Audio16","time_Audio2","time_Audio3","time_Audio4","time_Audio5","time_Audio6","time_Audio7","time_Audio8","time_Audio9","time_response"
"Mixed","Both","done","41","F_jaw.wav","NA","NA","135","195779.559384","NA","NA","NA","NA","NA","NA","NA","NA","NA","NA","NA","NA","NA","NA","NA","NA"
"Mixed","Both","done","41","F_romp.wav","None","718.936815625","135","195779.559384","NA","NA","NA","NA","NA","NA","NA","196529.797754","NA","NA","NA","NA","NA","NA","NA","195791.693049"
"Mixed","Both","done","41","F_done.wav","None","735.832309001","135","195779.559384","NA","NA","NA","NA","NA","NA","NA","196529.797754","197296.710251","NA","NA","NA","NA","NA","NA","196539.104682"
"Mixed","Both","done","41","M_jaw.wav","space","525.828945101","135","195779.559384","NA","NA","NA","NA","NA","NA","NA","196529.797754","197296.710251","198063.201042","NA","NA","NA","NA","NA","197306.189387"
"Mixed","Both","done","41","F_done.wav","None","731.690365588","135","195779.559384","NA","NA","NA","NA","NA","NA","NA","196529.797754","197296.710251","198063.201042","198829.615777","NA","NA","NA","NA","198072.870317"
"Mixed","Both","done","41","M_gnash.wav","space","561.433519935","135","195779.559384","NA","NA","NA","NA","NA","NA","NA","196529.797754","197296.710251","198063.201042","198829.615777","199596.676985","NA","NA","NA","198838.545209"
"Mixed","Both","done","41","M_dime.wav","None","727.850480704","135","195779.559384","NA","NA","NA","NA","NA","NA","NA","196529.797754","197296.710251","198063.201042","198829.615777","199596.676985","200363.212605","NA","NA","199606.196004"
"Mixed","Both","done","41","M_romp.wav","space","371.560798725","135","195779.559384","NA","NA","NA","NA","NA","NA","NA","196529.797754","197296.710251","198063.201042","198829.615777","199596.676985","200363.212605","201130.270721","NA","200372.377006"
"Mixed","Both","done","41","F_jaw.wav","None","722.623352427","135","195779.559384","NA","NA","NA","NA","NA","NA","NA","196529.797754","197296.710251","198063.201042","198829.615777","199596.676985","200363.212605","201130.270721","201897.400256","201140.682931"
"Mixed","Both","done","41","M_dime.wav","None","721.08956275","135","195779.559384","202646.965563","NA","NA","NA","NA","NA","NA","196529.797754","197296.710251","198063.201042","198829.615777","199596.676985","200363.212605","201130.270721","201897.400256","201906.822814"
"Mixed","Both","done","41","F_park.wav","None","736.911928747","135","195779.559384","202646.965563","203413.331449","NA","NA","NA","NA","NA","196529.797754","197296.710251","198063.201042","198829.615777","199596.676985","200363.212605","201130.270721","201897.400256","202655.72619"
"Mixed","Both","done","41","F_jolt.wav","None","734.980856185","135","195779.559384","202646.965563","203413.331449","204179.815129","NA","NA","NA","NA","196529.797754","197296.710251","198063.201042","198829.615777","199596.676985","200363.212605","201130.270721","201897.400256","203422.390115"
"Mixed","Both","done","41","M_done.wav","None","733.085647342","135","195779.559384","202646.965563","203413.331449","204179.815129","204946.921785","NA","NA","NA","196529.797754","197296.710251","198063.201042","198829.615777","199596.676985","200363.212605","201130.270721","201897.400256","204189.010138"
"Mixed","Both","done","41","M_ball.wav","space","531.482418184","135","195779.559384","202646.965563","203413.331449","204179.815129","204946.921785","205713.537171","NA","NA","196529.797754","197296.710251","198063.201042","198829.615777","199596.676985","200363.212605","201130.270721","201897.400256","204956.29333"
"Mixed","Both","done","41","M_done.wav","None","728.628969402","135","195779.559384","202646.965563","203413.331449","204179.815129","204946.921785","205713.537171","206480.197386","NA","196529.797754","197296.710251","198063.201042","198829.615777","199596.676985","200363.212605","201130.270721","201897.400256","205722.959729"
"Mixed","Both","done","41","F_cling.wav","space","598.343408084","135","195779.559384","202646.965563","203413.331449","204179.815129","204946.921785","205713.537171","206480.197386","207247.439458","196529.797754","197296.710251","198063.201042","198829.615777","199596.676985","200363.212605","201130.270721","201897.400256","206489.401052"
"Mixed","Both","ball","12","M_cad.wav","None","723.480061046","135","210380.360689","202646.965563","203413.331449","204179.815129","204946.921785","205713.537171","206480.197386","207247.439458","196529.797754","197296.710251","198063.201042","198829.615777","199596.676985","200363.212605","201130.270721","201897.400256","207257.143361"
"Mixed","Both","ball","12","F_ball.wav","None","720.553771942","135","210380.360689","202646.965563","203413.331449","204179.815129","204946.921785","205713.537171","206480.197386","207247.439458","211130.027096","197296.710251","198063.201042","198829.615777","199596.676985","200363.212605","201130.270721","201897.400256","210390.131372"
"Mixed","Both","ball","12","F_knife.wav","space","436.175054288","135","210380.360689","202646.965563","203413.331449","204179.815129","204946.921785","205713.537171","206480.197386","207247.439458","211130.027096","211896.668761","198063.201042","198829.615777","199596.676985","200363.212605","201130.270721","201897.400256","211139.409462"
"Mixed","Both","ball","12","F_jolt.wav","None","733.968635323","135","210380.360689","202646.965563","203413.331449","204179.815129","204946.921785","205713.537171","206480.197386","207247.439458","211130.027096","211896.668761","212663.683903","198829.615777","199596.676985","200363.212605","201130.270721","201897.400256","211905.941372"
"Mixed","Both","ball","12","M_jolt.wav","None","732.003554236","135","210380.360689","202646.965563","203413.331449","204179.815129","204946.921785","205713.537171","206480.197386","207247.439458","211130.027096","211896.668761","212663.683903","213430.182731","199596.676985","200363.212605","201130.270721","201897.400256","212672.672696"
"Mixed","Both","ball","12","M_ball.wav","None","730.563133606","135","210380.360689","202646.965563","203413.331449","204179.815129","204946.921785","205713.537171","206480.197386","207247.439458","211130.027096","211896.668761","212663.683903","213430.182731","214196.570878","200363.212605","201130.270721","201897.400256","213439.052185"
"Mixed","Both","ball","12","M_done.wav","space","401.498915395","135","210380.360689","202646.965563","203413.331449","204179.815129","204946.921785","205713.537171","206480.197386","207247.439458","211130.027096","211896.668761","212663.683903","213430.182731","214196.570878","214963.223982","201130.270721","201897.400256","214206.034555"
"Mixed","Both","ball","12","M_jaw.wav","None","727.518123458","135","210380.360689","202646.965563","203413.331449","204179.815129","204946.921785","205713.537171","206480.197386","207247.439458","211130.027096","211896.668761","212663.683903","213430.182731","214196.570878","214963.223982","215729.930573","201897.400256","214972.644994"
"Mixed","Both","ball","12","M_depth.wav","None","726.317618508","135","210380.360689","202646.965563","203413.331449","204179.815129","204946.921785","205713.537171","206480.197386","207247.439458","211130.027096","211896.668761","212663.683903","213430.182731","214196.570878","214963.223982","215729.930573","216496.822665","215738.983982"
"Mixed","Both","ball","12","F_priest.wav","None","724.413752789","135","210380.360689","217263.45351","203413.331449","204179.815129","204946.921785","205713.537171","206480.197386","207247.439458","211130.027096","211896.668761","212663.683903","213430.182731","214196.570878","214963.223982","215729.930573","216496.822665","216505.920595"
"Mixed","Both","ball","12","F_ball.wav","None","722.366741858","135","210380.360689","217263.45351","218030.54378","204179.815129","204946.921785","205713.537171","206480.197386","207247.439458","211130.027096","211896.668761","212663.683903","213430.182731","214196.570878","214963.223982","215729.930573","216496.822665","217272.860609"
"Mixed","Both","ball","12","F_romp.wav","space","454.818900907","135","210380.360689","217263.45351","218030.54378","218779.917711","204946.921785","205713.537171","206480.197386","207247.439458","211130.027096","211896.668761","212663.683903","213430.182731","214196.570878","214963.223982","215729.930573","216496.822665","218040.580039"
"Mixed","Both","ball","12","M_ball.wav","None","735.657319077","135","210380.360689","217263.45351","218030.54378","218779.917711","219547.005817","205713.537171","206480.197386","207247.439458","211130.027096","211896.668761","212663.683903","213430.182731","214196.570878","214963.223982","215729.930573","216496.822665","218789.009458"
"Mixed","Both","ball","12","M_romp.wav","space","467.018109979","135","210380.360689","217263.45351","218030.54378","218779.917711","219547.005817","220312.97071","206480.197386","207247.439458","211130.027096","211896.668761","212663.683903","213430.182731","214196.570878","214963.223982","215729.930573","216496.822665","219556.341808"
"Mixed","Both","ball","12","F_bluff.wav","None","731.589267147","135","210380.360689","217263.45351","218030.54378","218779.917711","219547.005817","220312.97071","221079.526736","207247.439458","211130.027096","211896.668761","212663.683903","213430.182731","214196.570878","214963.223982","215729.930573","216496.822665","220322.571041"
"Mixed","Both","ball","12","F_knife.wav","None","730.079901754","135","210380.360689","217263.45351","218030.54378","218779.917711","219547.005817","220312.97071","221079.526736","221846.411408","211130.027096","211896.668761","212663.683903","213430.182731","214196.570878","214963.223982","215729.930573","216496.822665","221088.880658"
"Mixed","Both","cave","16","F_dime.wav","None","727.486279095","135","224979.770423","217263.45351","218030.54378","218779.917711","219547.005817","220312.97071","221079.526736","221846.411408","211130.027096","211896.668761","212663.683903","213430.182731","214196.570878","214963.223982","215729.930573","216496.822665","221856.354298"
"Mixed","Both","cave","16","M_jaw.wav","None","721.061428194","135","224979.770423","217263.45351","218030.54378","218779.917711","219547.005817","220312.97071","221079.526736","221846.411408","225729.468983","211896.668761","212663.683903","213430.182731","214196.570878","214963.223982","215729.930573","216496.822665","224989.641895"
"Mixed","Both","cave","16","M_knife.wav","None","736.714987783","135","224979.770423","217263.45351","218030.54378","218779.917711","219547.005817","220312.97071","221079.526736","221846.411408","225729.468983","226496.267088","212663.683903","213430.182731","214196.570878","214963.223982","215729.930573","216496.822665","225738.309684"
"Mixed","Both","cave","16","M_cave.wav","None","733.783442876","135","224979.770423","217263.45351","218030.54378","218779.917711","219547.005817","220312.97071","221079.526736","221846.411408","225729.468983","226496.267088","227262.804563","213430.182731","214196.570878","214963.223982","215729.930573","216496.822665","226505.604315"
"Mixed","Both","cave","16","M_priest.wav","space","382.833426935","135","224979.770423","217263.45351","218030.54378","218779.917711","219547.005817","220312.97071","221079.526736","221846.411408","225729.468983","226496.267088","227262.804563","228029.414074","214196.570878","214963.223982","215729.930573","216496.822665","227272.264839"
"Mixed","Both","cave","16","F_cad.wav","None","730.835202849","135","224979.770423","217263.45351","218030.54378","218779.917711","219547.005817","220312.97071","221079.526736","221846.411408","225729.468983","226496.267088","227262.804563","228029.414074","228796.137979","214963.223982","215729.930573","216496.822665","228038.327739"
"Mixed","Both","cave","16","M_depth.wav","None","727.653230657","135","224979.770423","217263.45351","218030.54378","218779.917711","219547.005817","220312.97071","221079.526736","221846.411408","225729.468983","226496.267088","227262.804563","228029.414074","228796.137979","229563.131169","215729.930573","216496.822665","228806.094781"
"Mixed","Both","cave","16","M_cave.wav","None","726.023907424","135","224979.770423","217263.45351","218030.54378","218779.917711","219547.005817","220312.97071","221079.526736","221846.411408","225729.468983","226496.267088","227262.804563","228029.414074","228796.137979","229563.131169","230329.391319","216496.822665","229572.60845"
"Mixed","Both","cave","16","F_cling.wav","space","412.368077319","135","224979.770423","217263.45351","218030.54378","218779.917711","219547.005817","220312.97071","221079.526736","221846.411408","225729.468983","226496.267088","227262.804563","228029.414074","228796.137979","229563.131169","230329.391319","231096.644831","230338.66764"
"Mixed","Both","cave","16","M_depth.wav","None","722.255749861","135","224979.770423","231863.178287","218030.54378","218779.917711","219547.005817","220312.97071","221079.526736","221846.411408","225729.468983","226496.267088","227262.804563","228029.414074","228796.137979","229563.131169","230329.391319","231096.644831","231105.993498"
"Mixed","Both","cave","16","F_cave.wav","None","721.175821032","135","224979.770423","231863.178287","232629.522531","218779.917711","219547.005817","220312.97071","221079.526736","221846.411408","225729.468983","226496.267088","227262.804563","228029.414074","228796.137979","229563.131169","230329.391319","231096.644831","231872.555706"
"Mixed","Both","cave","16","M_dime.wav","space","543.773759622","135","224979.770423","231863.178287","232629.522531","233378.792891","219547.005817","220312.97071","221079.526736","221846.411408","225729.468983","226496.267088","227262.804563","228029.414074","228796.137979","229563.131169","230329.391319","231096.644831","232639.200772"
"Mixed","Both","cave","16","F_cave.wav","None","735.252616229","135","224979.770423","231863.178287","232629.522531","233378.792891","234145.680037","220312.97071","221079.526736","221846.411408","225729.468983","226496.267088","227262.804563","228029.414074","228796.137979","229563.131169","230329.391319","231096.644831","233388.033967"
"Mixed","Both","cave","16","F_dime.wav","space","483.93524508","135","224979.770423","231863.178287","232629.522531","233378.792891","234145.680037","234912.741245","221079.526736","221846.411408","225729.468983","226496.267088","227262.804563","228029.414074","228796.137979","229563.131169","230329.391319","231096.644831","234155.013245"
"Mixed","Both","cave","16","F_greet.wav","None","729.879869032","135","224979.770423","231863.178287","232629.522531","233378.792891","234145.680037","234912.741245","235679.367452","221846.411408","225729.468983","226496.267088","227262.804563","228029.414074","228796.137979","229563.131169","230329.391319","231096.644831","234922.457205"
"Mixed","Both","cave","16","F_ball.wav","None","728.891145089","135","224979.770423","231863.178287","232629.522531","233378.792891","234145.680037","234912.741245","235679.367452","236445.924404","225729.468983","226496.267088","227262.804563","228029.414074","228796.137979","229563.131169","230329.391319","231096.644831","235688.490424"
"Mixed","Both","tile","28","M_ball.wav","None","727.150211809","135","239579.243846","231863.178287","232629.522531","233378.792891","234145.680037","234912.741245","235679.367452","236445.924404","225729.468983","226496.267088","227262.804563","228029.414074","228796.137979","229563.131169","230329.391319","231096.644831","236455.160224"
"Mixed","Both","tile","28","M_bluff.wav","None","721.864341409","135","239579.243846","231863.178287","232629.522531","233378.792891","234145.680037","234912.741245","235679.367452","236445.924404","240346.260843","226496.267088","227262.804563","228029.414074","228796.137979","229563.131169","230329.391319","231096.644831","239588.404228"
"Mixed","Both","tile","28","F_priest.wav","None","719.779302366","135","239579.243846","231863.178287","232629.522531","233378.792891","234145.680037","234912.741245","235679.367452","236445.924404","240346.260843","241095.78163","227262.804563","228029.414074","228796.137979","229563.131169","230329.391319","231096.644831","240355.589104"
"Mixed","Both","tile","28","M_jaw.wav","None","735.081954626","135","239579.243846","231863.178287","232629.522531","233378.792891","234145.680037","234912.741245","235679.367452","236445.924404","240346.260843","241095.78163","241862.354969","228029.414074","228796.137979","229563.131169","230329.391319","231096.644831","241105.235414"
"Mixed","Both","tile","28","F_tile.wav","None","733.482930227","135","239579.243846","231863.178287","232629.522531","233378.792891","234145.680037","234912.741245","235679.367452","236445.924404","240346.260843","241095.78163","241862.354969","242629.18399","228796.137979","229563.131169","230329.391319","231096.644831","241871.74661"
"Mixed","Both","tile","28","M_jaw.wav","space","520.559769822","135","239579.243846","231863.178287","232629.522531","233378.792891","234145.680037","234912.741245","235679.367452","236445.924404","240346.260843","241095.78163","241862.354969","242629.18399","243395.669525","229563.131169","230329.391319","231096.644831","242638.106003"
"Mixed","Both","tile","28","M_park.wav","None","729.643045343","135","239579.243846","231863.178287","232629.522531","233378.792891","234145.680037","234912.741245","235679.367452","236445.924404","240346.260843","241095.78163","241862.354969","242629.18399","243395.669525","244162.349527","230329.391319","231096.644831","243405.217915"
"Mixed","Both","tile","28","M_priest.wav","None","727.973530069","135","239579.243846","231863.178287","232629.522531","233378.792891","234145.680037","234912.741245","235679.367452","236445.924404","240346.260843","241095.78163","241862.354969","242629.18399","243395.669525","244162.349527","244929.004177","231096.644831","244171.820316"
"Mixed","Both","tile","28","F_ball.wav","None","726.910296362","135","239579.243846","231863.178287","232629.522531","233378.792891","234145.680037","234912.741245","235679.367452","236445.924404","240346.260843","241095.78163","241862.354969","242629.18399","243395.669525","244162.349527","244929.004177","245695.669649","244938.101798"
"Mixed","Both","tile","28","F_tile.wav","None","725.010140799","135","239579.243846","246462.7559","232629.522531","233378.792891","234145.680037","234912.741245","235679.367452","236445.924404","240346.260843","241095.78163","241862.354969","242629.18399","243395.669525","244162.349527","244929.004177","245695.669649","245705.01646"
"Mixed","Both","tile","28","F_greet.wav","space","461.694520782","135","239579.243846","246462.7559","247229.375923","233378.792891","234145.680037","234912.741245","235679.367452","236445.924404","240346.260843","241095.78163","241862.354969","242629.18399","243395.669525","244162.349527","244929.004177","245695.669649","246472.857394"
"Mixed","Both","tile","28","F_greet.wav","None","721.354211681","135","239579.243846","246462.7559","247229.375923","247995.870423","234145.680037","234912.741245","235679.367452","236445.924404","240346.260843","241095.78163","241862.354969","242629.18399","243395.669525","244162.349527","244929.004177","245695.669649","247239.051691"
"Mixed","Both","tile","28","M_tile.wav","None","720.599838183","135","239579.243846","246462.7559","247229.375923","247995.870423","248745.611958","234912.741245","235679.367452","236445.924404","240346.260843","241095.78163","241862.354969","242629.18399","243395.669525","244162.349527","244929.004177","245695.669649","248005.160038"
"Mixed","Both","tile","28","F_priest.wav","space","403.398452676","135","239579.243846","246462.7559","247229.375923","247995.870423","248745.611958","249512.115424","235679.367452","236445.924404","240346.260843","241095.78163","241862.354969","242629.18399","243395.669525","244162.349527","244929.004177","245695.669649","248755.069761"
"Mixed","Both","tile","28","M_tile.wav","None","733.745414997","135","239579.243846","246462.7559","247229.375923","247995.870423","248745.611958","249512.115424","250278.795735","236445.924404","240346.260843","241095.78163","241862.354969","242629.18399","243395.669525","244162.349527","244929.004177","245695.669649","249521.562097"
"Mixed","Both","tile","28","F_cling.wav","space","430.239927839","135","239579.243846","246462.7559","247229.375923","247995.870423","248745.611958","249512.115424","250278.795735","251045.44884","240346.260843","241095.78163","241862.354969","242629.18399","243395.669525","244162.349527","244929.004177","245695.669649","250288.102355"
"Mixed","Both","cave","15","M_dime.wav","None","730.777388089","135","254179.163091","246462.7559","247229.375923","247995.870423","248745.611958","249512.115424","250278.795735","251045.44884","240346.260843","241095.78163","241862.354969","242629.18399","243395.669525","244162.349527","244929.004177","245695.669649","251054.86676"
"Mixed","Both","cave","15","F_dime.wav","None","721.543114283","135","254179.163091","246462.7559","247229.375923","247995.870423","248745.611958","249512.115424","250278.795735","251045.44884","254945.559894","241095.78163","241862.354969","242629.18399","243395.669525","244162.349527","244929.004177","245695.669649","254188.467237"
"Mixed","Both","cave","15","F_reek.wav","space","467.061084462","135","254179.163091","246462.7559","247229.375923","247995.870423","248745.611958","249512.115424","250278.795735","251045.44884","254945.559894","255695.180543","241862.354969","242629.18399","243395.669525","244162.349527","244929.004177","245695.669649","254955.235352"
"Mixed","Both","cave","15","F_priest.wav","None","735.164193669","135","254179.163091","246462.7559","247229.375923","247995.870423","248745.611958","249512.115424","250278.795735","251045.44884","254945.559894","255695.180543","256461.469755","242629.18399","243395.669525","244162.349527","244929.004177","245695.669649","255704.497983"
"Mixed","Both","cave","15","M_priest.wav","None","734.622219694","135","254179.163091","246462.7559","247229.375923","247995.870423","248745.611958","249512.115424","250278.795735","251045.44884","254945.559894","255695.180543","256461.469755","257228.789119","243395.669525","244162.349527","244929.004177","245695.669649","256470.501213"
"Mixed","Both","cave","15","F_cave.wav","None","736.469507217","135","254179.163091","246462.7559","247229.375923","247995.870423","248745.611958","249512.115424","250278.795735","251045.44884","254945.559894","255695.180543","256461.469755","257228.789119","257995.314846","244162.349527","244929.004177","245695.669649","257233.357407"
"Mixed","Both","cave","15","F_dime.wav","space","385.435087956","135","254179.163091","246462.7559","247229.375923","247995.870423","248745.611958","249512.115424","250278.795735","251045.44884","254945.559894","255695.180543","256461.469755","257228.789119","257995.314846","258761.769773","244929.004177","245695.669649","258004.76492"
"Mixed","Both","cave","15","M_cave.wav","None","729.162905132","135","254179.163091","246462.7559","247229.375923","247995.870423","248745.611958","249512.115424","250278.795735","251045.44884","254945.559894","255695.180543","256461.469755","257228.789119","257995.314846","258761.769773","259527.908728","245695.669649","258770.725176"
"Mixed","Both","cave","15","M_depth.wav","space","413.478614064","135","254179.163091","246462.7559","247229.375923","247995.870423","248745.611958","249512.115424","250278.795735","251045.44884","254945.559894","255695.180543","256461.469755","257228.789119","257995.314846","258761.769773","259527.908728","260294.733731","259536.692233"
"Mixed","Both","cave","15","F_jolt.wav","None","727.825437905","135","254179.163091","261061.451761","247229.375923","247995.870423","248745.611958","249512.115424","250278.795735","251045.44884","254945.559894","255695.180543","256461.469755","257228.789119","257995.314846","258761.769773","259527.908728","260294.733731","260303.625754"
"Mixed","Both","cave","15","M_cave.wav","None","726.831767359","135","254179.163091","261061.451761","261827.992328","247995.870423","248745.611958","249512.115424","250278.795735","251045.44884","254945.559894","255695.180543","256461.469755","257228.789119","257995.314846","258761.769773","259527.908728","260294.733731","261070.679851"
"Mixed","Both","cave","15","M_park.wav","space","385.229181149","135","254179.163091","261061.451761","261827.992328","262594.946872","248745.611958","249512.115424","250278.795735","251045.44884","254945.559894","255695.180543","256461.469755","257228.789119","257995.314846","258761.769773","259527.908728","260294.733731","261836.835811"
"Mixed","Both","cave","15","M_romp.wav","None","723.081541597","135","254179.163091","261061.451761","261827.992328","262594.946872","263361.84453","249512.115424","250278.795735","251045.44884","254945.559894","255695.180543","256461.469755","257228.789119","257995.314846","258761.769773","259527.908728","260294.733731","262604.659431"
"Mixed","Both","cave","15","M_jaw.wav","None","722.226069658","135","254179.163091","261061.451761","261827.992328","262594.946872","263361.84453","264128.276269","250278.795735","251045.44884","254945.559894","255695.180543","256461.469755","257228.789119","257995.314846","258761.769773","259527.908728","260294.733731","263371.228442"
"Mixed","Both","cave","15","F_cave.wav","None","722.141357255","135","254179.163091","261061.451761","261827.992328","262594.946872","263361.84453","264128.276269","264894.993062","251045.44884","254945.559894","255695.180543","256461.469755","257228.789119","257995.314846","258761.769773","259527.908728","260294.733731","264137.111096"
"Mixed","Both","cave","15","F_done.wav","space","373.443949968","135","254179.163091","261061.451761","261827.992328","262594.946872","263361.84453","264128.276269","264894.993062","265644.607528","254945.559894","255695.180543","256461.469755","257228.789119","257995.314846","258761.769773","259527.908728","260294.733731","264904.582881"
"Mixed","Both","cave","17","M_ball.wav","None","736.56534974","135","268778.087119","261061.451761","261827.992328","262594.946872","263361.84453","264128.276269","264894.993062","265644.607528","254945.559894","255695.180543","256461.469755","257228.789119","257995.314846","258761.769773","259527.908728","260294.733731","265653.501406"
"Mixed","Both","cave","17","F_knife.wav","None","722.4492901","135","268778.087119","261061.451761","261827.992328","262594.946872","263361.84453","264128.276269","264894.993062","265644.607528","269544.683645","255695.180543","256461.469755","257228.789119","257995.314846","258761.769773","259527.908728","260294.733731","268786.985326"
"Mixed","Both","cave","17","F_cave.wav","None","721.385437879","135","268778.087119","261061.451761","261827.992328","262594.946872","263361.84453","264128.276269","264894.993062","265644.607528","269544.683645","270294.365201","256461.469755","257228.789119","257995.314846","258761.769773","259527.908728","260294.733731","269553.567012"
"Mixed","Both","cave","17","M_cad.wav","space","382.594438968","135","268778.087119","261061.451761","261827.992328","262594.946872","263361.84453","264128.276269","264894.993062","265644.607528","269544.683645","270294.365201","271060.988316","257228.789119","257995.314846","258761.769773","259527.908728","260294.733731","270303.220124"
"Mixed","Both","cave","17","M_cave.wav","None","735.64062384","135","268778.087119","261061.451761","261827.992328","262594.946872","263361.84453","264128.276269","264894.993062","265644.607528","269544.683645","270294.365201","271060.988316","271827.552998","257995.314846","258761.769773","259527.908728","260294.733731","271069.720498"
"Mixed","Both","cave","17","M_knife.wav","space","537.576457602","135","268778.087119","261061.451761","261827.992328","262594.946872","263361.84453","264128.276269","264894.993062","265644.607528","269544.683645","270294.365201","271060.988316","271827.552998","272594.141486","258761.769773","259527.908728","260294.733731","271836.226438"
"Mixed","Both","cave","17","F_jolt.wav","None","733.261873946","135","268778.087119","261061.451761","261827.992328","262594.946872","263361.84453","264128.276269","264894.993062","265644.607528","269544.683645","270294.365201","271060.988316","271827.552998","272594.141486","273360.862607","259527.908728","260294.733731","272602.922208"
"Mixed","Both","cave","17","M_cave.wav","None","732.16865072","135","268778.087119","261061.451761","261827.992328","262594.946872","263361.84453","264128.276269","264894.993062","265644.607528","269544.683645","270294.365201","271060.988316","271827.552998","272594.141486","273360.862607","274127.72873","260294.733731","273369.705473"
"Mixed","Both","cave","17","F_romp.wav","space","300.93350634","135","268778.087119","261061.451761","261827.992328","262594.946872","263361.84453","264128.276269","264894.993062","265644.607528","269544.683645","270294.365201","271060.988316","271827.552998","272594.141486","273360.862607","274127.72873","274894.278881","274136.819858"
"Mixed","Both","cave","17","F_cave.wav","None","729.068917572","135","268778.087119","275660.905706","261827.992328","262594.946872","263361.84453","264128.276269","264894.993062","265644.607528","269544.683645","270294.365201","271060.988316","271827.552998","272594.141486","273360.862607","274127.72873","274894.278881","274903.181107"
"Mixed","Both","cave","17","M_priest.wav","space","487.896324368","135","268778.087119","275660.905706","276427.371453","262594.946872","263361.84453","264128.276269","264894.993062","265644.607528","269544.683645","270294.365201","271060.988316","271827.552998","272594.141486","273360.862607","274127.72873","274894.278881","275669.818443"
"Mixed","Both","cave","17","M_gnash.wav","None","726.975840284","135","268778.087119","275660.905706","276427.371453","277194.229228","263361.84453","264128.276269","264894.993062","265644.607528","269544.683645","270294.365201","271060.988316","271827.552998","272594.141486","273360.862607","274127.72873","274894.278881","276436.239671"
"Mixed","Both","cave","17","F_reek.wav","None","725.844279979","135","268778.087119","275660.905706","276427.371453","277194.229228","277960.691266","264128.276269","264894.993062","265644.607528","269544.683645","270294.365201","271060.988316","271827.552998","272594.141486","273360.862607","274127.72873","274894.278881","277203.202563"
"Mixed","Both","cave","17","M_lash.wav","None","725.253457087","135","268778.087119","275660.905706","276427.371453","277194.229228","277960.691266","278727.708572","264894.993062","265644.607528","269544.683645","270294.365201","271060.988316","271827.552998","272594.141486","273360.862607","274127.72873","274894.278881","277969.509088"
"Mixed","Both","cave","17","F_bluff.wav","None","723.74069097","135","268778.087119","275660.905706","276427.371453","277194.229228","277960.691266","278727.708572","279494.184213","265644.607528","269544.683645","270294.365201","271060.988316","271827.552998","272594.141486","273360.862607","274127.72873","274894.278881","278736.623474"
"Mixed","Both","cave","17","F_reek.wav","None","715.426505543","135","268778.087119","275660.905706","276427.371453","277194.229228","277960.691266","278727.708572","279494.184213","280261.187916","269544.683645","270294.365201","271060.988316","271827.552998","272594.141486","273360.862607","274127.72873","274894.278881","279510.792179"
"Mixed","Both","tile","25","F_ball.wav","None","721.250330796","135","283394.437485","275660.905706","276427.371453","277194.229228","277960.691266","278727.708572","279494.184213","280261.187916","269544.683645","270294.365201","271060.988316","271827.552998","272594.141486","273360.862607","274127.72873","274894.278881","280270.938812"
"Mixed","Both","tile","25","F_jaw.wav","None","722.351901699","135","283394.437485","275660.905706","276427.371453","277194.229228","277960.691266","278727.708572","279494.184213","280261.187916","284161.14253","270294.365201","271060.988316","271827.552998","272594.141486","273360.862607","274127.72873","274894.278881","283403.867772"
"Mixed","Both","tile","25","M_tile.wav","None","720.869743149","135","283394.437485","275660.905706","276427.371453","277194.229228","277960.691266","278727.708572","279494.184213","280261.187916","284161.14253","284927.457403","271060.988316","271827.552998","272594.141486","273360.862607","274127.72873","274894.278881","284171.020803"
"Mixed","Both","tile","25","M_reek.wav","space","340.95827688","135","283394.437485","275660.905706","276427.371453","277194.229228","277960.691266","278727.708572","279494.184213","280261.187916","284161.14253","284927.457403","285677.094747","271827.552998","272594.141486","273360.862607","274127.72873","274894.278881","284936.439394"
"Mixed","Both","tile","25","F_tile.wav","None","736.427460215","135","283394.437485","275660.905706","276427.371453","277194.229228","277960.691266","278727.708572","279494.184213","280261.187916","284161.14253","284927.457403","285677.094747","286443.890069","272594.141486","273360.862607","274127.72873","274894.278881","285686.177218"
"Mixed","Both","tile","25","M_jolt.wav","space","391.57797629","135","283394.437485","275660.905706","276427.371453","277194.229228","277960.691266","278727.708572","279494.184213","280261.187916","284161.14253","284927.457403","285677.094747","286443.890069","287210.369111","273360.862607","274127.72873","274894.278881","286453.797405"
"Mixed","Both","tile","25","F_bluff.wav","None","733.407801948","135","283394.437485","275660.905706","276427.371453","277194.229228","277960.691266","278727.708572","279494.184213","280261.187916","284161.14253","284927.457403","285677.094747","286443.890069","287210.369111","287977.195969","274127.72873","274894.278881","287219.507233"
"Mixed","Both","tile","25","M_jolt.wav","None","732.654355932","135","283394.437485","275660.905706","276427.371453","277194.229228","277960.691266","278727.708572","279494.184213","280261.187916","284161.14253","284927.457403","285677.094747","286443.890069","287210.369111","287977.195969","288743.903487","274894.278881","287986.104687"
"Mixed","Both","tile","25","F_cling.wav","None","731.949140318","135","283394.437485","275660.905706","276427.371453","277194.229228","277960.691266","278727.708572","279494.184213","280261.187916","284161.14253","284927.457403","285677.094747","286443.890069","287210.369111","287977.195969","288743.903487","289510.464459","288752.969264"
"Mixed","Both","tile","25","F_ball.wav","None","731.427262304","135","283394.437485","290277.088811","276427.371453","277194.229228","277960.691266","278727.708572","279494.184213","280261.187916","284161.14253","284927.457403","285677.094747","286443.890069","287210.369111","287977.195969","288743.903487","289510.464459","289519.494063"
"Mixed","Both","tile","25","F_cad.wav","None","730.929499376","135","283394.437485","290277.088811","291043.735423","277194.229228","277960.691266","278727.708572","279494.184213","280261.187916","284161.14253","284927.457403","285677.094747","286443.890069","287210.369111","287977.195969","288743.903487","289510.464459","290286.077295"
"Mixed","Both","tile","25","M_priest.wav","None","732.417222927","135","283394.437485","290277.088811","291043.735423","291810.352045","277960.691266","278727.708572","279494.184213","280261.187916","284161.14253","284927.457403","285677.094747","286443.890069","287210.369111","287977.195969","288743.903487","289510.464459","291052.980517"
"Mixed","Both","tile","25","F_tile.wav","None","731.522486545","135","283394.437485","290277.088811","291043.735423","291810.352045","292576.796769","278727.708572","279494.184213","280261.187916","284161.14253","284927.457403","285677.094747","286443.890069","287210.369111","287977.195969","288743.903487","289510.464459","291819.365263"
"Mixed","Both","tile","25","M_cling.wav","space","499.171425821","135","283394.437485","290277.088811","291043.735423","291810.352045","292576.796769","293343.62239","279494.184213","280261.187916","284161.14253","284927.457403","285677.094747","286443.890069","287210.369111","287977.195969","288743.903487","289510.464459","292586.014966"
"Mixed","Both","tile","25","M_tile.wav","None","729.465581942","135","283394.437485","290277.088811","291043.735423","291810.352045","292576.796769","293343.62239","294110.42977","280261.187916","284161.14253","284927.457403","285677.094747","286443.890069","287210.369111","287977.195969","288743.903487","289510.464459","293352.704553"
"Mixed","Both","tile","25","M_jolt.wav","None","728.108328069","135","283394.437485","290277.088811","291043.735423","291810.352045","292576.796769","293343.62239","294110.42977","294876.834302","284161.14253","284927.457403","285677.094747","286443.890069","287210.369111","287977.195969","288743.903487","289510.464459","294119.738554"
"Mixed","Both","done","43","M_jaw.wav","space","0.0247335992754","135","298010.439725","290277.088811","291043.735423","291810.352045","292576.796769","293343.62239","294110.42977","294876.834302","284161.14253","284927.457403","285677.094747","286443.890069","287210.369111","287977.195969","288743.903487","289510.464459","294885.965932"
"Mixed","Both","done","43","F_done.wav","None","721.55022528","135","298010.439725","290277.088811","291043.735423","291810.352045","292576.796769","293343.62239","294110.42977","294876.834302","298777.244323","284927.457403","285677.094747","286443.890069","287210.369111","287977.195969","288743.903487","289510.464459","298019.585268"
"Mixed","Both","done","43","M_park.wav","space","385.731272399","135","298010.439725","290277.088811","291043.735423","291810.352045","292576.796769","293343.62239","294110.42977","294876.834302","298777.244323","299527.019866","285677.094747","286443.890069","287210.369111","287977.195969","288743.903487","289510.464459","298787.253994"
"Mixed","Both","done","43","M_done.wav","None","736.08644621","135","298010.439725","290277.088811","291043.735423","291810.352045","292576.796769","293343.62239","294110.42977","294876.834302","298777.244323","299527.019866","300293.235186","286443.890069","287210.369111","287977.195969","288743.903487","289510.464459","299536.102956"
"Mixed","Both","done","43","M_jolt.wav","space","518.380125053","135","298010.439725","290277.088811","291043.735423","291810.352045","292576.796769","293343.62239","294110.42977","294876.834302","298777.244323","299527.019866","300293.235186","301060.117076","287210.369111","287977.195969","288743.903487","289510.464459","300302.511198"
"Mixed","Both","done","43","F_greet.wav","None","733.690073714","135","298010.439725","290277.088811","291043.735423","291810.352045","292576.796769","293343.62239","294110.42977","294876.834302","298777.244323","299527.019866","300293.235186","301060.117076","301826.648986","287977.195969","288743.903487","289510.464459","301069.31425"
"Mixed","Both","done","43","M_cling.wav","None","733.219208661","135","298010.439725","290277.088811","291043.735423","291810.352045","292576.796769","293343.62239","294110.42977","294876.834302","298777.244323","299527.019866","300293.235186","301060.117076","301826.648986","302593.438125","288743.903487","289510.464459","301835.773814"
"Mixed","Both","done","43","F_done.wav","None","732.044055359","135","298010.439725","290277.088811","291043.735423","291810.352045","292576.796769","293343.62239","294110.42977","294876.834302","298777.244323","299527.019866","300293.235186","301060.117076","301826.648986","302593.438125","303360.16203","289510.464459","302602.524616"
"Mixed","Both","done","43","M_jaw.wav","space","299.524002592","135","298010.439725","290277.088811","291043.735423","291810.352045","292576.796769","293343.62239","294110.42977","294876.834302","298777.244323","299527.019866","300293.235186","301060.117076","301826.648986","302593.438125","303360.16203","304126.66024","303369.347764"
"Mixed","Both","done","43","F_cad.wav","None","729.3647927","135","298010.439725","304893.532855","291043.735423","291810.352045","292576.796769","293343.62239","294110.42977","294876.834302","298777.244323","299527.019866","300293.235186","301060.117076","301826.648986","302593.438125","303360.16203","304126.66024","304135.913064"
"Mixed","Both","done","43","F_depth.wav","None","729.170634295","135","298010.439725","304893.532855","305660.065383","291810.352045","292576.796769","293343.62239","294110.42977","294876.834302","298777.244323","299527.019866","300293.235186","301060.117076","301826.648986","302593.438125","303360.16203","304126.66024","304902.730337"
"Mixed","Both","done","43","F_bluff.wav","None","728.546730359","135","298010.439725","304893.532855","305660.065383","306426.50547","292576.796769","293343.62239","294110.42977","294876.834302","298777.244323","299527.019866","300293.235186","301060.117076","301826.648986","302593.438125","303360.16203","304126.66024","305669.17197"
"Mixed","Both","done","43","M_ball.wav","None","729.318108177","135","298010.439725","304893.532855","305660.065383","306426.50547","307193.398799","293343.62239","294110.42977","294876.834302","298777.244323","299527.019866","300293.235186","301060.117076","301826.648986","302593.438125","303360.16203","304126.66024","306435.481896"
"Mixed","Both","done","43","M_done.wav","None","728.085140348","135","298010.439725","304893.532855","305660.065383","306426.50547","307193.398799","307960.382715","294110.42977","294876.834302","298777.244323","299527.019866","300293.235186","301060.117076","301826.648986","302593.438125","303360.16203","304126.66024","307202.749011"
"Mixed","Both","done","43","F_cling.wav","space","410.232025431","135","298010.439725","304893.532855","305660.065383","306426.50547","307193.398799","307960.382715","308727.045094","294876.834302","298777.244323","299527.019866","300293.235186","301060.117076","301826.648986","302593.438125","303360.16203","304126.66024","307970.499667"
"Mixed","Both","done","43","F_priest.wav","None","724.696333753","135","298010.439725","304893.532855","305660.065383","306426.50547","307193.398799","307960.382715","308727.045094","309493.77951","298777.244323","299527.019866","300293.235186","301060.117076","301826.648986","302593.438125","303360.16203","304126.66024","308736.450339"
"Mixed","Both","tile","31","M_dime.wav","None","722.466294421","135","312627.375658","304893.532855","305660.065383","306426.50547","307193.398799","307960.382715","308727.045094","309493.77951","298777.244323","299527.019866","300293.235186","301060.117076","301826.648986","302593.438125","303360.16203","304126.66024","309503.953968"
"Mixed","Both","tile","31","M_priest.wav","None","721.365032601","135","312627.375658","304893.532855","305660.065383","306426.50547","307193.398799","307960.382715","308727.045094","309493.77951","313393.960436","299527.019866","300293.235186","301060.117076","301826.648986","302593.438125","303360.16203","304126.66024","312637.31051"
"Mixed","Both","tile","31","F_knife.wav","None","720.336116618","135","312627.375658","304893.532855","305660.065383","306426.50547","307193.398799","307960.382715","308727.045094","309493.77951","313393.960436","314160.558818","300293.235186","301060.117076","301826.648986","302593.438125","303360.16203","304126.66024","313403.898998"
"Mixed","Both","tile","31","M_knife.wav","None","718.610332697","135","312627.375658","304893.532855","305660.065383","306426.50547","307193.398799","307960.382715","308727.045094","309493.77951","313393.960436","314160.558818","314910.112068","301060.117076","301826.648986","302593.438125","303360.16203","304126.66024","314170.663713"
"Mixed","Both","tile","31","F_tile.wav","None","735.302083311","135","312627.375658","304893.532855","305660.065383","306426.50547","307193.398799","307960.382715","308727.045094","309493.77951","313393.960436","314160.558818","314910.112068","315676.694682","301826.648986","302593.438125","303360.16203","304126.66024","314919.722601"
"Mixed","Both","tile","31","M_dime.wav","space","509.950001026","135","312627.375658","304893.532855","305660.065383","306426.50547","307193.398799","307960.382715","308727.045094","309493.77951","313393.960436","314160.558818","314910.112068","315676.694682","316443.575335","302593.438125","303360.16203","304126.66024","315686.552241"
"Mixed","Both","tile","31","F_tile.wav","None","732.053021318","135","312627.375658","304893.532855","305660.065383","306426.50547","307193.398799","307960.382715","308727.045094","309493.77951","313393.960436","314160.558818","314910.112068","315676.694682","316443.575335","317210.079729","303360.16203","304126.66024","316453.156497"
"Mixed","Both","tile","31","M_cave.wav","space","560.492098914","135","312627.375658","304893.532855","305660.065383","306426.50547","307193.398799","307960.382715","308727.045094","309493.77951","313393.960436","314160.558818","314910.112068","315676.694682","316443.575335","317210.079729","317976.762822","304126.66024","317219.901424"
"Mixed","Both","tile","31","F_depth.wav","None","728.531271918","135","312627.375658","304893.532855","305660.065383","306426.50547","307193.398799","307960.382715","308727.045094","309493.77951","313393.960436","314160.558818","314910.112068","315676.694682","316443.575335","317210.079729","317976.762822","318743.508369","317986.632749"
"Mixed","Both","tile","31","F_done.wav","None","727.623241139","135","312627.375658","319510.089437","305660.065383","306426.50547","307193.398799","307960.382715","308727.045094","309493.77951","313393.960436","314160.558818","314910.112068","315676.694682","316443.575335","317210.079729","317976.762822","318743.508369","318753.007291"
"Mixed","Both","tile","31","M_tile.wav","None","726.089760545","135","312627.375658","319510.089437","320276.446975","306426.50547","307193.398799","307960.382715","308727.045094","309493.77951","313393.960436","314160.558818","314910.112068","315676.694682","316443.575335","317210.079729","317976.762822","318743.508369","319519.928446"
"Mixed","Both","tile","31","M_cave.wav","space","366.731571616","135","312627.375658","319510.089437","320276.446975","321043.738824","307193.398799","307960.382715","308727.045094","309493.77951","313393.960436","314160.558818","314910.112068","315676.694682","316443.575335","317210.079729","317976.762822","318743.508369","320285.644767"
"Mixed","Both","tile","31","F_greet.wav","None","721.504468122","135","312627.375658","319510.089437","320276.446975","321043.738824","321810.637099","307960.382715","308727.045094","309493.77951","313393.960436","314160.558818","314910.112068","315676.694682","316443.575335","317210.079729","317976.762822","318743.508369","321054.618806"
"Mixed","Both","tile","31","M_tile.wav","None","721.336279879","135","312627.375658","319510.089437","320276.446975","321043.738824","321810.637099","322577.033284","308727.045094","309493.77951","313393.960436","314160.558818","314910.112068","315676.694682","316443.575335","317210.079729","317976.762822","318743.508369","321820.493422"
"Mixed","Both","tile","31","F_cling.wav","space","377.375349053","135","312627.375658","319510.089437","320276.446975","321043.738824","321810.637099","322577.033284","323344.298544","309493.77951","313393.960436","314160.558818","314910.112068","315676.694682","316443.575335","317210.079729","317976.762822","318743.508369","322586.857144"
"Mixed","Both","tile","31","F_jaw.wav","None","718.150288565","135","312627.375658","319510.089437","320276.446975","321043.738824","321810.637099","322577.033284","323344.298544","324093.47739","313393.960436","314160.558818","314910.112068","315676.694682","316443.575335","317210.079729","317976.762822","318743.508369","323354.002755"
"Mixed","Both","ball","7","M_tile.wav","None","734.198348364","135","327226.997791","319510.089437","320276.446975","321043.738824","321810.637099","322577.033284","323344.298544","324093.47739","313393.960436","314160.558818","314910.112068","315676.694682","316443.575335","317210.079729","317976.762822","318743.508369","324103.555387"
"Mixed","Both","ball","7","M_ball.wav","None","720.696917502","135","327226.997791","319510.089437","320276.446975","321043.738824","321810.637099","322577.033284","323344.298544","324093.47739","327993.55258","314160.558818","314910.112068","315676.694682","316443.575335","317210.079729","317976.762822","318743.508369","327237.421749"
"Mixed","Both","ball","7","M_knife.wav","space","415.688248351","135","327226.997791","319510.089437","320276.446975","321043.738824","321810.637099","322577.033284","323344.298544","324093.47739","327993.55258","328743.097173","314910.112068","315676.694682","316443.575335","317210.079729","317976.762822","318743.508369","328004.392989"
"Mixed","Both","ball","7","M_lash.wav","None","735.540762078","135","327226.997791","319510.089437","320276.446975","321043.738824","321810.637099","322577.033284","323344.298544","324093.47739","327993.55258","328743.097173","329509.624136","315676.694682","316443.575335","317210.079729","317976.762822","318743.508369","328752.364528"
"Mixed","Both","ball","7","F_ball.wav","None","734.499479295","135","327226.997791","319510.089437","320276.446975","321043.738824","321810.637099","322577.033284","323344.298544","324093.47739","327993.55258","328743.097173","329509.624136","330275.851515","316443.575335","317210.079729","317976.762822","318743.508369","329518.978368"
"Mixed","Both","ball","7","M_gnash.wav","space","358.94513852","135","327226.997791","319510.089437","320276.446975","321043.738824","321810.637099","322577.033284","323344.298544","324093.47739","327993.55258","328743.097173","329509.624136","330275.851515","331043.045047","317210.079729","317976.762822","318743.508369","330285.104957"
"Mixed","Both","ball","7","M_jolt.wav","None","731.406238861","135","327226.997791","319510.089437","320276.446975","321043.738824","321810.637099","322577.033284","323344.298544","324093.47739","327993.55258","328743.097173","329509.624136","330275.851515","331043.045047","331809.675582","317976.762822","318743.508369","331053.021019"
"Mixed","Both","ball","7","F_romp.wav","None","730.221501319","135","327226.997791","319510.089437","320276.446975","321043.738824","321810.637099","322577.033284","323344.298544","324093.47739","327993.55258","328743.097173","329509.624136","330275.851515","331043.045047","331809.675582","332576.473069","318743.508369","331819.421841"
"Mixed","Both","ball","7","F_ball.wav","None","729.217937216","135","327226.997791","319510.089437","320276.446975","321043.738824","321810.637099","322577.033284","323344.298544","324093.47739","327993.55258","328743.097173","329509.624136","330275.851515","331043.045047","331809.675582","332576.473069","333342.955512","332585.645509"
"Mixed","Both","ball","7","F_done.wav","space","371.321810875","135","327226.997791","334109.232048","320276.446975","321043.738824","321810.637099","322577.033284","323344.298544","324093.47739","327993.55258","328743.097173","329509.624136","330275.851515","331043.045047","331809.675582","332576.473069","333342.955512","333352.62355"
"Mixed","Both","ball","7","F_cling.wav","None","726.390582393","135","327226.997791","334109.232048","334875.935238","321043.738824","321810.637099","322577.033284","323344.298544","324093.47739","327993.55258","328743.097173","329509.624136","330275.851515","331043.045047","331809.675582","332576.473069","333342.955512","334118.736536"
"Mixed","Both","ball","7","F_jaw.wav","None","725.967947743","135","327226.997791","334109.232048","334875.935238","335643.274698","321810.637099","322577.033284","323344.298544","324093.47739","327993.55258","328743.097173","329509.624136","330275.851515","331043.045047","331809.675582","332576.473069","333342.955512","334885.050172"
"Mixed","Both","ball","7","M_done.wav","None","723.116168519","135","327226.997791","334109.232048","334875.935238","335643.274698","336409.847109","322577.033284","323344.298544","324093.47739","327993.55258","328743.097173","329509.624136","330275.851515","331043.045047","331809.675582","332576.473069","333342.955512","335653.322706"
"Mixed","Both","ball","7","F_done.wav","None","721.800961648","135","327226.997791","334109.232048","334875.935238","335643.274698","336409.847109","337176.362324","323344.298544","324093.47739","327993.55258","328743.097173","329509.624136","330275.851515","331043.045047","331809.675582","332576.473069","333342.955512","336419.904702"
"Mixed","Both","ball","7","M_ball.wav","None","720.498430659","135","327226.997791","334109.232048","334875.935238","335643.274698","336409.847109","337176.362324","337943.540708","324093.47739","327993.55258","328743.097173","329509.624136","330275.851515","331043.045047","331809.675582","332576.473069","333342.955512","337186.91366"
"Mixed","Both","ball","7","F_priest.wav","space","402.708077221","135","327226.997791","334109.232048","334875.935238","335643.274698","336409.847109","337176.362324","337943.540708","338692.578263","327993.55258","328743.097173","329509.624136","330275.851515","331043.045047","331809.675582","332576.473069","333342.955512","337953.100846"
"Mixed","Both","ball","8","F_gnash.wav","None","735.469653155","135","341826.520372","334109.232048","334875.935238","335643.274698","336409.847109","337176.362324","337943.540708","338692.578263","327993.55258","328743.097173","329509.624136","330275.851515","331043.045047","331809.675582","332576.473069","333342.955512","338702.152623"
"Mixed","Both","ball","8","F_jaw.wav","None","721.312164678","135","341826.520372","334109.232048","334875.935238","335643.274698","336409.847109","337176.362324","337943.540708","338692.578263","342592.695191","328743.097173","329509.624136","330275.851515","331043.045047","331809.675582","332576.473069","333342.955512","341836.20356"
"Mixed","Both","ball","8","M_done.wav","None","721.231780713","135","341826.520372","334109.232048","334875.935238","335643.274698","336409.847109","337176.362324","337943.540708","338692.578263","342592.695191","343359.683435","329509.624136","330275.851515","331043.045047","331809.675582","332576.473069","333342.955512","342602.067045"
"Mixed","Both","ball","8","F_jaw.wav","None","719.659653958","135","341826.520372","334109.232048","334875.935238","335643.274698","336409.847109","337176.362324","337943.540708","338692.578263","342592.695191","343359.683435","344109.701367","330275.851515","331043.045047","331809.675582","332576.473069","333342.955512","343369.274181"
"Mixed","Both","ball","8","M_tile.wav","None","734.851932502","135","341826.520372","334109.232048","334875.935238","335643.274698","336409.847109","337176.362324","337943.540708","338692.578263","342592.695191","343359.683435","344109.701367","344875.413359","331043.045047","331809.675582","332576.473069","333342.955512","344119.737626"
"Mixed","Both","ball","8","M_ball.wav","None","735.785624362","135","341826.520372","334109.232048","334875.935238","335643.274698","336409.847109","337176.362324","337943.540708","338692.578263","342592.695191","343359.683435","344109.701367","344875.413359","345642.629462","331809.675582","332576.473069","333342.955512","344884.456567"
"Mixed","Both","ball","8","M_romp.wav","space","327.479106374","135","341826.520372","334109.232048","334875.935238","335643.274698","336409.847109","337176.362324","337943.540708","338692.578263","342592.695191","343359.683435","344109.701367","344875.413359","345642.629462","346409.241137","332576.473069","333342.955512","345652.110762"
"Mixed","Both","ball","8","M_ball.wav","None","731.520631467","135","341826.520372","334109.232048","334875.935238","335643.274698","336409.847109","337176.362324","337943.540708","338692.578263","342592.695191","343359.683435","344109.701367","344875.413359","345642.629462","346409.241137","347175.851576","333342.955512","346418.783962"
"Mixed","Both","ball","8","M_cling.wav","space","378.214744153","135","341826.520372","334109.232048","334875.935238","335643.274698","336409.847109","337176.362324","337943.540708","338692.578263","342592.695191","343359.683435","344109.701367","344875.413359","345642.629462","346409.241137","347175.851576","347942.601451","347185.369359"
"Mixed","Both","ball","8","F_ball.wav","None","728.55971544","135","341826.520372","348709.790655","334875.935238","335643.274698","336409.847109","337176.362324","337943.540708","338692.578263","342592.695191","343359.683435","344109.701367","344875.413359","345642.629462","346409.241137","347175.851576","347942.601451","347952.233007"
"Mixed","Both","ball","8","F_greet.wav","space","443.521848414","135","341826.520372","348709.790655","349475.588288","335643.274698","336409.847109","337176.362324","337943.540708","338692.578263","342592.695191","343359.683435","344109.701367","344875.413359","345642.629462","346409.241137","347175.851576","347942.601451","348719.964804"
"Mixed","Both","ball","8","F_ball.wav","None","731.112836977","135","341826.520372","348709.790655","349475.588288","350242.165336","336409.847109","337176.362324","337943.540708","338692.578263","342592.695191","343359.683435","344109.701367","344875.413359","345642.629462","346409.241137","347175.851576","347942.601451","349479.771351"
"Mixed","Both","ball","8","M_greet.wav","space","423.982646898","135","341826.520372","348709.790655","349475.588288","350242.165336","351009.28776","337176.362324","337943.540708","338692.578263","342592.695191","343359.683435","344109.701367","344875.413359","345642.629462","346409.241137","347175.851576","347942.601451","350251.478758"
"Mixed","Both","ball","8","F_lash.wav","None","722.36117674","135","341826.520372","348709.790655","349475.588288","350242.165336","351009.28776","351776.25529","337943.540708","338692.578263","342592.695191","343359.683435","344109.701367","344875.413359","345642.629462","346409.241137","347175.851576","347942.601451","351019.018869"
"Mixed","Both","ball","8","M_done.wav","None","721.311855596","135","341826.520372","348709.790655","349475.588288","350242.165336","351009.28776","351776.25529","352542.764321","338692.578263","342592.695191","343359.683435","344109.701367","344875.413359","345642.629462","346409.241137","347175.851576","347942.601451","351785.914672"
"Mixed","Both","ball","8","F_romp.wav","None","720.398568898","135","341826.520372","348709.790655","349475.588288","350242.165336","351009.28776","351776.25529","352542.764321","353309.261604","342592.695191","343359.683435","344109.701367","344875.413359","345642.629462","346409.241137","347175.851576","347942.601451","352552.674749"
"Mixed","Both","cave","21","F_cling.wav","None","719.117370667","135","356426.093038","348709.790655","349475.588288","350242.165336","351009.28776","351776.25529","352542.764321","353309.261604","342592.695191","343359.683435","344109.701367","344875.413359","345642.629462","346409.241137","347175.851576","347942.601451","353319.569314"
"Mixed","Both","cave","21","F_bluff.wav","None","721.039168071","135","356426.093038","348709.790655","349475.588288","350242.165336","351009.28776","351776.25529","352542.764321","353309.261604","357192.692347","343359.683435","344109.701367","344875.413359","345642.629462","346409.241137","347175.851576","347942.601451","356436.032836"
"Mixed","Both","cave","21","M_cave.wav","None","720.055081649","135","356426.093038","348709.790655","349475.588288","350242.165336","351009.28776","351776.25529","352542.764321","353309.261604","357192.692347","357959.598352","344109.701367","344875.413359","345642.629462","346409.241137","347175.851576","347942.601451","357202.755504"
"Mixed","Both","cave","21","F_priest.wav","space","353.499736637","135","356426.093038","348709.790655","349475.588288","350242.165336","351009.28776","351776.25529","352542.764321","353309.261604","357192.692347","357959.598352","358708.759884","344875.413359","345642.629462","346409.241137","347175.851576","347942.601451","357969.711594"
"Mixed","Both","cave","21","F_done.wav","None","734.889651299","135","356426.093038","348709.790655","349475.588288","350242.165336","351009.28776","351776.25529","352542.764321","353309.261604","357192.692347","357959.598352","358708.759884","359476.263514","345642.629462","346409.241137","347175.851576","347942.601451","358718.335172"
"Mixed","Both","cave","21","F_cling.wav","None","738.304428058","135","356426.093038","348709.790655","349475.588288","350242.165336","351009.28776","351776.25529","352542.764321","353309.261604","357192.692347","357959.598352","358708.759884","359476.263514","360242.468632","346409.241137","347175.851576","347942.601451","359480.432973"
"Mixed","Both","cave","21","F_cad.wav","None","732.045601238","135","356426.093038","348709.790655","349475.588288","350242.165336","351009.28776","351776.25529","352542.764321","353309.261604","357192.692347","357959.598352","358708.759884","359476.263514","360242.468632","361008.833899","347175.851576","347942.601451","360252.264048"
"Mixed","Both","cave","21","M_jolt.wav","None","731.631932547","135","356426.093038","348709.790655","349475.588288","350242.165336","351009.28776","351776.25529","352542.764321","353309.261604","357192.692347","357959.598352","358708.759884","359476.263514","360242.468632","361008.833899","361775.641898","347942.601451","361018.414443"
"Mixed","Both","cave","21","M_bluff.wav","None","730.258910917","135","356426.093038","348709.790655","349475.588288","350242.165336","351009.28776","351776.25529","352542.764321","353309.261604","357192.692347","357959.598352","358708.759884","359476.263514","360242.468632","361008.833899","361775.641898","362542.119394","361785.385064"
"Mixed","Both","cave","21","F_cave.wav","None","729.662522906","135","356426.093038","363308.713138","349475.588288","350242.165336","351009.28776","351776.25529","352542.764321","353309.261604","357192.692347","357959.598352","358708.759884","359476.263514","360242.468632","361008.833899","361775.641898","362542.119394","362551.303891"
"Mixed","Both","cave","21","M_tile.wav","space","348.749656812","135","356426.093038","363308.713138","364075.575241","350242.165336","351009.28776","351776.25529","352542.764321","353309.261604","357192.692347","357959.598352","358708.759884","359476.263514","360242.468632","361008.833899","361775.641898","362542.119394","363318.269566"
"Mixed","Both","cave","21","M_jaw.wav","None","726.153140306","135","356426.093038","363308.713138","364075.575241","364842.160946","351009.28776","351776.25529","352542.764321","353309.261604","357192.692347","357959.598352","358708.759884","359476.263514","360242.468632","361008.833899","361775.641898","362542.119394","364085.141563"
"Mixed","Both","cave","21","F_cave.wav","None","730.719573447","135","356426.093038","363308.713138","364075.575241","364842.160946","365608.700585","351776.25529","352542.764321","353309.261604","357192.692347","357959.598352","358708.759884","359476.263514","360242.468632","361008.833899","361775.641898","362542.119394","364846.240128"
"Mixed","Both","cave","21","M_lash.wav","space","408.415654907","135","356426.093038","363308.713138","364075.575241","364842.160946","365608.700585","366375.758702","352542.764321","353309.261604","357192.692347","357959.598352","358708.759884","359476.263514","360242.468632","361008.833899","361775.641898","362542.119394","365618.577004"
"Mixed","Both","cave","21","M_cave.wav","None","721.622570883","135","356426.093038","363308.713138","364075.575241","364842.160946","365608.700585","366375.758702","367142.264332","353309.261604","357192.692347","357959.598352","358708.759884","359476.263514","360242.468632","361008.833899","361775.641898","362542.119394","366385.841955"
"Mixed","Both","cave","21","M_ball.wav","space","370.883717667","135","356426.093038","363308.713138","364075.575241","364842.160946","365608.700585","366375.758702","367142.264332","367908.889921","357192.692347","357959.598352","358708.759884","359476.263514","360242.468632","361008.833899","361775.641898","362542.119394","367152.043363"
"Mixed","Both","cave","13","M_dime.wav","None","720.106713008","135","371025.545128","363308.713138","364075.575241","364842.160946","365608.700585","366375.758702","367142.264332","367908.889921","357192.692347","357959.598352","358708.759884","359476.263514","360242.468632","361008.833899","361775.641898","362542.119394","367918.477266"
"Mixed","Both","cave","13","F_depth.wav","None","720.498739742","135","371025.545128","363308.713138","364075.575241","364842.160946","365608.700585","366375.758702","367142.264332","367908.889921","371792.058178","357959.598352","358708.759884","359476.263514","360242.468632","361008.833899","361775.641898","362542.119394","371035.447826"
"Mixed","Both","cave","13","F_cave.wav","None","719.106858829","135","371025.545128","363308.713138","364075.575241","364842.160946","365608.700585","366375.758702","367142.264332","367908.889921","371792.058178","372542.343542","358708.759884","359476.263514","360242.468632","361008.833899","361775.641898","362542.119394","371802.216869"
"Mixed","Both","cave","13","F_reek.wav","space","426.546898554","135","371025.545128","363308.713138","364075.575241","364842.160946","365608.700585","366375.758702","367142.264332","367908.889921","371792.058178","372542.343542","373308.360685","359476.263514","360242.468632","361008.833899","361775.641898","362542.119394","372552.248713"
"Mixed","Both","cave","13","F_reek.wav","None","733.575990191","135","371025.545128","363308.713138","364075.575241","364842.160946","365608.700585","366375.758702","367142.264332","367908.889921","371792.058178","372542.343542","373308.360685","374075.278747","360242.468632","361008.833899","361775.641898","362542.119394","373317.989149"
"Mixed","Both","cave","13","F_tile.wav","None","732.584792888","135","371025.545128","363308.713138","364075.575241","364842.160946","365608.700585","366375.758702","367142.264332","367908.889921","371792.058178","372542.343542","373308.360685","374075.278747","374841.782832","361008.833899","361775.641898","362542.119394","374084.853107"
"Mixed","Both","cave","13","M_cave.wav","None","731.325545465","135","371025.545128","363308.713138","364075.575241","364842.160946","365608.700585","366375.758702","367142.264332","367908.889921","371792.058178","372542.343542","373308.360685","374075.278747","374841.782832","375608.398218","361775.641898","362542.119394","374851.444687"
"Mixed","Both","cave","13","F_gnash.wav","space","360.440282035","135","371025.545128","363308.713138","364075.575241","364842.160946","365608.700585","366375.758702","367142.264332","367908.889921","371792.058178","372542.343542","373308.360685","374075.278747","374841.782832","375608.398218","376375.145","362542.119394","375618.237845"
"Mixed","Both","cave","13","M_cave.wav","None","728.734705481","135","371025.545128","363308.713138","364075.575241","364842.160946","365608.700585","366375.758702","367142.264332","367908.889921","371792.058178","372542.343542","373308.360685","374075.278747","374841.782832","375608.398218","376375.145","377141.757295","376384.611151"
"Mixed","Both","cave","13","M_tile.wav","space","338.840466109","135","371025.545128","377908.29106","364075.575241","364842.160946","365608.700585","366375.758702","367142.264332","367908.889921","371792.058178","372542.343542","373308.360685","374075.278747","374841.782832","375608.398218","376375.145","377141.757295","377151.814268"
"Mixed","Both","cave","13","F_tile.wav","None","725.10536504","135","371025.545128","377908.29106","378675.04619","364842.160946","365608.700585","366375.758702","367142.264332","367908.889921","371792.058178","372542.343542","373308.360685","374075.278747","374841.782832","375608.398218","376375.145","377141.757295","377917.966827"
"Mixed","Both","cave","13","F_cave.wav","None","724.270298146","135","371025.545128","377908.29106","378675.04619","379442.300938","365608.700585","366375.758702","367142.264332","367908.889921","371792.058178","372542.343542","373308.360685","374075.278747","374841.782832","375608.398218","376375.145","377141.757295","378684.591488"
"Mixed","Both","cave","13","M_gnash.wav","space","350.762659218","135","371025.545128","377908.29106","378675.04619","379442.300938","380208.68321","366375.758702","367142.264332","367908.889921","371792.058178","372542.343542","373308.360685","374075.278747","374841.782832","375608.398218","376375.145","377141.757295","379451.761524"
"Mixed","Both","cave","13","M_bluff.wav","None","725.46802077","135","371025.545128","377908.29106","378675.04619","379442.300938","380208.68321","380975.309726","367142.264332","367908.889921","371792.058178","372542.343542","373308.360685","374075.278747","374841.782832","375608.398218","376375.145","377141.757295","380213.577981"
"Mixed","Both","cave","13","M_jolt.wav","None","719.493320794","135","371025.545128","377908.29106","378675.04619","379442.300938","380208.68321","380975.309726","381742.019099","367908.889921","371792.058178","372542.343542","373308.360685","374075.278747","374841.782832","375608.398218","376375.145","377141.757295","380985.561167"
"Mixed","Both","cave","13","M_lash.wav","None","719.431486796","135","371025.545128","377908.29106","378675.04619","379442.300938","380208.68321","380975.309726","381742.019099","382491.79897","371792.058178","372542.343542","373308.360685","374075.278747","374841.782832","375608.398218","376375.145","377141.757295","381751.645091"
"Mixed","Both","ball","9","F_priest.wav","None","735.448011197","135","385624.904157","377908.29106","378675.04619","379442.300938","380208.68321","380975.309726","381742.019099","382491.79897","371792.058178","372542.343542","373308.360685","374075.278747","374841.782832","375608.398218","376375.145","377141.757295","382501.275942"
"Mixed","Both","ball","9","F_romp.wav","None","721.196535276","135","385624.904157","377908.29106","378675.04619","379442.300938","380208.68321","380975.309726","381742.019099","382491.79897","386390.963656","372542.343542","373308.360685","374075.278747","374841.782832","375608.398218","376375.145","377141.757295","385634.935161"
"Mixed","Both","ball","9","M_ball.wav","None","724.193005823","135","385624.904157","377908.29106","378675.04619","379442.300938","380208.68321","380975.309726","381742.019099","382491.79897","386390.963656","387158.274983","373308.360685","374075.278747","374841.782832","375608.398218","376375.145","377141.757295","386399.997588"
"Mixed","Both","ball","9","F_park.wav","space","369.791112724","135","385624.904157","377908.29106","378675.04619","379442.300938","380208.68321","380975.309726","381742.019099","382491.79897","386390.963656","387158.274983","387925.085145","374075.278747","374841.782832","375608.398218","376375.145","377141.757295","387168.559814"
"Mixed","Both","ball","9","F_ball.wav","None","718.880237546","135","385624.904157","377908.29106","378675.04619","379442.300938","380208.68321","380975.309726","381742.019099","382491.79897","386390.963656","387158.274983","387925.085145","388675.006616","374841.782832","375608.398218","376375.145","377141.757295","387935.254657"
"Mixed","Both","ball","9","F_gnash.wav","space","412.762886845","135","385624.904157","377908.29106","378675.04619","379442.300938","380208.68321","380975.309726","381742.019099","382491.79897","386390.963656","387158.274983","387925.085145","388675.006616","389441.317161","375608.398218","376375.145","377141.757295","388685.518687"
"Mixed","Both","ball","9","M_gnash.wav","None","734.37612073","135","385624.904157","377908.29106","378675.04619","379442.300938","380208.68321","380975.309726","381742.019099","382491.79897","386390.963656","387158.274983","387925.085145","388675.006616","389441.317161","390207.768996","376375.145","377141.757295","389450.171465"
"Mixed","Both","ball","9","F_ball.wav","None","733.128003543","135","385624.904157","377908.29106","378675.04619","379442.300938","380208.68321","380975.309726","381742.019099","382491.79897","386390.963656","387158.274983","387925.085145","388675.006616","389441.317161","390207.768996","390974.5266","377141.757295","390217.468879"
"Mixed","Both","ball","9","M_dime.wav","space","394.007429946","135","385624.904157","377908.29106","378675.04619","379442.300938","380208.68321","380975.309726","381742.019099","382491.79897","386390.963656","387158.274983","387925.085145","388675.006616","389441.317161","390207.768996","390974.5266","391740.921238","390984.199585"
"Mixed","Both","ball","9","F_knife.wav","None","731.608435628","135","385624.904157","392507.859088","378675.04619","379442.300938","380208.68321","380975.309726","381742.019099","382491.79897","386390.963656","387158.274983","387925.085145","388675.006616","389441.317161","390207.768996","390974.5266","391740.921238","391750.299276"
"Mixed","Both","ball","9","M_ball.wav","None","730.401747162","135","385624.904157","392507.859088","393274.607726","379442.300938","380208.68321","380975.309726","381742.019099","382491.79897","386390.963656","387158.274983","387925.085145","388675.006616","389441.317161","390207.768996","390974.5266","391740.921238","392517.426646"
"Mixed","Both","ball","9","M_cad.wav","space","333.971665241","135","385624.904157","392507.859088","393274.607726","394041.730459","380208.68321","380975.309726","381742.019099","382491.79897","386390.963656","387158.274983","387925.085145","388675.006616","389441.317161","390207.768996","390974.5266","391740.921238","393284.18796"
"Mixed","Both","ball","9","M_lash.wav","None","726.579484995","135","385624.904157","392507.859088","393274.607726","394041.730459","394807.806344","380975.309726","381742.019099","382491.79897","386390.963656","387158.274983","387925.085145","388675.006616","389441.317161","390207.768996","390974.5266","391740.921238","394051.656344"
"Mixed","Both","ball","9","M_cad.wav","None","725.973821944","135","385624.904157","392507.859088","393274.607726","394041.730459","394807.806344","395574.222006","381742.019099","382491.79897","386390.963656","387158.274983","387925.085145","388675.006616","389441.317161","390207.768996","390974.5266","391740.921238","394818.327381"
"Mixed","Both","ball","9","F_gnash.wav","None","731.80228495","135","385624.904157","392507.859088","393274.607726","394041.730459","394807.806344","395574.222006","396340.750824","382491.79897","386390.963656","387158.274983","387925.085145","388675.006616","389441.317161","390207.768996","390974.5266","391740.921238","395578.584696"
"Mixed","Both","ball","9","M_reek.wav","None","726.221157587","135","385624.904157","392507.859088","393274.607726","394041.730459","394807.806344","395574.222006","396340.750824","397107.281807","386390.963656","387158.274983","387925.085145","388675.006616","389441.317161","390207.768996","390974.5266","391740.921238","396350.129789"
"Mixed","Both","cave","20","M_jolt.wav","None","725.611475296","135","400241.21093","392507.859088","393274.607726","394041.730459","394807.806344","395574.222006","396340.750824","397107.281807","386390.963656","387158.274983","387925.085145","388675.006616","389441.317161","390207.768996","390974.5266","391740.921238","397116.470633"
"Mixed","Both","cave","20","M_cave.wav","None","721.092035994","135","400241.21093","392507.859088","393274.607726","394041.730459","394807.806344","395574.222006","396340.750824","397107.281807","401008.08911","387158.274983","387925.085145","388675.006616","389441.317161","390207.768996","390974.5266","391740.921238","400251.241625"
"Mixed","Both","cave","20","M_lash.wav","space","615.848583519","135","400241.21093","392507.859088","393274.607726","394041.730459","394807.806344","395574.222006","396340.750824","397107.281807","401008.08911","401757.926796","387925.085145","388675.006616","389441.317161","390207.768996","390974.5266","391740.921238","401018.09167"
"Mixed","Both","cave","20","M_tile.wav","None","735.107615707","135","400241.21093","392507.859088","393274.607726","394041.730459","394807.806344","395574.222006","396340.750824","397107.281807","401008.08911","401757.926796","402524.060187","388675.006616","389441.317161","390207.768996","390974.5266","391740.921238","401767.660997"
"Mixed","Both","cave","20","F_depth.wav","None","734.83183654","135","400241.21093","392507.859088","393274.607726","394041.730459","394807.806344","395574.222006","396340.750824","397107.281807","401008.08911","401757.926796","402524.060187","403290.848398","389441.317161","390207.768996","390974.5266","391740.921238","402533.575186"
"Mixed","Both","cave","20","M_bluff.wav","None","734.787006862","135","400241.21093","392507.859088","393274.607726","394041.730459","394807.806344","395574.222006","396340.750824","397107.281807","401008.08911","401757.926796","402524.060187","403290.848398","404057.846845","390207.768996","390974.5266","391740.921238","403300.074324"
"Mixed","Both","cave","20","M_cave.wav","None","732.53501649","135","400241.21093","392507.859088","393274.607726","394041.730459","394807.806344","395574.222006","396340.750824","397107.281807","401008.08911","401757.926796","402524.060187","403290.848398","404057.846845","404824.10885","390974.5266","391740.921238","404067.866409"
"Mixed","Both","cave","20","F_tile.wav","space","424.102604622","135","400241.21093","392507.859088","393274.607726","394041.730459","394807.806344","395574.222006","396340.750824","397107.281807","401008.08911","401757.926796","402524.060187","403290.848398","404057.846845","404824.10885","405590.880366","391740.921238","404833.686302"
"Mixed","Both","cave","20","F_cave.wav","None","730.151629075","135","400241.21093","392507.859088","393274.607726","394041.730459","394807.806344","395574.222006","396340.750824","397107.281807","401008.08911","401757.926796","402524.060187","403290.848398","404057.846845","404824.10885","405590.880366","406357.327255","405600.400313"
"Mixed","Both","cave","20","F_gnash.wav","space","506.893242593","135","400241.21093","407124.223057","393274.607726","394041.730459","394807.806344","395574.222006","396340.750824","397107.281807","401008.08911","401757.926796","402524.060187","403290.848398","404057.846845","404824.10885","405590.880366","406357.327255","406366.859877"
"Mixed","Both","cave","20","F_cave.wav","None","727.276662132","135","400241.21093","407124.223057","407890.782792","394041.730459","394807.806344","395574.222006","396340.750824","397107.281807","401008.08911","401757.926796","402524.060187","403290.848398","404057.846845","404824.10885","405590.880366","406357.327255","407133.882439"
"Mixed","Both","cave","20","F_jolt.wav","space","477.402494173","135","400241.21093","407124.223057","407890.782792","408657.346238","394807.806344","395574.222006","396340.750824","397107.281807","401008.08911","401757.926796","402524.060187","403290.848398","404057.846845","404824.10885","405590.880366","406357.327255","407900.320361"
"Mixed","Both","cave","20","F_lash.wav","None","724.510832108","135","400241.21093","407124.223057","407890.782792","408657.346238","409424.633449","395574.222006","396340.750824","397107.281807","401008.08911","401757.926796","402524.060187","403290.848398","404057.846845","404824.10885","405590.880366","406357.327255","408667.251409"
"Mixed","Both","cave","20","M_greet.wav","None","723.488408606","135","400241.21093","407124.223057","407890.782792","408657.346238","409424.633449","410190.289482","396340.750824","397107.281807","401008.08911","401757.926796","402524.060187","403290.848398","404057.846845","404824.10885","405590.880366","406357.327255","409434.333332"
"Mixed","Both","cave","20","F_depth.wav","None","724.448070745","135","400241.21093","407124.223057","407890.782792","408657.346238","409424.633449","410190.289482","410957.658313","397107.281807","401008.08911","401757.926796","402524.060187","403290.848398","404057.846845","404824.10885","405590.880366","406357.327255","410199.750067"
"Mixed","Both","cave","20","M_knife.wav","None","727.693422581","135","400241.21093","407124.223057","407890.782792","408657.346238","409424.633449","410190.289482","410957.658313","411724.439414","401008.08911","401757.926796","402524.060187","403290.848398","404057.846845","404824.10885","405590.880366","406357.327255","410962.125194"
"Mixed","Both","cave","22","M_cad.wav","None","721.417282359","135","414857.540891","407124.223057","407890.782792","408657.346238","409424.633449","410190.289482","410957.658313","411724.439414","401008.08911","401757.926796","402524.060187","403290.848398","404057.846845","404824.10885","405590.880366","406357.327255","411734.204222"
"Mixed","Both","cave","22","F_bluff.wav","None","720.858303946","135","414857.540891","407124.223057","407890.782792","408657.346238","409424.633449","410190.289482","410957.658313","411724.439414","415624.428346","401757.926796","402524.060187","403290.848398","404057.846845","404824.10885","405590.880366","406357.327255","414867.462448"
"Mixed","Both","cave","22","F_reek.wav","None","719.301635632","135","414857.540891","407124.223057","407890.782792","408657.346238","409424.633449","410190.289482","410957.658313","411724.439414","415624.428346","416390.912025","402524.060187","403290.848398","404057.846845","404824.10885","405590.880366","406357.327255","415634.698028"
"Mixed","Both","cave","22","F_romp.wav","None","719.229908311","135","414857.540891","407124.223057","407890.782792","408657.346238","409424.633449","410190.289482","410957.658313","411724.439414","415624.428346","416390.912025","417157.521846","403290.848398","404057.846845","404824.10885","405590.880366","406357.327255","416400.863263"
"Mixed","Both","cave","22","F_tile.wav","None","718.473061454","135","414857.540891","407124.223057","407890.782792","408657.346238","409424.633449","410190.289482","410957.658313","411724.439414","415624.428346","416390.912025","417157.521846","417923.19612","404057.846845","404824.10885","405590.880366","406357.327255","417167.673116"
"Mixed","Both","cave","22","M_cave.wav","None","722.590580466","135","414857.540891","407124.223057","407890.782792","408657.346238","409424.633449","410190.289482","410957.658313","411724.439414","415624.428346","416390.912025","417157.521846","417923.19612","418690.210025","404824.10885","405590.880366","406357.327255","417932.374743"
"Mixed","Both","cave","22","M_jolt.wav","space","350.039511919","135","414857.540891","407124.223057","407890.782792","408657.346238","409424.633449","410190.289482","410957.658313","411724.439414","415624.428346","416390.912025","417157.521846","417923.19612","418690.210025","419457.411287","405590.880366","406357.327255","418699.369789"
"Mixed","Both","cave","22","F_cave.wav","None","718.263135292","135","414857.540891","407124.223057","407890.782792","408657.346238","409424.633449","410190.289482","410957.658313","411724.439414","415624.428346","416390.912025","417157.521846","417923.19612","418690.210025","419457.411287","420206.839014","406357.327255","419467.68808"
"Mixed","Both","cave","22","M_cad.wav","space","432.917953935","135","414857.540891","407124.223057","407890.782792","408657.346238","409424.633449","410190.289482","410957.658313","411724.439414","415624.428346","416390.912025","417157.521846","417923.19612","418690.210025","419457.411287","420206.839014","420973.810254","420216.390805"
"Mixed","Both","cave","22","M_cave.wav","None","733.174997382","135","414857.540891","421740.369989","407890.782792","408657.346238","409424.633449","410190.289482","410957.658313","411724.439414","415624.428346","416390.912025","417157.521846","417923.19612","418690.210025","419457.411287","420206.839014","420973.810254","420983.350296"
"Mixed","Both","cave","22","F_jaw.wav","space","427.420302294","135","414857.540891","421740.369989","422506.957859","408657.346238","409424.633449","410190.289482","410957.658313","411724.439414","415624.428346","416390.912025","417157.521846","417923.19612","418690.210025","419457.411287","420206.839014","420973.810254","421749.891172"
"Mixed","Both","cave","22","M_done.wav","None","730.891162413","135","414857.540891","421740.369989","422506.957859","423273.18029","409424.633449","410190.289482","410957.658313","411724.439414","415624.428346","416390.912025","417157.521846","417923.19612","418690.210025","419457.411287","420206.839014","420973.810254","422516.855301"
"Mixed","Both","cave","22","M_reek.wav","None","730.945576332","135","414857.540891","421740.369989","422506.957859","423273.18029","424039.90976","410190.289482","410957.658313","411724.439414","415624.428346","416390.912025","417157.521846","417923.19612","418690.210025","419457.411287","420206.839014","420973.810254","423282.492475"
"Mixed","Both","cave","22","F_cave.wav","None","729.580283863","135","414857.540891","421740.369989","422506.957859","423273.18029","424039.90976","424806.633664","410957.658313","411724.439414","415624.428346","416390.912025","417157.521846","417923.19612","418690.210025","419457.411287","420206.839014","420973.810254","424049.856051"
"Mixed","Both","cave","22","F_done.wav","space","353.422753396","135","414857.540891","421740.369989","422506.957859","423273.18029","424039.90976","424806.633664","425573.489583","411724.439414","415624.428346","416390.912025","417157.521846","417923.19612","418690.210025","419457.411287","420206.839014","420973.810254","424815.794664"
"Mixed","Both","cave","22","M_bluff.wav","None","726.141082705","135","414857.540891","421740.369989","422506.957859","423273.18029","424039.90976","424806.633664","425573.489583","426340.254607","415624.428346","416390.912025","417157.521846","417923.19612","418690.210025","419457.411287","420206.839014","420973.810254","425583.225021"
"Mixed","Both","tile","36","M_cling.wav","None","725.37001397","135","429473.817674","421740.369989","422506.957859","423273.18029","424039.90976","424806.633664","425573.489583","426340.254607","415624.428346","416390.912025","417157.521846","417923.19612","418690.210025","419457.411287","420206.839014","420973.810254","426349.909661"
"Mixed","Both","tile","36","M_tile.wav","None","720.505850622","135","429473.817674","421740.369989","422506.957859","423273.18029","424039.90976","424806.633664","425573.489583","426340.254607","430240.324232","416390.912025","417157.521846","417923.19612","418690.210025","419457.411287","420206.839014","420973.810254","429483.768912"
"Mixed","Both","tile","36","M_romp.wav","space","431.140847737","135","429473.817674","421740.369989","422506.957859","423273.18029","424039.90976","424806.633664","425573.489583","426340.254607","430240.324232","430989.920766","417157.521846","417923.19612","418690.210025","419457.411287","420206.839014","420973.810254","430249.904467"
"Mixed","Both","tile","36","M_park.wav","None","734.728883137","135","429473.817674","421740.369989","422506.957859","423273.18029","424039.90976","424806.633664","425573.489583","426340.254607","430240.324232","430989.920766","431756.528423","417923.19612","418690.210025","419457.411287","420206.839014","420973.810254","430999.867057"
"Mixed","Both","tile","36","M_cling.wav","None","734.127239324","135","429473.817674","421740.369989","422506.957859","423273.18029","424039.90976","424806.633664","425573.489583","426340.254607","430240.324232","430989.920766","431756.528423","432523.160813","418690.210025","419457.411287","420206.839014","420973.810254","431766.972477"
"Mixed","Both","tile","36","F_done.wav","None","734.8955255","135","429473.817674","421740.369989","422506.957859","423273.18029","424039.90976","424806.633664","425573.489583","426340.254607","430240.324232","430989.920766","431756.528423","432523.160813","433290.089387","419457.411287","420206.839014","420973.810254","432532.533285"
"Mixed","Both","tile","36","F_cad.wav","None","733.980383724","135","429473.817674","421740.369989","422506.957859","423273.18029","424039.90976","424806.633664","425573.489583","426340.254607","430240.324232","430989.920766","431756.528423","432523.160813","433290.089387","434056.446616","420206.839014","420973.810254","433299.736402"
"Mixed","Both","tile","36","F_tile.wav","None","733.60814387","135","429473.817674","421740.369989","422506.957859","423273.18029","424039.90976","424806.633664","425573.489583","426340.254607","430240.324232","430989.920766","431756.528423","432523.160813","433290.089387","434056.446616","434823.225862","420973.810254","434066.498952"
"Mixed","Both","tile","36","M_knife.wav","space","453.489472158","135","429473.817674","421740.369989","422506.957859","423273.18029","424039.90976","424806.633664","425573.489583","426340.254607","430240.324232","430989.920766","431756.528423","432523.160813","433290.089387","434056.446616","434823.225862","435589.463752","434827.418818"
"Mixed","Both","tile","36","F_cad.wav","None","732.078991598","135","429473.817674","436356.099852","422506.957859","423273.18029","424039.90976","424806.633664","425573.489583","426340.254607","430240.324232","430989.920766","431756.528423","432523.160813","433290.089387","434056.446616","434823.225862","435589.463752","435598.515615"
"Mixed","Both","tile","36","F_tile.wav","None","731.643680949","135","429473.817674","436356.099852","437122.709982","423273.18029","424039.90976","424806.633664","425573.489583","426340.254607","430240.324232","430989.920766","431756.528423","432523.160813","433290.089387","434056.446616","434823.225862","435589.463752","436365.351439"
"Mixed","Both","tile","36","F_lash.wav","space","476.7615858","135","429473.817674","436356.099852","437122.709982","437889.83797","424039.90976","424806.633664","425573.489583","426340.254607","430240.324232","430989.920766","431756.528423","432523.160813","433290.089387","434056.446616","434823.225862","435589.463752","437132.041026"
"Mixed","Both","tile","36","M_priest.wav","None","729.239888373","135","429473.817674","436356.099852","437122.709982","437889.83797","438657.121781","424806.633664","425573.489583","426340.254607","430240.324232","430989.920766","431756.528423","432523.160813","433290.089387","434056.446616","434823.225862","435589.463752","437899.006391"
"Mixed","Both","tile","36","F_lash.wav","None","728.074628627","135","429473.817674","436356.099852","437122.709982","437889.83797","438657.121781","439423.229201","425573.489583","426340.254607","430240.324232","430989.920766","431756.528423","432523.160813","433290.089387","434056.446616","434823.225862","435589.463752","438666.429946"
"Mixed","Both","tile","36","M_tile.wav","None","728.291356354","135","429473.817674","436356.099852","437122.709982","437889.83797","438657.121781","439423.229201","440189.340331","426340.254607","430240.324232","430989.920766","431756.528423","432523.160813","433290.089387","434056.446616","434823.225862","435589.463752","439432.753785"
"Mixed","Both","tile","36","F_priest.wav","space","393.988570664","135","429473.817674","436356.099852","437122.709982","437889.83797","438657.121781","439423.229201","440189.340331","440956.382371","430240.324232","430989.920766","431756.528423","432523.160813","433290.089387","434056.446616","434823.225862","435589.463752","440198.775565"
"Mixed","Both","tile","30","F_jolt.wav","None","725.812744698","135","444090.21256","436356.099852","437122.709982","437889.83797","438657.121781","439423.229201","440189.340331","440956.382371","430240.324232","430989.920766","431756.528423","432523.160813","433290.089387","434056.446616","434823.225862","435589.463752","440966.277649"
"Mixed","Both","tile","30","M_tile.wav","None","720.802035066","135","444090.21256","436356.099852","437122.709982","437889.83797","438657.121781","439423.229201","440189.340331","440956.382371","444856.460653","430989.920766","431756.528423","432523.160813","433290.089387","434056.446616","434823.225862","435589.463752","444099.713338"
"Mixed","Both","tile","30","F_done.wav","space","397.942538955","135","444090.21256","436356.099852","437122.709982","437889.83797","438657.121781","439423.229201","440189.340331","440956.382371","444856.460653","445606.247326","431756.528423","432523.160813","433290.089387","434056.446616","434823.225862","435589.463752","444866.675921"
"Mixed","Both","tile","30","M_bluff.wav","None","735.221080948","135","444090.21256","436356.099852","437122.709982","437889.83797","438657.121781","439423.229201","440189.340331","440956.382371","444856.460653","445606.247326","446372.638873","432523.160813","433290.089387","434056.446616","434823.225862","435589.463752","445615.9132"
"Mixed","Both","tile","30","M_greet.wav","None","734.820397221","135","444090.21256","436356.099852","437122.709982","437889.83797","438657.121781","439423.229201","440189.340331","440956.382371","444856.460653","445606.247326","446372.638873","447139.397404","433290.089387","434056.446616","434823.225862","435589.463752","446382.390696"
"Mixed","Both","tile","30","M_reek.wav","None","734.042526805","135","444090.21256","436356.099852","437122.709982","437889.83797","438657.121781","439423.229201","440189.340331","440956.382371","444856.460653","445606.247326","446372.638873","447139.397404","447906.211586","434056.446616","434823.225862","435589.463752","447149.065752"
"Mixed","Both","tile","30","F_tile.wav","None","733.355552307","135","444090.21256","436356.099852","437122.709982","437889.83797","438657.121781","439423.229201","440189.340331","440956.382371","444856.460653","445606.247326","446372.638873","447139.397404","447906.211586","448672.676097","434823.225862","435589.463752","447916.067599"
"Mixed","Both","tile","30","M_jaw.wav","space","342.122300062","135","444090.21256","436356.099852","437122.709982","437889.83797","438657.121781","439423.229201","440189.340331","440956.382371","444856.460653","445606.247326","446372.638873","447139.397404","447906.211586","448672.676097","449439.522432","435589.463752","448682.308581"
"Mixed","Both","tile","30","F_park.wav","None","732.16617736","135","444090.21256","436356.099852","437122.709982","437889.83797","438657.121781","439423.229201","440189.340331","440956.382371","444856.460653","445606.247326","446372.638873","447139.397404","447906.211586","448672.676097","449439.522432","450206.24881","449448.534413"
"Mixed","Both","tile","30","F_tile.wav","None","731.302048662","135","444090.21256","450972.857703","437122.709982","437889.83797","438657.121781","439423.229201","440189.340331","440956.382371","444856.460653","445606.247326","446372.638873","447139.397404","447906.211586","448672.676097","449439.522432","450206.24881","450215.743713"
"Mixed","Both","tile","30","M_jolt.wav","space","465.65807343","135","444090.21256","450972.857703","451739.518536","437889.83797","438657.121781","439423.229201","440189.340331","440956.382371","444856.460653","445606.247326","446372.638873","447139.397404","447906.211586","448672.676097","449439.522432","450206.24881","450982.729175"
"Mixed","Both","tile","30","F_romp.wav","None","729.449505103","135","444090.21256","450972.857703","451739.518536","452506.16082","438657.121781","439423.229201","440189.340331","440956.382371","444856.460653","445606.247326","446372.638873","447139.397404","447906.211586","448672.676097","449439.522432","450206.24881","451748.933365"
"Mixed","Both","tile","30","M_tile.wav","None","728.696368402","135","444090.21256","450972.857703","451739.518536","452506.16082","453272.888434","439423.229201","440189.340331","440956.382371","444856.460653","445606.247326","446372.638873","447139.397404","447906.211586","448672.676097","449439.522432","450206.24881","452515.811236"
"Mixed","Both","tile","30","F_bluff.wav","space","462.109735352","135","444090.21256","450972.857703","451739.518536","452506.16082","453272.888434","454039.456517","440189.340331","440956.382371","444856.460653","445606.247326","446372.638873","447139.397404","447906.211586","448672.676097","449439.522432","450206.24881","453282.270491"
"Mixed","Both","tile","30","M_knife.wav","None","595.679913182","135","444090.21256","450972.857703","451739.518536","452506.16082","453272.888434","454039.456517","454805.94267","440956.382371","444856.460653","445606.247326","446372.638873","447139.397404","447906.211586","448672.676097","449439.522432","450206.24881","454179.751131"
"Mixed","Both","tile","30","F_cling.wav","None","726.33276775","135","444090.21256","450972.857703","451739.518536","452506.16082","453272.888434","454039.456517","454805.94267","455572.737065","444856.460653","445606.247326","446372.638873","447139.397404","447906.211586","448672.676097","449439.522432","450206.24881","454815.537126"
"Mixed","Both","done","38","F_knife.wav","None","726.300304872","135","458706.166261","450972.857703","451739.518536","452506.16082","453272.888434","454039.456517","454805.94267","455572.737065","444856.460653","445606.247326","446372.638873","447139.397404","447906.211586","448672.676097","449439.522432","450206.24881","455582.234133"
"Mixed","Both","done","38","F_reek.wav","None","721.139029833","135","458706.166261","450972.857703","451739.518536","452506.16082","453272.888434","454039.456517","454805.94267","455572.737065","459473.035166","445606.247326","446372.638873","447139.397404","447906.211586","448672.676097","449439.522432","450206.24881","458716.716979"
"Mixed","Both","done","38","F_done.wav","None","725.706081255","135","458706.166261","450972.857703","451739.518536","452506.16082","453272.888434","454039.456517","454805.94267","455572.737065","459473.035166","460239.371681","446372.638873","447139.397404","447906.211586","448672.676097","449439.522432","450206.24881","459478.10369"
"Mixed","Both","done","38","M_cad.wav","space","415.100517217","135","458706.166261","450972.857703","451739.518536","452506.16082","453272.888434","454039.456517","454805.94267","455572.737065","459473.035166","460239.371681","460989.254506","447139.397404","447906.211586","448672.676097","449439.522432","450206.24881","460249.04683"
"Mixed","Both","done","38","M_done.wav","None","735.31568679","135","458706.166261","450972.857703","451739.518536","452506.16082","453272.888434","454039.456517","454805.94267","455572.737065","459473.035166","460239.371681","460989.254506","461755.545882","447906.211586","448672.676097","449439.522432","450206.24881","460999.018696"
"Mixed","Both","done","38","M_tile.wav","space","594.971296727","135","458706.166261","450972.857703","451739.518536","452506.16082","453272.888434","454039.456517","454805.94267","455572.737065","459473.035166","460239.371681","460989.254506","461755.545882","462522.379851","448672.676097","449439.522432","450206.24881","461765.144357"
"Mixed","Both","done","38","M_done.wav","None","728.457380319","135","458706.166261","450972.857703","451739.518536","452506.16082","453272.888434","454039.456517","454805.94267","455572.737065","459473.035166","460239.371681","460989.254506","461755.545882","462522.379851","463289.087678","449439.522432","450206.24881","462536.50364"
"Mixed","Both","done","38","F_park.wav","space","389.733471209","135","458706.166261","450972.857703","451739.518536","452506.16082","453272.888434","454039.456517","454805.94267","455572.737065","459473.035166","460239.371681","460989.254506","461755.545882","462522.379851","463289.087678","464055.738","450206.24881","463298.280523"
"Mixed","Both","done","38","F_done.wav","None","729.814634309","135","458706.166261","450972.857703","451739.518536","452506.16082","453272.888434","454039.456517","454805.94267","455572.737065","459473.035166","460239.371681","460989.254506","461755.545882","462522.379851","463289.087678","464055.738","464822.482309","464065.699131"
