"Condition","Talker","Target","Trial","current_stimulus","response_response","response_time_response","subject_nr","time_Audio1","time_Audio10","time_Audio11","time_Audio12","time_Audio13","time_Audio14","time_Audio15","time_Audio16","time_Audio2","time_Audio3","time_Audio4","time_Audio5","time_Audio6","time_Audio7","time_Audio8","time_Audio9","time_response","title"
"Blocked","Male","done","19","M_depth.wav","NA","NA","141","102619.937096","NA","NA","NA","NA","NA","NA","NA","NA","NA","NA","NA","NA","NA","NA","NA","NA","Mapping"
"Blocked","Male","done","19","M_depth.wav","None","715.137398103","141","102619.937096","NA","NA","NA","NA","NA","NA","NA","103369.942738","NA","NA","NA","NA","NA","NA","NA","102634.355388","Mapping"
"Blocked","Male","done","19","M_depth.wav","None","733.640795806","141","102619.937096","NA","NA","NA","NA","NA","NA","NA","103369.942738","104136.235625","NA","NA","NA","NA","NA","NA","103379.933361","Mapping"
"Blocked","Male","done","19","M_done.wav","None","732.026602491","141","102619.937096","NA","NA","NA","NA","NA","NA","NA","103369.942738","104136.235625","104902.881587","NA","NA","NA","NA","NA","104145.620577","Mapping"
"Blocked","Male","done","19","M_tile.wav","space","642.350606737","141","102619.937096","NA","NA","NA","NA","NA","NA","NA","103369.942738","104136.235625","104902.881587","105669.53095","NA","NA","NA","NA","104912.247989","Mapping"
"Blocked","Male","done","19","M_done.wav","None","726.236097631","141","102619.937096","NA","NA","NA","NA","NA","NA","NA","103369.942738","104136.235625","104902.881587","105669.53095","106436.661078","NA","NA","NA","105679.478598","Mapping"
"Blocked","Male","done","19","M_cling.wav","space","668.41854516","141","102619.937096","NA","NA","NA","NA","NA","NA","NA","103369.942738","104136.235625","104902.881587","105669.53095","106436.661078","107203.369802","NA","NA","106446.149912","Mapping"
"Blocked","Male","done","19","M_depth.wav","None","720.464761602","141","102619.937096","NA","NA","NA","NA","NA","NA","NA","103369.942738","104136.235625","104902.881587","105669.53095","106436.661078","107203.369802","107952.735147","NA","107213.407419","Mapping"
"Blocked","Male","done","19","M_done.wav","None","736.284226528","141","102619.937096","NA","NA","NA","NA","NA","NA","NA","103369.942738","104136.235625","104902.881587","105669.53095","106436.661078","107203.369802","107952.735147","108719.79602","107961.773826","Mapping"
"Blocked","Male","done","19","M_greet.wav","space","601.372481673","141","102619.937096","109486.326661","NA","NA","NA","NA","NA","NA","103369.942738","104136.235625","104902.881587","105669.53095","106436.661078","107203.369802","107952.735147","108719.79602","108729.166132","Mapping"
"Blocked","Male","done","19","M_cave.wav","None","730.644598254","141","102619.937096","109486.326661","110253.088872","NA","NA","NA","NA","NA","103369.942738","104136.235625","104902.881587","105669.53095","106436.661078","107203.369802","107952.735147","108719.79602","109495.46953","Mapping"
"Blocked","Male","done","19","M_done.wav","None","727.69601352","141","102619.937096","109486.326661","110253.088872","111019.943836","NA","NA","NA","NA","103369.942738","104136.235625","104902.881587","105669.53095","106436.661078","107203.369802","107952.735147","108719.79602","110262.551427","Mapping"
"Blocked","Male","done","19","M_cling.wav","space","589.139116579","141","102619.937096","109486.326661","110253.088872","111019.943836","111786.596909","NA","NA","NA","103369.942738","104136.235625","104902.881587","105669.53095","106436.661078","107203.369802","107952.735147","108719.79602","111029.323841","Mapping"
"Blocked","Male","done","19","M_dime.wav","None","722.784178914","141","102619.937096","109486.326661","110253.088872","111019.943836","111786.596909","112553.762282","NA","NA","103369.942738","104136.235625","104902.881587","105669.53095","106436.661078","107203.369802","107952.735147","108719.79602","111796.250842","Mapping"
"Blocked","Male","done","19","M_cling.wav","None","719.630303094","141","102619.937096","109486.326661","110253.088872","111019.943836","111786.596909","112553.762282","113303.053425","NA","103369.942738","104136.235625","104902.881587","105669.53095","106436.661078","107203.369802","107952.735147","108719.79602","112563.516697","Mapping"
"Blocked","Male","done","19","M_tile.wav","None","734.404762741","141","102619.937096","109486.326661","110253.088872","111019.943836","111786.596909","112553.762282","113303.053425","114069.913026","103369.942738","104136.235625","104902.881587","105669.53095","106436.661078","107203.369802","107952.735147","108719.79602","113312.961808","Mapping"
"Blocked","Male","done","20","M_bluff.wav","None","732.050099643","141","117220.22407","109486.326661","110253.088872","111019.943836","111786.596909","112553.762282","113303.053425","114069.913026","103369.942738","104136.235625","104902.881587","105669.53095","106436.661078","107203.369802","107952.735147","108719.79602","114079.527385","Mapping"
"Blocked","Male","done","20","M_greet.wav","None","720.367990318","141","117220.22407","109486.326661","110253.088872","111019.943836","111786.596909","112553.762282","113303.053425","114069.913026","117969.4642","104136.235625","104902.881587","105669.53095","106436.661078","107203.369802","107952.735147","108719.79602","117230.037846","Mapping"
"Blocked","Male","done","20","M_done.wav","None","735.421633464","141","117220.22407","109486.326661","110253.088872","111019.943836","111786.596909","112553.762282","113303.053425","114069.913026","117969.4642","118736.139534","104902.881587","105669.53095","106436.661078","107203.369802","107952.735147","108719.79602","117979.230672","Mapping"
"Blocked","Male","done","20","M_dime.wav","space","625.11667423","141","117220.22407","109486.326661","110253.088872","111019.943836","111786.596909","112553.762282","113303.053425","114069.913026","117969.4642","118736.139534","119503.31109","105669.53095","106436.661078","107203.369802","107952.735147","108719.79602","118745.232317","Mapping"
"Blocked","Male","done","20","M_greet.wav","None","730.782180326","141","117220.22407","109486.326661","110253.088872","111019.943836","111786.596909","112553.762282","113303.053425","114069.913026","117969.4642","118736.139534","119503.31109","120269.834002","106436.661078","107203.369802","107952.735147","108719.79602","119512.272476","Mapping"
"Blocked","Male","done","20","M_depth.wav","None","728.35733497","141","117220.22407","109486.326661","110253.088872","111019.943836","111786.596909","112553.762282","113303.053425","114069.913026","117969.4642","118736.139534","119503.31109","120269.834002","121036.240355","107203.369802","107952.735147","108719.79602","120279.324382","Mapping"
"Blocked","Male","done","20","M_knife.wav","None","726.56042024","141","117220.22407","109486.326661","110253.088872","111019.943836","111786.596909","112553.762282","113303.053425","114069.913026","117969.4642","118736.139534","119503.31109","120269.834002","121036.240355","121803.42768","107952.735147","108719.79602","121045.299439","Mapping"
"Blocked","Male","done","20","M_jaw.wav","None","722.834574059","141","117220.22407","109486.326661","110253.088872","111019.943836","111786.596909","112553.762282","113303.053425","114069.913026","117969.4642","118736.139534","119503.31109","120269.834002","121036.240355","121803.42768","122570.104868","108719.79602","121813.273609","Mapping"
"Blocked","Male","done","20","M_done.wav","None","720.374173834","141","117220.22407","109486.326661","110253.088872","111019.943836","111786.596909","112553.762282","113303.053425","114069.913026","117969.4642","118736.139534","119503.31109","120269.834002","121036.240355","121803.42768","122570.104868","123319.564511","122579.825892","Mapping"
"Blocked","Male","done","20","M_gnash.wav","space","593.060051091","141","117220.22407","124086.12576","110253.088872","111019.943836","111786.596909","112553.762282","113303.053425","114069.913026","117969.4642","118736.139534","119503.31109","120269.834002","121036.240355","121803.42768","122570.104868","123319.564511","123329.188145","Mapping"
"Blocked","Male","done","20","M_done.wav","None","733.23794303","141","117220.22407","124086.12576","124853.160662","111019.943836","111786.596909","112553.762282","113303.053425","114069.913026","117969.4642","118736.139534","119503.31109","120269.834002","121036.240355","121803.42768","122570.104868","123319.564511","124095.209269","Mapping"
"Blocked","Male","done","20","M_reek.wav","None","729.838892934","141","117220.22407","124086.12576","124853.160662","125619.817136","111786.596909","112553.762282","113303.053425","114069.913026","117969.4642","118736.139534","119503.31109","120269.834002","121036.240355","121803.42768","122570.104868","123319.564511","124862.774403","Mapping"
"Blocked","Male","done","20","M_park.wav","space","0.035245786421","141","117220.22407","124086.12576","124853.160662","125619.817136","126386.175258","112553.762282","113303.053425","114069.913026","117969.4642","118736.139534","119503.31109","120269.834002","121036.240355","121803.42768","122570.104868","123319.564511","125629.219403","Mapping"
"Blocked","Male","done","20","M_done.wav","None","725.148735568","141","117220.22407","124086.12576","124853.160662","125619.817136","126386.175258","127153.340632","113303.053425","114069.913026","117969.4642","118736.139534","119503.31109","120269.834002","121036.240355","121803.42768","122570.104868","123319.564511","126395.696556","Mapping"
"Blocked","Male","done","20","M_park.wav","space","590.555438888","141","117220.22407","124086.12576","124853.160662","125619.817136","126386.175258","127153.340632","127919.975773","114069.913026","117969.4642","118736.139534","119503.31109","120269.834002","121036.240355","121803.42768","122570.104868","123319.564511","127163.627443","Mapping"
"Blocked","Male","done","20","M_romp.wav","None","719.825082226","141","117220.22407","124086.12576","124853.160662","125619.817136","126386.175258","127153.340632","127919.975773","128669.829612","117969.4642","118736.139534","119503.31109","120269.834002","121036.240355","121803.42768","122570.104868","123319.564511","127929.769762","Mapping"
"Blocked","Male","tile","17","M_bluff.wav","None","735.52273307","141","131803.359352","124086.12576","124853.160662","125619.817136","126386.175258","127153.340632","127919.975773","128669.829612","117969.4642","118736.139534","119503.31109","120269.834002","121036.240355","121803.42768","122570.104868","123319.564511","128679.198178","Mapping"
"Blocked","Male","tile","17","M_tile.wav","None","720.73374223","141","131803.359352","124086.12576","124853.160662","125619.817136","126386.175258","127153.340632","127919.975773","128669.829612","132569.868042","118736.139534","119503.31109","120269.834002","121036.240355","121803.42768","122570.104868","123319.564511","131813.440563","Mapping"
"Blocked","Male","tile","17","M_greet.wav","space","574.360637576","141","131803.359352","124086.12576","124853.160662","125619.817136","126386.175258","127153.340632","127919.975773","128669.829612","132569.868042","133319.596665","119503.31109","120269.834002","121036.240355","121803.42768","122570.104868","123319.564511","132579.724793","Mapping"
"Blocked","Male","tile","17","M_cling.wav","None","733.364394982","141","131803.359352","124086.12576","124853.160662","125619.817136","126386.175258","127153.340632","127919.975773","128669.829612","132569.868042","133319.596665","134085.824625","120269.834002","121036.240355","121803.42768","122570.104868","123319.564511","133329.086427","Mapping"
"Blocked","Male","tile","17","M_tile.wav","None","732.068650075","141","131803.359352","124086.12576","124853.160662","125619.817136","126386.175258","127153.340632","127919.975773","128669.829612","132569.868042","133319.596665","134085.824625","134852.926309","121036.240355","121803.42768","122570.104868","123319.564511","134094.880927","Mapping"
"Blocked","Male","tile","17","M_done.wav","space","507.451228681","141","131803.359352","124086.12576","124853.160662","125619.817136","126386.175258","127153.340632","127919.975773","128669.829612","132569.868042","133319.596665","134085.824625","134852.926309","135619.505799","121803.42768","122570.104868","123319.564511","134862.591991","Mapping"
"Blocked","Male","tile","17","M_jaw.wav","None","726.240426069","141","131803.359352","124086.12576","124853.160662","125619.817136","126386.175258","127153.340632","127919.975773","128669.829612","132569.868042","133319.596665","134085.824625","134852.926309","135619.505799","136386.407757","122570.104868","123319.564511","135629.074091","Mapping"
"Blocked","Male","tile","17","M_tile.wav","None","723.31224673","141","131803.359352","124086.12576","124853.160662","125619.817136","126386.175258","127153.340632","127919.975773","128669.829612","132569.868042","133319.596665","134085.824625","134852.926309","135619.505799","136386.407757","137153.326719","123319.564511","136396.361279","Mapping"
"Blocked","Male","tile","17","M_gnash.wav","space","566.899979138","141","131803.359352","124086.12576","124853.160662","125619.817136","126386.175258","127153.340632","127919.975773","128669.829612","132569.868042","133319.596665","134085.824625","134852.926309","135619.505799","136386.407757","137153.326719","137919.952276","137163.07495","Mapping"
"Blocked","Male","tile","17","M_lash.wav","None","724.142067484","141","131803.359352","138669.42614","124853.160662","125619.817136","126386.175258","127153.340632","127919.975773","128669.829612","132569.868042","133319.596665","134085.824625","134852.926309","135619.505799","136386.407757","137153.326719","137919.952276","137924.110656","Mapping"
"Blocked","Male","tile","17","M_jolt.wav","None","733.726127539","141","131803.359352","138669.42614","139436.064992","125619.817136","126386.175258","127153.340632","127919.975773","128669.829612","132569.868042","133319.596665","134085.824625","134852.926309","135619.505799","136386.407757","137153.326719","137919.952276","138678.96166","Mapping"
"Blocked","Male","tile","17","M_tile.wav","None","731.696405448","141","131803.359352","138669.42614","139436.064992","140202.325415","126386.175258","127153.340632","127919.975773","128669.829612","132569.868042","133319.596665","134085.824625","134852.926309","135619.505799","136386.407757","137153.326719","137919.952276","139445.498794","Mapping"
"Blocked","Male","tile","17","M_cave.wav","space","534.724633326","141","131803.359352","138669.42614","139436.064992","140202.325415","140969.357535","127153.340632","127919.975773","128669.829612","132569.868042","133319.596665","134085.824625","134852.926309","135619.505799","136386.407757","137153.326719","137919.952276","140211.203942","Mapping"
"Blocked","Male","tile","17","M_reek.wav","None","727.954173111","141","131803.359352","138669.42614","139436.064992","140202.325415","140969.357535","141735.92775","127919.975773","128669.829612","132569.868042","133319.596665","134085.824625","134852.926309","135619.505799","136386.407757","137153.326719","137919.952276","140979.083505","Mapping"
"Blocked","Male","tile","17","M_cad.wav","None","726.028951583","141","131803.359352","138669.42614","139436.064992","140202.325415","140969.357535","141735.92775","142502.982748","128669.829612","132569.868042","133319.596665","134085.824625","134852.926309","135619.505799","136386.407757","137153.326719","137919.952276","141745.342074","Mapping"
"Blocked","Male","tile","17","M_dime.wav","None","722.977721365","141","131803.359352","138669.42614","139436.064992","140202.325415","140969.357535","141735.92775","142502.982748","143269.867083","132569.868042","133319.596665","134085.824625","134852.926309","135619.505799","136386.407757","137153.326719","137919.952276","142512.886493","Mapping"
"Blocked","Male","ball","4","M_reek.wav","None","720.380666433","141","146386.492161","138669.42614","139436.064992","140202.325415","140969.357535","141735.92775","142502.982748","143269.867083","132569.868042","133319.596665","134085.824625","134852.926309","135619.505799","136386.407757","137153.326719","137919.952276","143279.884604","Mapping"
"Blocked","Male","ball","4","M_park.wav","None","720.832986757","141","146386.492161","138669.42614","139436.064992","140202.325415","140969.357535","141735.92775","142502.982748","143269.867083","147136.144728","133319.596665","134085.824625","134852.926309","135619.505799","136386.407757","137153.326719","137919.952276","146396.06169","Mapping"
"Blocked","Male","ball","4","M_dime.wav","None","735.460280092","141","146386.492161","138669.42614","139436.064992","140202.325415","140969.357535","141735.92775","142502.982748","143269.867083","147136.144728","147902.567776","134085.824625","134852.926309","135619.505799","136386.407757","137153.326719","137919.952276","147145.898524","Mapping"
"Blocked","Male","ball","4","M_ball.wav","None","733.7706486","141","146386.492161","138669.42614","139436.064992","140202.325415","140969.357535","141735.92775","142502.982748","143269.867083","147136.144728","147902.567776","148669.281447","134852.926309","135619.505799","136386.407757","137153.326719","137919.952276","147911.987974","Mapping"
"Blocked","Male","ball","4","M_cad.wav","space","554.844079306","141","146386.492161","138669.42614","139436.064992","140202.325415","140969.357535","141735.92775","142502.982748","143269.867083","147136.144728","147902.567776","148669.281447","149435.743143","135619.505799","136386.407757","137153.326719","137919.952276","148678.944965","Mapping"
"Blocked","Male","ball","4","M_ball.wav","None","729.247753741","141","146386.492161","138669.42614","139436.064992","140202.325415","140969.357535","141735.92775","142502.982748","143269.867083","147136.144728","147902.567776","148669.281447","149435.743143","150202.259561","136386.407757","137153.326719","137919.952276","149444.807792","Mapping"
"Blocked","Male","ball","4","M_tile.wav","space","510.1441273","141","146386.492161","138669.42614","139436.064992","140202.325415","140969.357535","141735.92775","142502.982748","143269.867083","147136.144728","147902.567776","148669.281447","149435.743143","150202.259561","150969.732253","137153.326719","137919.952276","150211.661518","Mapping"
"Blocked","Male","ball","4","M_ball.wav","None","722.784487996","141","146386.492161","138669.42614","139436.064992","140202.325415","140969.357535","141735.92775","142502.982748","143269.867083","147136.144728","147902.567776","148669.281447","149435.743143","150202.259561","150969.732253","151736.087902","137919.952276","150979.633215","Mapping"
"Blocked","Male","ball","4","M_jaw.wav","space","568.137908587","141","146386.492161","138669.42614","139436.064992","140202.325415","140969.357535","141735.92775","142502.982748","143269.867083","147136.144728","147902.567776","148669.281447","149435.743143","150202.259561","150969.732253","151736.087902","152485.898456","151745.606726","Mapping"
"Blocked","Male","ball","4","M_priest.wav","None","735.638982151","141","146386.492161","153252.515974","139436.064992","140202.325415","140969.357535","141735.92775","142502.982748","143269.867083","147136.144728","147902.567776","148669.281447","149435.743143","150202.259561","150969.732253","151736.087902","152485.898456","152495.259911","Mapping"
"Blocked","Male","ball","4","M_jolt.wav","None","738.868914545","141","146386.492161","153252.515974","154019.147715","140202.325415","140969.357535","141735.92775","142502.982748","143269.867083","147136.144728","147902.567776","148669.281447","149435.743143","150202.259561","150969.732253","151736.087902","152485.898456","153256.590877","Mapping"
"Blocked","Male","ball","4","M_romp.wav","None","731.068783905","141","146386.492161","153252.515974","154019.147715","154785.564889","140969.357535","141735.92775","142502.982748","143269.867083","147136.144728","147902.567776","148669.281447","149435.743143","150202.259561","150969.732253","151736.087902","152485.898456","154028.811232","Mapping"
"Blocked","Male","ball","4","M_dime.wav","None","729.662045836","141","146386.492161","153252.515974","154019.147715","154785.564889","155552.384297","141735.92775","142502.982748","143269.867083","147136.144728","147902.567776","148669.281447","149435.743143","150202.259561","150969.732253","151736.087902","152485.898456","154794.619335","Mapping"
"Blocked","Male","ball","4","M_done.wav","None","726.997282007","141","146386.492161","153252.515974","154019.147715","154785.564889","155552.384297","156319.131978","142502.982748","143269.867083","147136.144728","147902.567776","148669.281447","149435.743143","150202.259561","150969.732253","151736.087902","152485.898456","155561.673715","Mapping"
"Blocked","Male","ball","4","M_ball.wav","None","724.427434383","141","146386.492161","153252.515974","154019.147715","154785.564889","155552.384297","156319.131978","157085.935618","143269.867083","147136.144728","147902.567776","148669.281447","149435.743143","150202.259561","150969.732253","151736.087902","152485.898456","156328.652039","Mapping"
"Blocked","Male","ball","4","M_dime.wav","space","506.175889284","141","146386.492161","153252.515974","154019.147715","154785.564889","155552.384297","156319.131978","157085.935618","157852.681444","147136.144728","147902.567776","148669.281447","149435.743143","150202.259561","150969.732253","151736.087902","152485.898456","157095.463409","Mapping"
"Blocked","Male","tile","14","M_cling.wav","None","719.030816224","141","160969.046816","153252.515974","154019.147715","154785.564889","155552.384297","156319.131978","157085.935618","157852.681444","147136.144728","147902.567776","148669.281447","149435.743143","150202.259561","150969.732253","151736.087902","152485.898456","157862.475123","Mapping"
"Blocked","Male","tile","14","M_knife.wav","None","721.175550716","141","160969.046816","153252.515974","154019.147715","154785.564889","155552.384297","156319.131978","157085.935618","157852.681444","161718.634456","147902.567776","148669.281447","149435.743143","150202.259561","150969.732253","151736.087902","152485.898456","160978.462067","Mapping"
"Blocked","Male","tile","14","M_done.wav","None","736.478078295","141","160969.046816","153252.515974","154019.147715","154785.564889","155552.384297","156319.131978","157085.935618","157852.681444","161718.634456","162485.60907","148669.281447","149435.743143","150202.259561","150969.732253","151736.087902","152485.898456","161727.586257","Mapping"
"Blocked","Male","tile","14","M_romp.wav","None","733.618535218","141","160969.046816","153252.515974","154019.147715","154785.564889","155552.384297","156319.131978","157085.935618","157852.681444","161718.634456","162485.60907","163252.343456","149435.743143","150202.259561","150969.732253","151736.087902","152485.898456","162494.933733","Mapping"
"Blocked","Male","tile","14","M_tile.wav","None","731.270055636","141","160969.046816","153252.515974","154019.147715","154785.564889","155552.384297","156319.131978","157085.935618","157852.681444","161718.634456","162485.60907","163252.343456","164019.055581","150202.259561","150969.732253","151736.087902","152485.898456","163261.917313","Mapping"
"Blocked","Male","tile","14","M_jaw.wav","space","572.978015058","141","160969.046816","153252.515974","154019.147715","154785.564889","155552.384297","156319.131978","157085.935618","157852.681444","161718.634456","162485.60907","163252.343456","164019.055581","164785.356506","150969.732253","151736.087902","152485.898456","164028.535759","Mapping"
"Blocked","Male","tile","14","M_tile.wav","None","727.333971648","141","160969.046816","153252.515974","154019.147715","154785.564889","155552.384297","156319.131978","157085.935618","157852.681444","161718.634456","162485.60907","163252.343456","164019.055581","164785.356506","165551.920537","151736.087902","152485.898456","164794.589964","Mapping"
"Blocked","Male","tile","14","M_park.wav","space","504.454412847","141","160969.046816","153252.515974","154019.147715","154785.564889","155552.384297","156319.131978","157085.935618","157852.681444","161718.634456","162485.60907","163252.343456","164019.055581","164785.356506","165551.920537","166319.374369","152485.898456","165561.024452","Mapping"
"Blocked","Male","tile","14","M_ball.wav","None","721.991458791","141","160969.046816","153252.515974","154019.147715","154785.564889","155552.384297","156319.131978","157085.935618","157852.681444","161718.634456","162485.60907","163252.343456","164019.055581","164785.356506","165551.920537","166319.374369","167085.859253","166329.076224","Mapping"
"Blocked","Male","tile","14","M_jolt.wav","None","720.444046892","141","160969.046816","167835.193989","154019.147715","154785.564889","155552.384297","156319.131978","157085.935618","157852.681444","161718.634456","162485.60907","163252.343456","164019.055581","164785.356506","165551.920537","166319.374369","167085.859253","167095.374676","Mapping"
"Blocked","Male","tile","14","M_tile.wav","None","735.456879134","141","160969.046816","167835.193989","168602.340194","154785.564889","155552.384297","156319.131978","157085.935618","157852.681444","161718.634456","162485.60907","163252.343456","164019.055581","164785.356506","165551.920537","166319.374369","167085.859253","167844.950877","Mapping"
"Blocked","Male","tile","14","M_cling.wav","space","446.076638415","141","160969.046816","167835.193989","168602.340194","169368.923394","155552.384297","156319.131978","157085.935618","157852.681444","161718.634456","162485.60907","163252.343456","164019.055581","164785.356506","165551.920537","166319.374369","167085.859253","168611.350428","Mapping"
"Blocked","Male","tile","14","M_greet.wav","None","730.422302848","141","160969.046816","167835.193989","168602.340194","169368.923394","170135.438885","156319.131978","157085.935618","157852.681444","161718.634456","162485.60907","163252.343456","164019.055581","164785.356506","165551.920537","166319.374369","167085.859253","169378.496015","Mapping"
"Blocked","Male","tile","14","M_tile.wav","None","728.830988286","141","160969.046816","167835.193989","168602.340194","169368.923394","170135.438885","170902.185329","157085.935618","157852.681444","161718.634456","162485.60907","163252.343456","164019.055581","164785.356506","165551.920537","166319.374369","167085.859253","170145.017689","Mapping"
"Blocked","Male","tile","14","M_cling.wav","space","529.603797593","141","160969.046816","167835.193989","168602.340194","169368.923394","170135.438885","170902.185329","171668.828818","157852.681444","161718.634456","162485.60907","163252.343456","164019.055581","164785.356506","165551.920537","166319.374369","167085.859253","170911.746819","Mapping"
"Blocked","Male","tile","14","M_jaw.wav","None","724.57150917","141","160969.046816","167835.193989","168602.340194","169368.923394","170135.438885","170902.185329","171668.828818","172435.779007","161718.634456","162485.60907","163252.343456","164019.055581","164785.356506","165551.920537","166319.374369","167085.859253","171678.284262","Mapping"
"Blocked","Male","done","21","M_ball.wav","None","721.609939006","141","175552.490653","167835.193989","168602.340194","169368.923394","170135.438885","170902.185329","171668.828818","172435.779007","161718.634456","162485.60907","163252.343456","164019.055581","164785.356506","165551.920537","166319.374369","167085.859253","172445.954515","Mapping"
"Blocked","Male","done","21","M_tile.wav","None","720.023262198","141","175552.490653","167835.193989","168602.340194","169368.923394","170135.438885","170902.185329","171668.828818","172435.779007","176302.211856","162485.60907","163252.343456","164019.055581","164785.356506","165551.920537","166319.374369","167085.859253","175562.466126","Mapping"
"Blocked","Male","done","21","M_done.wav","None","735.416995827","141","175552.490653","167835.193989","168602.340194","169368.923394","170135.438885","170902.185329","171668.828818","172435.779007","176302.211856","177068.744661","163252.343456","164019.055581","164785.356506","165551.920537","166319.374369","167085.859253","176311.731608","Mapping"
"Blocked","Male","done","21","M_jolt.wav","space","643.366549863","141","175552.490653","167835.193989","168602.340194","169368.923394","170135.438885","170902.185329","171668.828818","172435.779007","176302.211856","177068.744661","177835.355687","164019.055581","164785.356506","165551.920537","166319.374369","167085.859253","177077.915666","Mapping"
"Blocked","Male","done","21","M_done.wav","None","730.853908462","141","175552.490653","167835.193989","168602.340194","169368.923394","170135.438885","170902.185329","171668.828818","172435.779007","176302.211856","177068.744661","177835.355687","178602.160873","164785.356506","165551.920537","166319.374369","167085.859253","177844.855033","Mapping"
"Blocked","Male","done","21","M_greet.wav","space","613.614503643","141","175552.490653","167835.193989","168602.340194","169368.923394","170135.438885","170902.185329","171668.828818","172435.779007","176302.211856","177068.744661","177835.355687","178602.160873","179368.713774","165551.920537","166319.374369","167085.859253","178611.63394","Mapping"
"Blocked","Male","done","21","M_cling.wav","None","726.312772604","141","175552.490653","167835.193989","168602.340194","169368.923394","170135.438885","170902.185329","171668.828818","172435.779007","176302.211856","177068.744661","177835.355687","178602.160873","179368.713774","180135.88595","166319.374369","167085.859253","179378.181276","Mapping"
"Blocked","Male","done","21","M_ball.wav","None","723.17002702","141","175552.490653","167835.193989","168602.340194","169368.923394","170135.438885","170902.185329","171668.828818","172435.779007","176302.211856","177068.744661","177835.355687","178602.160873","179368.713774","180135.88595","180902.378562","167085.859253","180145.825868","Mapping"
"Blocked","Male","done","21","M_done.wav","None","721.252844087","141","175552.490653","167835.193989","168602.340194","169368.923394","170135.438885","170902.185329","171668.828818","172435.779007","176302.211856","177068.744661","177835.355687","178602.160873","179368.713774","180135.88595","180902.378562","181669.033181","180912.482651","Mapping"
"Blocked","Male","done","21","M_depth.wav","space","642.36761129","141","175552.490653","182418.282586","168602.340194","169368.923394","170135.438885","170902.185329","171668.828818","172435.779007","176302.211856","177068.744661","177835.355687","178602.160873","179368.713774","180135.88595","180902.378562","181669.033181","181678.840774","Mapping"
"Blocked","Male","done","21","M_done.wav","None","734.939323156","141","175552.490653","182418.282586","183185.241432","169368.923394","170135.438885","170902.185329","171668.828818","172435.779007","176302.211856","177068.744661","177835.355687","178602.160873","179368.713774","180135.88595","180902.378562","181669.033181","182427.330849","Mapping"
"Blocked","Male","done","21","M_greet.wav","space","622.520237695","141","175552.490653","182418.282586","183185.241432","183952.030232","170135.438885","170902.185329","171668.828818","172435.779007","176302.211856","177068.744661","177835.355687","178602.160873","179368.713774","180135.88595","180902.378562","181669.033181","183194.670905","Mapping"
"Blocked","Male","done","21","M_cad.wav","None","735.047224676","141","175552.490653","182418.282586","183185.241432","183952.030232","184718.628891","170902.185329","171668.828818","172435.779007","176302.211856","177068.744661","177835.355687","178602.160873","179368.713774","180135.88595","180902.378562","181669.033181","183955.8377","Mapping"
"Blocked","Male","done","21","M_jolt.wav","None","727.376328432","141","175552.490653","182418.282586","183185.241432","183952.030232","184718.628891","185485.256303","171668.828818","172435.779007","176302.211856","177068.744661","177835.355687","178602.160873","179368.713774","180135.88595","180902.378562","181669.033181","184728.167193","Mapping"
"Blocked","Male","done","21","M_knife.wav","None","725.846230169","141","175552.490653","182418.282586","183185.241432","183952.030232","184718.628891","185485.256303","186252.335726","172435.779007","176302.211856","177068.744661","177835.355687","178602.160873","179368.713774","180135.88595","180902.378562","181669.033181","185494.477703","Mapping"
"Blocked","Male","done","21","M_knife.wav","None","722.363703302","141","175552.490653","182418.282586","183185.241432","183952.030232","184718.628891","185485.256303","186252.335726","187018.675916","176302.211856","177068.744661","177835.355687","178602.160873","179368.713774","180135.88595","180902.378562","181669.033181","186262.723018","Mapping"
"Blocked","Male","done","23","M_depth.wav","None","721.720932284","141","190135.37334","182418.282586","183185.241432","183952.030232","184718.628891","185485.256303","186252.335726","187018.675916","176302.211856","177068.744661","177835.355687","178602.160873","179368.713774","180135.88595","180902.378562","181669.033181","187027.925451","Mapping"
"Blocked","Male","done","23","M_knife.wav","None","721.336320858","141","190135.37334","182418.282586","183185.241432","183952.030232","184718.628891","185485.256303","186252.335726","187018.675916","190901.701473","177068.744661","177835.355687","178602.160873","179368.713774","180135.88595","180902.378562","181669.033181","190144.91257","Mapping"
"Blocked","Male","done","23","M_tile.wav","None","719.987088931","141","190135.37334","182418.282586","183185.241432","183952.030232","184718.628891","185485.256303","186252.335726","187018.675916","190901.701473","191668.097623","177835.355687","178602.160873","179368.713774","180135.88595","180902.378562","181669.033181","190910.956882","Mapping"
"Blocked","Male","done","23","M_done.wav","None","720.175684546","141","190135.37334","182418.282586","183185.241432","183952.030232","184718.628891","185485.256303","186252.335726","187018.675916","190901.701473","191668.097623","192417.900139","178602.160873","179368.713774","180135.88595","180902.378562","181669.033181","191676.979551","Mapping"
"Blocked","Male","done","23","M_cad.wav","space","598.323724815","141","190135.37334","182418.282586","183185.241432","183952.030232","184718.628891","185485.256303","186252.335726","187018.675916","190901.701473","191668.097623","192417.900139","193185.251944","179368.713774","180135.88595","180902.378562","181669.033181","192426.676638","Mapping"
"Blocked","Male","done","23","M_done.wav","None","731.260780478","141","190135.37334","182418.282586","183185.241432","183952.030232","184718.628891","185485.256303","186252.335726","187018.675916","190901.701473","191668.097623","192417.900139","193185.251944","193951.753522","180135.88595","180902.378562","181669.033181","193194.681726","Mapping"
"Blocked","Male","done","23","M_lash.wav","space","704.076726804","141","190135.37334","182418.282586","183185.241432","183952.030232","184718.628891","185485.256303","186252.335726","187018.675916","190901.701473","191668.097623","192417.900139","193185.251944","193951.753522","194718.471522","180902.378562","181669.033181","193960.907831","Mapping"
"Blocked","Male","done","23","M_done.wav","None","726.577115594","141","190135.37334","182418.282586","183185.241432","183952.030232","184718.628891","185485.256303","186252.335726","187018.675916","190901.701473","191668.097623","192417.900139","193185.251944","193951.753522","194718.471522","195485.206835","181669.033181","194728.013844","Mapping"
"Blocked","Male","done","23","M_depth.wav","space","497.987746261","141","190135.37334","182418.282586","183185.241432","183952.030232","184718.628891","185485.256303","186252.335726","187018.675916","190901.701473","191668.097623","192417.900139","193185.251944","193951.753522","194718.471522","195485.206835","196251.958535","195494.963105","Mapping"
"Blocked","Male","done","23","M_knife.wav","None","720.869160024","141","190135.37334","197018.79433","183185.241432","183952.030232","184718.628891","185485.256303","186252.335726","187018.675916","190901.701473","191668.097623","192417.900139","193185.251944","193951.753522","194718.471522","195485.206835","196251.958535","196262.394985","Mapping"
"Blocked","Male","done","23","M_jolt.wav","None","719.207044924","141","190135.37334","197018.79433","197768.163075","183952.030232","184718.628891","185485.256303","186252.335726","187018.675916","190901.701473","191668.097623","192417.900139","193185.251944","193951.753522","194718.471522","195485.206835","196251.958535","197028.725591","Mapping"
"Blocked","Male","done","23","M_gnash.wav","None","734.867285821","141","190135.37334","197018.79433","197768.163075","198534.783685","184718.628891","185485.256303","186252.335726","187018.675916","190901.701473","191668.097623","192417.900139","193185.251944","193951.753522","194718.471522","195485.206835","196251.958535","197777.984889","Mapping"
"Blocked","Male","done","23","M_cling.wav","None","733.493938576","141","190135.37334","197018.79433","197768.163075","198534.783685","199301.688735","185485.256303","186252.335726","187018.675916","190901.701473","191668.097623","192417.900139","193185.251944","193951.753522","194718.471522","195485.206835","196251.958535","198543.972313","Mapping"
"Blocked","Male","done","23","M_done.wav","None","731.270055636","141","190135.37334","197018.79433","197768.163075","198534.783685","199301.688735","200068.312746","186252.335726","187018.675916","190901.701473","191668.097623","192417.900139","193185.251944","193951.753522","194718.471522","195485.206835","196251.958535","199310.897459","Mapping"
"Blocked","Male","done","23","M_priest.wav","space","626.993046375","141","190135.37334","197018.79433","197768.163075","198534.783685","199301.688735","200068.312746","200835.17482","187018.675916","190901.701473","191668.097623","192417.900139","193185.251944","193951.753522","194718.471522","195485.206835","196251.958535","200077.871763","Mapping"
"Blocked","Male","done","23","M_romp.wav","None","726.44386196","141","190135.37334","197018.79433","197768.163075","198534.783685","199301.688735","200068.312746","200835.17482","201601.667124","190901.701473","191668.097623","192417.900139","193185.251944","193951.753522","194718.471522","195485.206835","196251.958535","200844.441978","Mapping"
"Blocked","Male","ball","1","M_greet.wav","None","724.903251976","141","204718.669393","197018.79433","197768.163075","198534.783685","199301.688735","200068.312746","200835.17482","201601.667124","190901.701473","191668.097623","192417.900139","193185.251944","193951.753522","194718.471522","195485.206835","196251.958535","201610.95716","Mapping"
"Blocked","Male","ball","1","M_depth.wav","None","720.123434323","141","204718.669393","197018.79433","197768.163075","198534.783685","199301.688735","200068.312746","200835.17482","201601.667124","205468.076785","191668.097623","192417.900139","193185.251944","193951.753522","194718.471522","195485.206835","196251.958535","204728.737618","Mapping"
"Blocked","Male","ball","1","M_ball.wav","None","736.572066904","141","204718.669393","197018.79433","197768.163075","198534.783685","199301.688735","200068.312746","200835.17482","201601.667124","205468.076785","206234.856619","192417.900139","193185.251944","193951.753522","194718.471522","195485.206835","196251.958535","205477.075889","Mapping"
"Blocked","Male","ball","1","M_greet.wav","space","428.349265596","141","204718.669393","197018.79433","197768.163075","198534.783685","199301.688735","200068.312746","200835.17482","201601.667124","205468.076785","206234.856619","207001.732607","193185.251944","193951.753522","194718.471522","195485.206835","196251.958535","206244.404815","Mapping"
"Blocked","Male","ball","1","M_lash.wav","None","731.246558484","141","204718.669393","197018.79433","197768.163075","198534.783685","199301.688735","200068.312746","200835.17482","201601.667124","205468.076785","206234.856619","207001.732607","207768.230784","193951.753522","194718.471522","195485.206835","196251.958535","207011.198253","Mapping"
"Blocked","Male","ball","1","M_cave.wav","None","729.138615658","141","204718.669393","197018.79433","197768.163075","198534.783685","199301.688735","200068.312746","200835.17482","201601.667124","205468.076785","206234.856619","207001.732607","207768.230784","208534.663726","194718.471522","195485.206835","196251.958535","207778.099902","Mapping"
"Blocked","Male","ball","1","M_greet.wav","None","728.119580774","141","204718.669393","197018.79433","197768.163075","198534.783685","199301.688735","200068.312746","200835.17482","201601.667124","205468.076785","206234.856619","207001.732607","207768.230784","208534.663726","209301.526419","195485.206835","196251.958535","208543.86874","Mapping"
"Blocked","Male","ball","1","M_park.wav","None","725.71946925","141","204718.669393","197018.79433","197768.163075","198534.783685","199301.688735","200068.312746","200835.17482","201601.667124","205468.076785","206234.856619","207001.732607","207768.230784","208534.663726","209301.526419","210068.484337","196251.958535","209311.08389","Mapping"
"Blocked","Male","ball","1","M_gnash.wav","None","723.193833372","141","204718.669393","197018.79433","197768.163075","198534.783685","199301.688735","200068.312746","200835.17482","201601.667124","205468.076785","206234.856619","207001.732607","207768.230784","208534.663726","209301.526419","210068.484337","210834.770422","210078.378498","Mapping"
"Blocked","Male","ball","1","M_ball.wav","None","721.660952666","141","204718.669393","211601.749055","197768.163075","198534.783685","199301.688735","200068.312746","200835.17482","201601.667124","205468.076785","206234.856619","207001.732607","207768.230784","208534.663726","209301.526419","210068.484337","210834.770422","210844.630574","Mapping"
"Blocked","Male","ball","1","M_gnash.wav","space","556.935635977","141","204718.669393","211601.749055","212351.336386","198534.783685","199301.688735","200068.312746","200835.17482","201601.667124","205468.076785","206234.856619","207001.732607","207768.230784","208534.663726","209301.526419","210068.484337","210834.770422","211611.742769","Mapping"
"Blocked","Male","ball","1","M_cave.wav","None","734.354676679","141","204718.669393","211601.749055","212351.336386","213118.165997","199301.688735","200068.312746","200835.17482","201601.667124","205468.076785","206234.856619","207001.732607","207768.230784","208534.663726","209301.526419","210068.484337","210834.770422","212360.885818","Mapping"
"Blocked","Male","ball","1","M_ball.wav","None","731.951473397","141","204718.669393","211601.749055","212351.336386","213118.165997","213884.730028","200068.312746","200835.17482","201601.667124","205468.076785","206234.856619","207001.732607","207768.230784","208534.663726","209301.526419","210068.484337","210834.770422","213128.073761","Mapping"
"Blocked","Male","ball","1","M_bluff.wav","space","546.510934015","141","204718.669393","211601.749055","212351.336386","213118.165997","213884.730028","214651.358059","200835.17482","201601.667124","205468.076785","206234.856619","207001.732607","207768.230784","208534.663726","209301.526419","210068.484337","210834.770422","213894.099213","Mapping"
"Blocked","Male","ball","1","M_ball.wav","None","728.575302055","141","204718.669393","211601.749055","212351.336386","213118.165997","213884.730028","214651.358059","215418.042049","201601.667124","205468.076785","206234.856619","207001.732607","207768.230784","208534.663726","209301.526419","210068.484337","210834.770422","214660.582859","Mapping"
"Blocked","Male","ball","1","M_bluff.wav","None","726.448808797","141","204718.669393","211601.749055","212351.336386","213118.165997","213884.730028","214651.358059","215418.042049","216184.572072","205468.076785","206234.856619","207001.732607","207768.230784","208534.663726","209301.526419","210068.484337","210834.770422","215427.516044","Mapping"
"Blocked","Male","cave","10","M_ball.wav","space","182.455162867","141","219301.713469","211601.749055","212351.336386","213118.165997","213884.730028","214651.358059","215418.042049","216184.572072","205468.076785","206234.856619","207001.732607","207768.230784","208534.663726","209301.526419","210068.484337","210834.770422","216194.12676","Mapping"
"Blocked","Male","cave","10","M_cave.wav","None","721.080325311","141","219301.713469","211601.749055","212351.336386","213118.165997","213884.730028","214651.358059","215418.042049","216184.572072","220068.441671","206234.856619","207001.732607","207768.230784","208534.663726","209301.526419","210068.484337","210834.770422","219311.454589","Mapping"
"Blocked","Male","cave","10","M_lash.wav","space","538.443986909","141","219301.713469","211601.749055","212351.336386","213118.165997","213884.730028","214651.358059","215418.042049","216184.572072","220068.441671","220817.866068","207001.732607","207768.230784","208534.663726","209301.526419","210068.484337","210834.770422","220078.139198","Mapping"
"Blocked","Male","cave","10","M_priest.wav","None","733.546807081","141","219301.713469","211601.749055","212351.336386","213118.165997","213884.730028","214651.358059","215418.042049","216184.572072","220068.441671","220817.866068","221584.453597","207768.230784","208534.663726","209301.526419","210068.484337","210834.770422","220827.604405","Mapping"
"Blocked","Male","cave","10","M_cave.wav","None","732.517878758","141","219301.713469","211601.749055","212351.336386","213118.165997","213884.730028","214651.358059","215418.042049","216184.572072","220068.441671","220817.866068","221584.453597","222351.228484","208534.663726","209301.526419","210068.484337","210834.770422","221593.456102","Mapping"
"Blocked","Male","cave","10","M_romp.wav","space","471.607233747","141","219301.713469","211601.749055","212351.336386","213118.165997","213884.730028","214651.358059","215418.042049","216184.572072","220068.441671","220817.866068","221584.453597","222351.228484","223117.968435","209301.526419","210068.484337","210834.770422","222360.869432","Mapping"
"Blocked","Male","cave","10","M_priest.wav","None","727.198862936","141","219301.713469","211601.749055","212351.336386","213118.165997","213884.730028","214651.358059","215418.042049","216184.572072","220068.441671","220817.866068","221584.453597","222351.228484","223117.968435","223884.434459","210068.484337","210834.770422","223127.461289","Mapping"
"Blocked","Male","cave","10","M_cave.wav","None","725.958150928","141","219301.713469","211601.749055","212351.336386","213118.165997","213884.730028","214651.358059","215418.042049","216184.572072","220068.441671","220817.866068","221584.453597","222351.228484","223117.968435","223884.434459","224651.304881","210834.770422","223893.46479","Mapping"
"Blocked","Male","cave","10","M_bluff.wav","space","539.654400083","141","219301.713469","211601.749055","212351.336386","213118.165997","213884.730028","214651.358059","215418.042049","216184.572072","220068.441671","220817.866068","221584.453597","222351.228484","223117.968435","223884.434459","224651.304881","225418.251978","224660.736828","Mapping"
"Blocked","Male","cave","10","M_lash.wav","None","720.056652906","141","219301.713469","226167.787368","212351.336386","213118.165997","213884.730028","214651.358059","215418.042049","216184.572072","220068.441671","220817.866068","221584.453597","222351.228484","223117.968435","223884.434459","224651.304881","225418.251978","225428.369671","Mapping"
"Blocked","Male","cave","10","M_priest.wav","None","736.538676196","141","219301.713469","226167.787368","226934.116119","213118.165997","213884.730028","214651.358059","215418.042049","216184.572072","220068.441671","220817.866068","221584.453597","222351.228484","223117.968435","223884.434459","224651.304881","225418.251978","226176.837177","Mapping"
"Blocked","Male","cave","10","M_jolt.wav","None","734.740215586","141","219301.713469","226167.787368","226934.116119","227701.139891","213884.730028","214651.358059","215418.042049","216184.572072","220068.441671","220817.866068","221584.453597","222351.228484","223117.968435","223884.434459","224651.304881","225418.251978","226943.329171","Mapping"
"Blocked","Male","cave","10","M_reek.wav","None","732.597336173","141","219301.713469","226167.787368","226934.116119","227701.139891","228467.886334","214651.358059","215418.042049","216184.572072","220068.441671","220817.866068","221584.453597","222351.228484","223117.968435","223884.434459","224651.304881","225418.251978","227710.444767","Mapping"
"Blocked","Male","cave","10","M_cave.wav","None","730.461876956","141","219301.713469","226167.787368","226934.116119","227701.139891","228467.886334","229234.722747","215418.042049","216184.572072","220068.441671","220817.866068","221584.453597","222351.228484","223117.968435","223884.434459","224651.304881","225418.251978","228477.38228","Mapping"
"Blocked","Male","cave","10","M_priest.wav","space","652.029582998","141","219301.713469","226167.787368","226934.116119","227701.139891","228467.886334","229234.722747","230001.01347","216184.572072","220068.441671","220817.866068","221584.453597","222351.228484","223117.968435","223884.434459","224651.304881","225418.251978","229244.323812","Mapping"
"Blocked","Male","cave","10","M_reek.wav","None","726.355747669","141","219301.713469","226167.787368","226934.116119","227701.139891","228467.886334","229234.722747","230001.01347","230768.066613","220068.441671","220817.866068","221584.453597","222351.228484","223117.968435","223884.434459","224651.304881","225418.251978","230010.389147","Mapping"
"Blocked","Male","cave","8","M_romp.wav","None","723.355530994","141","233884.681488","226167.787368","226934.116119","227701.139891","228467.886334","229234.722747","230001.01347","230768.066613","220068.441671","220817.866068","221584.453597","222351.228484","223117.968435","223884.434459","224651.304881","225418.251978","230778.305193","Mapping"
"Blocked","Male","cave","8","M_knife.wav","None","721.127319732","141","233884.681488","226167.787368","226934.116119","227701.139891","228467.886334","229234.722747","230001.01347","230768.066613","234651.631986","220817.866068","221584.453597","222351.228484","223117.968435","223884.434459","224651.304881","225418.251978","233894.134459","Mapping"
"Blocked","Male","cave","8","M_reek.wav","None","718.807902304","141","233884.681488","226167.787368","226934.116119","227701.139891","228467.886334","229234.722747","230001.01347","230768.066613","234651.631986","235400.580875","221584.453597","222351.228484","223117.968435","223884.434459","224651.304881","225418.251978","234661.638377","Mapping"
"Blocked","Male","cave","8","M_cave.wav","None","735.740700155","141","233884.681488","226167.787368","226934.116119","227701.139891","228467.886334","229234.722747","230001.01347","230768.066613","234651.631986","235400.580875","236167.305367","222351.228484","223117.968435","223884.434459","224651.304881","225418.251978","235409.715397","Mapping"
"Blocked","Male","cave","8","M_greet.wav","space","599.883194431","141","233884.681488","226167.787368","226934.116119","227701.139891","228467.886334","229234.722747","230001.01347","230768.066613","234651.631986","235400.580875","236167.305367","236934.294202","223117.968435","223884.434459","224651.304881","225418.251978","236176.343427","Mapping"
"Blocked","Male","cave","8","M_cave.wav","None","730.39602302","141","233884.681488","226167.787368","226934.116119","227701.139891","228467.886334","229234.722747","230001.01347","230768.066613","234651.631986","235400.580875","236167.305367","236934.294202","237701.112065","223884.434459","224651.304881","225418.251978","236943.847345","Mapping"
"Blocked","Male","cave","8","M_lash.wav","space","457.899112371","141","233884.681488","226167.787368","226934.116119","227701.139891","228467.886334","229234.722747","230001.01347","230768.066613","234651.631986","235400.580875","236167.305367","236934.294202","237701.112065","238467.646107","224651.304881","225418.251978","237710.305949","Mapping"
"Blocked","Male","cave","8","M_dime.wav","None","725.828916533","141","233884.681488","226167.787368","226934.116119","227701.139891","228467.886334","229234.722747","230001.01347","230768.066613","234651.631986","235400.580875","236167.305367","236934.294202","237701.112065","238467.646107","239234.637416","225418.251978","238477.27376","Mapping"
"Blocked","Male","cave","8","M_cave.wav","None","723.753127619","141","233884.681488","226167.787368","226934.116119","227701.139891","228467.886334","229234.722747","230001.01347","230768.066613","234651.631986","235400.580875","236167.305367","236934.294202","237701.112065","238467.646107","239234.637416","240001.283069","239244.261668","Mapping"
"Blocked","Male","cave","8","M_dime.wav","space","612.953182193","141","233884.681488","240767.935833","226934.116119","227701.139891","228467.886334","229234.722747","230001.01347","230768.066613","234651.631986","235400.580875","236167.305367","236934.294202","237701.112065","238467.646107","239234.637416","240001.283069","240011.191142","Mapping"
"Blocked","Male","cave","8","M_greet.wav","None","719.2701163","141","233884.681488","240767.935833","241517.351264","227701.139891","228467.886334","229234.722747","230001.01347","230768.066613","234651.631986","235400.580875","236167.305367","236934.294202","237701.112065","238467.646107","239234.637416","240001.283069","240777.791965","Mapping"
"Blocked","Male","cave","8","M_bluff.wav","None","735.157599556","141","233884.681488","240767.935833","241517.351264","242283.876649","228467.886334","229234.722747","230001.01347","230768.066613","234651.631986","235400.580875","236167.305367","236934.294202","237701.112065","238467.646107","239234.637416","240001.283069","241526.715192","Mapping"
"Blocked","Male","cave","8","M_cave.wav","None","733.640795806","141","233884.681488","240767.935833","241517.351264","242283.876649","243050.838895","229234.722747","230001.01347","230768.066613","234651.631986","235400.580875","236167.305367","236934.294202","237701.112065","238467.646107","239234.637416","240001.283069","242293.155245","Mapping"
"Blocked","Male","cave","8","M_gnash.wav","space","523.954275763","141","233884.681488","240767.935833","241517.351264","242283.876649","243050.838895","243817.224843","230001.01347","230768.066613","234651.631986","235400.580875","236167.305367","236934.294202","237701.112065","238467.646107","239234.637416","240001.283069","243060.144699","Mapping"
"Blocked","Male","cave","8","M_depth.wav","None","729.491382255","141","233884.681488","240767.935833","241517.351264","242283.876649","243050.838895","243817.224843","244584.426389","230768.066613","234651.631986","235400.580875","236167.305367","236934.294202","237701.112065","238467.646107","239234.637416","240001.283069","243826.289183","Mapping"
"Blocked","Male","cave","8","M_dime.wav","None","726.608651341","141","233884.681488","240767.935833","241517.351264","242283.876649","243050.838895","243817.224843","244584.426389","245350.842945","234651.631986","235400.580875","236167.305367","236934.294202","237701.112065","238467.646107","239234.637416","240001.283069","244593.971803","Mapping"
"Blocked","Male","ball","5","M_cave.wav","None","725.738328765","141","248484.306832","240767.935833","241517.351264","242283.876649","243050.838895","243817.224843","244584.426389","245350.842945","234651.631986","235400.580875","236167.305367","236934.294202","237701.112065","238467.646107","239234.637416","240001.283069","245360.286641","Mapping"
"Blocked","Male","ball","5","M_done.wav","None","721.39753704","141","248484.306832","240767.935833","241517.351264","242283.876649","243050.838895","243817.224843","244584.426389","245350.842945","249250.81614","235400.580875","236167.305367","236934.294202","237701.112065","238467.646107","239234.637416","240001.283069","248494.09","Mapping"
"Blocked","Male","ball","5","M_done.wav","None","719.791691517","141","248484.306832","240767.935833","241517.351264","242283.876649","243050.838895","243817.224843","244584.426389","245350.842945","249250.81614","250000.590521","236167.305367","236934.294202","237701.112065","238467.646107","239234.637416","240001.283069","249260.650321","Mapping"
"Blocked","Male","ball","5","M_jaw.wav","None","735.391952679","141","248484.306832","240767.935833","241517.351264","242283.876649","243050.838895","243817.224843","244584.426389","245350.842945","249250.81614","250000.590521","250767.000893","236934.294202","237701.112065","238467.646107","239234.637416","240001.283069","250010.07008","Mapping"
"Blocked","Male","ball","5","M_ball.wav","None","734.221423045","141","248484.306832","240767.935833","241517.351264","242283.876649","243050.838895","243817.224843","244584.426389","245350.842945","249250.81614","250000.590521","250767.000893","251533.702507","237701.112065","238467.646107","239234.637416","240001.283069","250776.255065","Mapping"
"Blocked","Male","ball","5","M_park.wav","space","537.142058602","141","248484.306832","240767.935833","241517.351264","242283.876649","243050.838895","243817.224843","244584.426389","245350.842945","249250.81614","250000.590521","250767.000893","251533.702507","252300.743902","238467.646107","239234.637416","240001.283069","251542.825899","Mapping"
"Blocked","Male","ball","5","M_lash.wav","None","729.237860302","141","248484.306832","240767.935833","241517.351264","242283.876649","243050.838895","243817.224843","244584.426389","245350.842945","249250.81614","250000.590521","250767.000893","251533.702507","252300.743902","253067.317827","239234.637416","240001.283069","252310.230881","Mapping"
"Blocked","Male","ball","5","M_depth.wav","None","727.915526484","141","248484.306832","240767.935833","241517.351264","242283.876649","243050.838895","243817.224843","244584.426389","245350.842945","249250.81614","250000.590521","250767.000893","251533.702507","252300.743902","253067.317827","253833.851868","240001.283069","253076.780691","Mapping"
"Blocked","Male","ball","5","M_ball.wav","None","726.770348847","141","248484.306832","240767.935833","241517.351264","242283.876649","243050.838895","243817.224843","244584.426389","245350.842945","249250.81614","250000.590521","250767.000893","251533.702507","252300.743902","253067.317827","253833.851868","254600.678697","253843.016071","Mapping"
"Blocked","Male","ball","5","M_park.wav","space","517.426701961","141","248484.306832","255366.730738","241517.351264","242283.876649","243050.838895","243817.224843","244584.426389","245350.842945","249250.81614","250000.590521","250767.000893","251533.702507","252300.743902","253067.317827","253833.851868","254600.678697","254610.434348","Mapping"
"Blocked","Male","ball","5","M_ball.wav","None","725.676803384","141","248484.306832","255366.730738","256134.161072","242283.876649","243050.838895","243817.224843","244584.426389","245350.842945","249250.81614","250000.590521","250767.000893","251533.702507","252300.743902","253067.317827","253833.851868","254600.678697","255375.613284","Mapping"
"Blocked","Male","ball","5","M_romp.wav","space","631.615185761","141","248484.306832","255366.730738","256134.161072","256901.063339","243050.838895","243817.224843","244584.426389","245350.842945","249250.81614","250000.590521","250767.000893","251533.702507","252300.743902","253067.317827","253833.851868","254600.678697","256144.223733","Mapping"
"Blocked","Male","ball","5","M_ball.wav","None","711.628900724","141","248484.306832","255366.730738","256134.161072","256901.063339","257667.754132","243817.224843","244584.426389","245350.842945","249250.81614","250000.590521","250767.000893","251533.702507","252300.743902","253067.317827","253833.851868","254600.678697","256918.887793","Mapping"
"Blocked","Male","ball","5","M_done.wav","space","617.432483588","141","248484.306832","255366.730738","256134.161072","256901.063339","257667.754132","258417.311782","244584.426389","245350.842945","249250.81614","250000.590521","250767.000893","251533.702507","252300.743902","253067.317827","253833.851868","254600.678697","257678.386598","Mapping"
"Blocked","Male","ball","5","M_bluff.wav","None","733.133442583","141","248484.306832","255366.730738","256134.161072","256901.063339","257667.754132","258417.311782","259183.897456","245350.842945","249250.81614","250000.590521","250767.000893","251533.702507","252300.743902","253067.317827","253833.851868","254600.678697","258427.220474","Mapping"
"Blocked","Male","ball","5","M_dime.wav","None","731.666415697","141","248484.306832","255366.730738","256134.161072","256901.063339","257667.754132","258417.311782","259183.897456","259950.566915","249250.81614","250000.590521","250767.000893","251533.702507","252300.743902","253067.317827","253833.851868","254600.678697","259193.732255","Mapping"
"Blocked","Male","tile","16","M_bluff.wav","None","730.013575871","141","263084.191572","255366.730738","256134.161072","256901.063339","257667.754132","258417.311782","259183.897456","259950.566915","249250.81614","250000.590521","250767.000893","251533.702507","252300.743902","253067.317827","253833.851868","254600.678697","259960.47468","Mapping"
"Blocked","Male","tile","16","M_tile.wav","None","719.288975932","141","263084.191572","255366.730738","256134.161072","256901.063339","257667.754132","258417.311782","259183.897456","259950.566915","263850.94791","250000.590521","250767.000893","251533.702507","252300.743902","253067.317827","253833.851868","254600.678697","263095.636237","Mapping"
"Blocked","Male","tile","16","M_park.wav","space","466.189900995","141","263084.191572","255366.730738","256134.161072","256901.063339","257667.754132","258417.311782","259183.897456","259950.566915","263850.94791","264600.430122","250767.000893","251533.702507","252300.743902","253067.317827","253833.851868","254600.678697","263861.565226","Mapping"
"Blocked","Male","tile","16","M_ball.wav","None","733.858762891","141","263084.191572","255366.730738","256134.161072","256901.063339","257667.754132","258417.311782","259183.897456","259950.566915","263850.94791","264600.430122","265367.091543","251533.702507","252300.743902","253067.317827","253833.851868","254600.678697","264610.314698","Mapping"
"Blocked","Male","tile","16","M_tile.wav","None","732.65917087","141","263084.191572","255366.730738","256134.161072","256901.063339","257667.754132","258417.311782","259183.897456","259950.566915","263850.94791","264600.430122","265367.091543","266133.781408","252300.743902","253067.317827","253833.851868","254600.678697","265377.044755","Mapping"
"Blocked","Male","tile","16","M_greet.wav","space","496.07458245","141","263084.191572","255366.730738","256134.161072","256901.063339","257667.754132","258417.311782","259183.897456","259950.566915","263850.94791","264600.430122","265367.091543","266133.781408","266900.072748","253067.317827","253833.851868","254600.678697","266143.601367","Mapping"
"Blocked","Male","tile","16","M_cave.wav","None","728.941672365","141","263084.191572","255366.730738","256134.161072","256901.063339","257667.754132","258417.311782","259183.897456","259950.566915","263850.94791","264600.430122","265367.091543","266133.781408","266900.072748","267667.142896","253833.851868","254600.678697","266910.264643","Mapping"
"Blocked","Male","tile","16","M_cling.wav","None","727.69972356","141","263084.191572","255366.730738","256134.161072","256901.063339","257667.754132","258417.311782","259183.897456","259950.566915","263850.94791","264600.430122","265367.091543","266133.781408","266900.072748","267667.142896","268433.784839","254600.678697","267676.838259","Mapping"
"Blocked","Male","tile","16","M_ball.wav","None","726.12355859","141","263084.191572","255366.730738","256134.161072","256901.063339","257667.754132","258417.311782","259183.897456","259950.566915","263850.94791","264600.430122","265367.091543","266133.781408","266900.072748","267667.142896","268433.784839","269200.433894","268443.637262","Mapping"
"Blocked","Male","tile","16","M_tile.wav","None","724.633034552","141","263084.191572","269967.641933","256134.161072","256901.063339","257667.754132","258417.311782","259183.897456","259950.566915","263850.94791","264600.430122","265367.091543","266133.781408","266900.072748","267667.142896","268433.784839","269200.433894","269210.261273","Mapping"
"Blocked","Male","tile","16","M_cave.wav","space","389.966649469","141","263084.191572","269967.641933","270733.940075","256901.063339","257667.754132","258417.311782","259183.897456","259950.566915","263850.94791","264600.430122","265367.091543","266133.781408","266900.072748","267667.142896","268433.784839","269200.433894","269977.667183","Mapping"
"Blocked","Male","tile","16","M_bluff.wav","None","720.542982337","141","263084.191572","269967.641933","270733.940075","271500.783909","257667.754132","258417.311782","259183.897456","259950.566915","263850.94791","264600.430122","265367.091543","266133.781408","266900.072748","267667.142896","268433.784839","269200.433894","270744.12826","Mapping"
"Blocked","Male","tile","16","M_priest.wav","None","718.324046349","141","263084.191572","269967.641933","270733.940075","271500.783909","272249.904697","258417.311782","259183.897456","259950.566915","263850.94791","264600.430122","265367.091543","266133.781408","266900.072748","267667.142896","268433.784839","269200.433894","271511.466152","Mapping"
"Blocked","Male","tile","16","M_tile.wav","None","735.409575631","141","263084.191572","269967.641933","270733.940075","271500.783909","272249.904697","273017.016584","259183.897456","259950.566915","263850.94791","264600.430122","265367.091543","266133.781408","266900.072748","267667.142896","268433.784839","269200.433894","272259.605006","Mapping"
"Blocked","Male","tile","16","M_cave.wav","space","524.060322205","141","263084.191572","269967.641933","270733.940075","271500.783909","272249.904697","273017.016584","273783.483535","259950.566915","263850.94791","264600.430122","265367.091543","266133.781408","266900.072748","267667.142896","268433.784839","269200.433894","273027.533419","Mapping"
"Blocked","Male","tile","16","M_romp.wav","None","731.37053696","141","263084.191572","269967.641933","270733.940075","271500.783909","272249.904697","273017.016584","273783.483535","274550.216993","263850.94791","264600.430122","265367.091543","266133.781408","266900.072748","267667.142896","268433.784839","269200.433894","273793.199303","Mapping"
"Blocked","Male","tile","18","M_knife.wav","None","729.857752449","141","277684.00613","269967.641933","270733.940075","271500.783909","272249.904697","273017.016584","273783.483535","274550.216993","263850.94791","264600.430122","265367.091543","266133.781408","266900.072748","267667.142896","268433.784839","269200.433894","274559.980992","Mapping"
"Blocked","Male","tile","18","M_depth.wav","None","720.62336735","141","277684.00613","269967.641933","270733.940075","271500.783909","272249.904697","273017.016584","273783.483535","274550.216993","278450.615919","264600.430122","265367.091543","266133.781408","266900.072748","267667.142896","268433.784839","269200.433894","277694.217503","Mapping"
"Blocked","Male","tile","18","M_tile.wav","None","719.229923678","141","277684.00613","269967.641933","270733.940075","271500.783909","272249.904697","273017.016584","273783.483535","274550.216993","278450.615919","279200.414416","265367.091543","266133.781408","266900.072748","267667.142896","268433.784839","269200.433894","278460.84677","Mapping"
"Blocked","Male","tile","18","M_cave.wav","space","396.980552701","141","277684.00613","269967.641933","270733.940075","271500.783909","272249.904697","273017.016584","273783.483535","274550.216993","278450.615919","279200.414416","279966.531692","266133.781408","266900.072748","267667.142896","268433.784839","269200.433894","279210.523143","Mapping"
"Blocked","Male","tile","18","M_priest.wav","None","734.012731118","141","277684.00613","269967.641933","270733.940075","271500.783909","272249.904697","273017.016584","273783.483535","274550.216993","278450.615919","279200.414416","279966.531692","280733.196823","266900.072748","267667.142896","268433.784839","269200.433894","279975.466488","Mapping"
"Blocked","Male","tile","18","M_tile.wav","None","732.051954605","141","277684.00613","269967.641933","270733.940075","271500.783909","272249.904697","273017.016584","273783.483535","274550.216993","278450.615919","279200.414416","279966.531692","280733.196823","281499.891635","267667.142896","268433.784839","269200.433894","280742.709773","Mapping"
"Blocked","Male","tile","18","M_cad.wav","space","458.297636709","141","277684.00613","269967.641933","270733.940075","271500.783909","272249.904697","273017.016584","273783.483535","274550.216993","278450.615919","279200.414416","279966.531692","280733.196823","281499.891635","282266.804723","268433.784839","269200.433894","281509.099431","Mapping"
"Blocked","Male","tile","18","M_depth.wav","None","727.739297668","141","277684.00613","269967.641933","270733.940075","271500.783909","272249.904697","273017.016584","273783.483535","274550.216993","278450.615919","279200.414416","279966.531692","280733.196823","281499.891635","282266.804723","283033.47882","269200.433894","282276.715579","Mapping"
"Blocked","Male","tile","18","M_jaw.wav","None","726.567840553","141","277684.00613","269967.641933","270733.940075","271500.783909","272249.904697","273017.016584","273783.483535","274550.216993","278450.615919","279200.414416","279966.531692","280733.196823","281499.891635","282266.804723","283033.47882","283800.116125","283043.222104","Mapping"
"Blocked","Male","tile","18","M_done.wav","None","725.331766065","141","277684.00613","284567.177617","270733.940075","271500.783909","272249.904697","273017.016584","273783.483535","274550.216993","278450.615919","279200.414416","279966.531692","280733.196823","281499.891635","282266.804723","283033.47882","283800.116125","283809.759237","Mapping"
"Blocked","Male","tile","18","M_cling.wav","None","722.959480132","141","277684.00613","284567.177617","285333.779986","271500.783909","272249.904697","273017.016584","273783.483535","274550.216993","278450.615919","279200.414416","279966.531692","280733.196823","281499.891635","282266.804723","283033.47882","283800.116125","284577.457316","Mapping"
"Blocked","Male","tile","18","M_tile.wav","None","720.106120687","141","277684.00613","284567.177617","285333.779986","286100.566622","272249.904697","273017.016584","273783.483535","274550.216993","278450.615919","279200.414416","279966.531692","280733.196823","281499.891635","282266.804723","283033.47882","283800.116125","285345.607406","Mapping"
"Blocked","Male","tile","18","M_reek.wav","space","424.206653843","141","277684.00613","284567.177617","285333.779986","286100.566622","286866.459129","273017.016584","273783.483535","274550.216993","278450.615919","279200.414416","279966.531692","280733.196823","281499.891635","282266.804723","283033.47882","283800.116125","286111.071709","Mapping"
"Blocked","Male","tile","18","M_tile.wav","None","722.323819995","141","277684.00613","284567.177617","285333.779986","286100.566622","286866.459129","287633.171564","273783.483535","274550.216993","278450.615919","279200.414416","279966.531692","280733.196823","281499.891635","282266.804723","283033.47882","283800.116125","286875.626114","Mapping"
"Blocked","Male","tile","18","M_jaw.wav","space","604.905094602","141","277684.00613","284567.177617","285333.779986","286100.566622","286866.459129","287633.171564","288383.229456","274550.216993","278450.615919","279200.414416","279966.531692","280733.196823","281499.891635","282266.804723","283033.47882","283800.116125","287642.382142","Mapping"
"Blocked","Male","tile","18","M_cling.wav","None","734.611599706","141","277684.00613","284567.177617","285333.779986","286100.566622","286866.459129","287633.171564","288383.229456","289150.039899","278450.615919","279200.414416","279966.531692","280733.196823","281499.891635","282266.804723","283033.47882","283800.116125","288392.968103","Mapping"
"Blocked","Male","ball","2","M_depth.wav","None","730.573179317","141","292283.545215","284567.177617","285333.779986","286100.566622","286866.459129","287633.171564","288383.229456","289150.039899","278450.615919","279200.414416","279966.531692","280733.196823","281499.891635","282266.804723","283033.47882","283800.116125","289162.366325","Mapping"
"Blocked","Male","ball","2","M_cling.wav","None","719.122022274","141","292283.545215","284567.177617","285333.779986","286100.566622","286866.459129","287633.171564","288383.229456","289150.039899","293050.377609","279200.414416","279966.531692","280733.196823","281499.891635","282266.804723","283033.47882","283800.116125","292295.162707","Mapping"
"Blocked","Male","ball","2","M_jolt.wav","None","718.681141268","141","292283.545215","284567.177617","285333.779986","286100.566622","286866.459129","287633.171564","288383.229456","289150.039899","293050.377609","293799.836633","279966.531692","280733.196823","281499.891635","282266.804723","283033.47882","283800.116125","293060.857962","Mapping"
"Blocked","Male","ball","2","M_reek.wav","None","735.059591592","141","292283.545215","284567.177617","285333.779986","286100.566622","286866.459129","287633.171564","288383.229456","289150.039899","293050.377609","293799.836633","294566.584004","280733.196823","281499.891635","282266.804723","283033.47882","283800.116125","293809.691219","Mapping"
"Blocked","Male","ball","2","M_priest.wav","None","733.945022221","141","292283.545215","284567.177617","285333.779986","286100.566622","286866.459129","287633.171564","288383.229456","289150.039899","293050.377609","293799.836633","294566.584004","295333.09393","281499.891635","282266.804723","283033.47882","283800.116125","294576.176412","Mapping"
"Blocked","Male","ball","2","M_ball.wav","None","732.203140389","141","292283.545215","284567.177617","285333.779986","286100.566622","286866.459129","287633.171564","288383.229456","289150.039899","293050.377609","293799.836633","294566.584004","295333.09393","296099.894788","282266.804723","283033.47882","283800.116125","295343.263873","Mapping"
"Blocked","Male","ball","2","M_done.wav","space","521.313318284","141","292283.545215","284567.177617","285333.779986","286100.566622","286866.459129","287633.171564","288383.229456","289150.039899","293050.377609","293799.836633","294566.584004","295333.09393","296099.894788","296866.238688","283033.47882","283800.116125","296109.82976","Mapping"
"Blocked","Male","ball","2","M_priest.wav","None","729.794990388","141","292283.545215","284567.177617","285333.779986","286100.566622","286866.459129","287633.171564","288383.229456","289150.039899","293050.377609","293799.836633","294566.584004","295333.09393","296099.894788","296866.238688","297633.246074","283800.116125","296875.166992","Mapping"
"Blocked","Male","ball","2","M_knife.wav","None","726.690891432","141","292283.545215","284567.177617","285333.779986","286100.566622","286866.459129","287633.171564","288383.229456","289150.039899","293050.377609","293799.836633","294566.584004","295333.09393","296099.894788","296866.238688","297633.246074","298399.847516","297643.736012","Mapping"
"Blocked","Male","ball","2","M_ball.wav","None","726.014420507","141","292283.545215","299166.568607","285333.779986","286100.566622","286866.459129","287633.171564","288383.229456","289150.039899","293050.377609","293799.836633","294566.584004","295333.09393","296099.894788","296866.238688","297633.246074","298399.847516","298409.747242","Mapping"
"Blocked","Male","ball","2","M_gnash.wav","space","462.847120361","141","292283.545215","299166.568607","299933.432537","286100.566622","286866.459129","287633.171564","288383.229456","289150.039899","293050.377609","293799.836633","294566.584004","295333.09393","296099.894788","296866.238688","297633.246074","298399.847516","299176.230579","Mapping"
"Blocked","Male","ball","2","M_ball.wav","None","721.68012138","141","292283.545215","299166.568607","299933.432537","300700.372214","286866.459129","287633.171564","288383.229456","289150.039899","293050.377609","293799.836633","294566.584004","295333.09393","296099.894788","296866.238688","297633.246074","298399.847516","299943.402445","Mapping"
"Blocked","Male","ball","2","M_bluff.wav","space","584.121544613","141","292283.545215","299166.568607","299933.432537","300700.372214","301449.958308","287633.171564","288383.229456","289150.039899","293050.377609","293799.836633","294566.584004","295333.09393","296099.894788","296866.238688","297633.246074","298399.847516","300710.92986","Mapping"
"Blocked","Male","ball","2","M_reek.wav","None","735.11864373","141","292283.545215","299166.568607","299933.432537","300700.372214","301449.958308","302216.446901","288383.229456","289150.039899","293050.377609","293799.836633","294566.584004","295333.09393","296099.894788","296866.238688","297633.246074","298399.847516","301459.835155","Mapping"
"Blocked","Male","ball","2","M_ball.wav","None","733.46487619","141","292283.545215","299166.568607","299933.432537","300700.372214","301449.958308","302216.446901","302982.962702","289150.039899","293050.377609","293799.836633","294566.584004","295333.09393","296099.894788","296866.238688","297633.246074","298399.847516","302226.721963","Mapping"
"Blocked","Male","ball","2","M_tile.wav","space","526.182796108","141","292283.545215","299166.568607","299933.432537","300700.372214","301449.958308","302216.446901","302982.962702","303749.913818","293050.377609","293799.836633","294566.584004","295333.09393","296099.894788","296866.238688","297633.246074","298399.847516","302992.818216","Mapping"
"Blocked","Male","done","22","M_gnash.wav","None","729.90691103","141","306883.311851","299166.568607","299933.432537","300700.372214","301449.958308","302216.446901","302982.962702","303749.913818","293050.377609","293799.836633","294566.584004","295333.09393","296099.894788","296866.238688","297633.246074","298399.847516","303759.809834","Mapping"
"Blocked","Male","done","22","M_cling.wav","None","721.244805492","141","306883.311851","299166.568607","299933.432537","300700.372214","301449.958308","302216.446901","302982.962702","303749.913818","307650.264822","293799.836633","294566.584004","295333.09393","296099.894788","296866.238688","297633.246074","298399.847516","306892.954963","Mapping"
"Blocked","Male","done","22","M_priest.wav","None","718.379388331","141","306883.311851","299166.568607","299933.432537","300700.372214","301449.958308","302216.446901","302982.962702","303749.913818","307650.264822","308399.863284","294566.584004","295333.09393","296099.894788","296866.238688","297633.246074","298399.847516","307661.073826","Mapping"
"Blocked","Male","done","22","M_done.wav","None","735.196555383","141","306883.311851","299166.568607","299933.432537","300700.372214","301449.958308","302216.446901","302982.962702","303749.913818","307650.264822","308399.863284","309166.27582","295333.09393","296099.894788","296866.238688","297633.246074","298399.847516","308409.724054","Mapping"
"Blocked","Male","done","22","M_gnash.wav","space","479.092007852","141","306883.311851","299166.568607","299933.432537","300700.372214","301449.958308","302216.446901","302982.962702","303749.913818","307650.264822","308399.863284","309166.27582","309932.981144","296099.894788","296866.238688","297633.246074","298399.847516","309175.812577","Mapping"
"Blocked","Male","done","22","M_jolt.wav","None","731.328489375","141","306883.311851","299166.568607","299933.432537","300700.372214","301449.958308","302216.446901","302982.962702","303749.913818","307650.264822","308399.863284","309166.27582","309932.981144","310699.606392","296866.238688","297633.246074","298399.847516","309942.83944","Mapping"
"Blocked","Male","done","22","M_tile.wav","None","730.157959741","141","306883.311851","299166.568607","299933.432537","300700.372214","301449.958308","302216.446901","302982.962702","303749.913818","307650.264822","308399.863284","309166.27582","309932.981144","310699.606392","311466.386226","297633.246074","298399.847516","310709.279493","Mapping"
"Blocked","Male","done","22","M_tile.wav","None","728.365682648","141","306883.311851","299166.568607","299933.432537","300700.372214","301449.958308","302216.446901","302982.962702","303749.913818","307650.264822","308399.863284","309166.27582","309932.981144","310699.606392","311466.386226","312232.925214","298399.847516","311476.480731","Mapping"
"Blocked","Male","done","22","M_done.wav","None","727.366434876","141","306883.311851","299166.568607","299933.432537","300700.372214","301449.958308","302216.446901","302982.962702","303749.913818","307650.264822","308399.863284","309166.27582","309932.981144","310699.606392","311466.386226","312232.925214","312999.59993","312242.765888","Mapping"
"Blocked","Male","done","22","M_knife.wav","space","493.579554721","141","306883.311851","313766.600514","299933.432537","300700.372214","301449.958308","302216.446901","302982.962702","303749.913818","307650.264822","308399.863284","309166.27582","309932.981144","310699.606392","311466.386226","312232.925214","312999.59993","313009.225728","Mapping"
"Blocked","Male","done","22","M_done.wav","None","721.282524639","141","306883.311851","313766.600514","314533.124353","300700.372214","301449.958308","302216.446901","302982.962702","303749.913818","307650.264822","308399.863284","309166.27582","309932.981144","310699.606392","311466.386226","312232.925214","312999.59993","313778.238721","Mapping"
"Blocked","Male","done","22","M_reek.wav","space","495.395947248","141","306883.311851","313766.600514","314533.124353","315299.979935","301449.958308","302216.446901","302982.962702","303749.913818","307650.264822","308399.863284","309166.27582","309932.981144","310699.606392","311466.386226","312232.925214","312999.59993","314543.433733","Mapping"
"Blocked","Male","done","22","M_cling.wav","None","718.542013434","141","306883.311851","313766.600514","314533.124353","315299.979935","316049.302923","302216.446901","302982.962702","303749.913818","307650.264822","308399.863284","309166.27582","309932.981144","310699.606392","311466.386226","312232.925214","312999.59993","315310.350222","Mapping"
"Blocked","Male","done","22","M_cad.wav","None","735.252515646","141","306883.311851","313766.600514","314533.124353","315299.979935","316049.302923","316816.224667","302982.962702","303749.913818","307650.264822","308399.863284","309166.27582","309932.981144","310699.606392","311466.386226","312232.925214","312999.59993","316059.054245","Mapping"
"Blocked","Male","done","22","M_done.wav","None","733.666766318","141","306883.311851","313766.600514","314533.124353","315299.979935","316049.302923","316816.224667","317582.751598","303749.913818","307650.264822","308399.863284","309166.27582","309932.981144","310699.606392","311466.386226","312232.925214","312999.59993","316826.025149","Mapping"
"Blocked","Male","done","22","M_cave.wav","space","572.320712847","141","306883.311851","313766.600514","314533.124353","315299.979935","316049.302923","316816.224667","317582.751598","318349.496496","307650.264822","308399.863284","309166.27582","309932.981144","310699.606392","311466.386226","312232.925214","312999.59993","317594.438654","Mapping"
"Blocked","Male","ball","6","M_knife.wav","None","728.891277104","141","321483.063647","313766.600514","314533.124353","315299.979935","316049.302923","316816.224667","317582.751598","318349.496496","307650.264822","308399.863284","309166.27582","309932.981144","310699.606392","311466.386226","312232.925214","312999.59993","318360.000037","Mapping"
"Blocked","Male","ball","6","M_romp.wav","None","720.50433571","141","321483.063647","313766.600514","314533.124353","315299.979935","316049.302923","316816.224667","317582.751598","318349.496496","322249.905316","308399.863284","309166.27582","309932.981144","310699.606392","311466.386226","312232.925214","312999.59993","321493.215039","Mapping"
"Blocked","Male","ball","6","M_ball.wav","None","718.64063968","141","321483.063647","313766.600514","314533.124353","315299.979935","316049.302923","316816.224667","317582.751598","318349.496496","322249.905316","322999.748642","309166.27582","309932.981144","310699.606392","311466.386226","312232.925214","312999.59993","322260.445648","Mapping"
"Blocked","Male","ball","6","M_cave.wav","space","381.039273343","141","321483.063647","313766.600514","314533.124353","315299.979935","316049.302923","316816.224667","317582.751598","318349.496496","322249.905316","322999.748642","323766.169526","309932.981144","310699.606392","311466.386226","312232.925214","312999.59993","323009.609412","Mapping"
"Blocked","Male","ball","6","M_done.wav","None","732.224782463","141","321483.063647","313766.600514","314533.124353","315299.979935","316049.302923","316816.224667","317582.751598","318349.496496","322249.905316","322999.748642","323766.169526","324532.783644","310699.606392","311466.386226","312232.925214","312999.59993","323776.424183","Mapping"
"Blocked","Male","ball","6","M_jaw.wav","None","730.324603966","141","321483.063647","313766.600514","314533.124353","315299.979935","316049.302923","316816.224667","317582.751598","318349.496496","322249.905316","322999.748642","323766.169526","324532.783644","325299.045613","311466.386226","312232.925214","312999.59993","324543.664995","Mapping"
"Blocked","Male","ball","6","M_cad.wav","None","730.754663935","141","321483.063647","313766.600514","314533.124353","315299.979935","316049.302923","316816.224667","317582.751598","318349.496496","322249.905316","322999.748642","323766.169526","324532.783644","325299.045613","326066.108032","312232.925214","312999.59993","325308.64977","Mapping"
"Blocked","Male","ball","6","M_depth.wav","None","729.322573636","141","321483.063647","313766.600514","314533.124353","315299.979935","316049.302923","316816.224667","317582.751598","318349.496496","322249.905316","322999.748642","323766.169526","324532.783644","325299.045613","326066.108032","326832.579002","312999.59993","326075.753927","Mapping"
"Blocked","Male","ball","6","M_ball.wav","None","728.366919328","141","321483.063647","313766.600514","314533.124353","315299.979935","316049.302923","316816.224667","317582.751598","318349.496496","322249.905316","322999.748642","323766.169526","324532.783644","325299.045613","326066.108032","326832.579002","327599.01349","326842.237264","Mapping"
"Blocked","Male","ball","6","M_cave.wav","space","414.281575824","141","321483.063647","328366.106517","314533.124353","315299.979935","316049.302923","316816.224667","317582.751598","318349.496496","322249.905316","322999.748642","323766.169526","324532.783644","325299.045613","326066.108032","326832.579002","327599.01349","327608.327024","Mapping"
"Blocked","Male","ball","6","M_ball.wav","None","724.1420676","141","321483.063647","328366.106517","329132.930254","315299.979935","316049.302923","316816.224667","317582.751598","318349.496496","322249.905316","322999.748642","323766.169526","324532.783644","325299.045613","326066.108032","326832.579002","327599.01349","328375.917819","Mapping"
"Blocked","Male","ball","6","M_priest.wav","space","655.514274025","141","321483.063647","328366.106517","329132.930254","329899.755227","316049.302923","316816.224667","317582.751598","318349.496496","322249.905316","322999.748642","323766.169526","324532.783644","325299.045613","326066.108032","326832.579002","327599.01349","329142.999407","Mapping"
"Blocked","Male","ball","6","M_jaw.wav","None","719.556101481","141","321483.063647","328366.106517","329132.930254","329899.755227","330666.382021","316816.224667","317582.751598","318349.496496","322249.905316","322999.748642","323766.169526","324532.783644","325299.045613","326066.108032","326832.579002","327599.01349","329910.046985","Mapping"
"Blocked","Male","ball","6","M_priest.wav","None","718.692271505","141","321483.063647","328366.106517","329132.930254","329899.755227","330666.382021","331415.662652","317582.751598","318349.496496","322249.905316","322999.748642","323766.169526","324532.783644","325299.045613","326066.108032","326832.579002","327599.01349","330676.49013","Mapping"
"Blocked","Male","ball","6","M_ball.wav","None","735.252824845","141","321483.063647","328366.106517","329132.930254","329899.755227","330666.382021","331415.662652","332182.213699","318349.496496","322249.905316","322999.748642","323766.169526","324532.783644","325299.045613","326066.108032","326832.579002","327599.01349","331425.447675","Mapping"
"Blocked","Male","ball","6","M_reek.wav","space","478.405024856","141","321483.063647","328366.106517","329132.930254","329899.755227","330666.382021","331415.662652","332182.213699","332948.949012","322249.905316","322999.748642","323766.169526","324532.783644","325299.045613","326066.108032","326832.579002","327599.01349","332192.084053","Mapping"
"Blocked","Male","ball","3","M_park.wav","None","731.875107624","141","336082.793491","328366.106517","329132.930254","329899.755227","330666.382021","331415.662652","332182.213699","332948.949012","322249.905316","322999.748642","323766.169526","324532.783644","325299.045613","326066.108032","326832.579002","327599.01349","332958.493189","Mapping"
"Blocked","Male","ball","3","M_ball.wav","None","720.607908792","141","336082.793491","328366.106517","329132.930254","329899.755227","330666.382021","331415.662652","332182.213699","332948.949012","336849.517984","322999.748642","323766.169526","324532.783644","325299.045613","326066.108032","326832.579002","327599.01349","336092.887069","Mapping"
"Blocked","Male","ball","3","M_cad.wav","space","450.276447227","141","336082.793491","328366.106517","329132.930254","329899.755227","330666.382021","331415.662652","332182.213699","332948.949012","336849.517984","337599.082745","323766.169526","324532.783644","325299.045613","326066.108032","326832.579002","327599.01349","336860.148904","Mapping"
"Blocked","Male","ball","3","M_gnash.wav","None","734.137327992","141","336082.793491","328366.106517","329132.930254","329899.755227","330666.382021","331415.662652","332182.213699","332948.949012","336849.517984","337599.082745","338365.444886","324532.783644","325299.045613","326066.108032","326832.579002","327599.01349","337608.891265","Mapping"
"Blocked","Male","ball","3","M_ball.wav","None","733.74251381","141","336082.793491","328366.106517","329132.930254","329899.755227","330666.382021","331415.662652","332182.213699","332948.949012","336849.517984","337599.082745","338365.444886","339132.397239","325299.045613","326066.108032","326832.579002","327599.01349","338374.905586","Mapping"
"Blocked","Male","ball","3","M_bluff.wav","space","640.412399895","141","336082.793491","328366.106517","329132.930254","329899.755227","330666.382021","331415.662652","332182.213699","332948.949012","336849.517984","337599.082745","338365.444886","339132.397239","339899.121732","326066.108032","326832.579002","327599.01349","339141.958421","Mapping"
"Blocked","Male","ball","3","M_dime.wav","None","730.02965271","141","336082.793491","328366.106517","329132.930254","329899.755227","330666.382021","331415.662652","332182.213699","332948.949012","336849.517984","337599.082745","338365.444886","339132.397239","339899.121732","340665.756873","326832.579002","327599.01349","339908.376522","Mapping"
"Blocked","Male","ball","3","M_romp.wav","None","727.895120974","141","336082.793491","328366.106517","329132.930254","329899.755227","330666.382021","331415.662652","332182.213699","332948.949012","336849.517984","337599.082745","338365.444886","339132.397239","339899.121732","340665.756873","341432.359242","327599.01349","340676.136745","Mapping"
"Blocked","Male","ball","3","M_cave.wav","None","727.853382705","141","336082.793491","328366.106517","329132.930254","329899.755227","330666.382021","331415.662652","332182.213699","332948.949012","336849.517984","337599.082745","338365.444886","339132.397239","339899.121732","340665.756873","341432.359242","342199.186071","341441.969272","Mapping"
"Blocked","Male","ball","3","M_cave.wav","None","726.690273033","141","336082.793491","342965.694142","329132.930254","329899.755227","330666.382021","331415.662652","332182.213699","332948.949012","336849.517984","337599.082745","338365.444886","339132.397239","339899.121732","340665.756873","341432.359242","342199.186071","342208.733957","Mapping"
"Blocked","Male","ball","3","M_tile.wav","None","725.74482148","141","336082.793491","342965.694142","343732.386789","329899.755227","330666.382021","331415.662652","332182.213699","332948.949012","336849.517984","337599.082745","338365.444886","339132.397239","339899.121732","340665.756873","341432.359242","342199.186071","342975.257796","Mapping"
"Blocked","Male","ball","3","M_ball.wav","None","724.42959866","141","336082.793491","342965.694142","343732.386789","344499.595138","330666.382021","331415.662652","332182.213699","332948.949012","336849.517984","337599.082745","338365.444886","339132.397239","339899.121732","340665.756873","341432.359242","342199.186071","343742.34433","Mapping"
"Blocked","Male","ball","3","M_bluff.wav","space","632.543942076","141","336082.793491","342965.694142","343732.386789","344499.595138","345266.120832","331415.662652","332182.213699","332948.949012","336849.517984","337599.082745","338365.444886","339132.397239","339899.121732","340665.756873","341432.359242","342199.186071","344509.730144","Mapping"
"Blocked","Male","ball","3","M_ball.wav","None","720.239992603","141","336082.793491","342965.694142","343732.386789","344499.595138","345266.120832","346032.553155","332182.213699","332948.949012","336849.517984","337599.082745","338365.444886","339132.397239","339899.121732","340665.756873","341432.359242","342199.186071","345276.289538","Mapping"
"Blocked","Male","ball","3","M_cad.wav","space","595.611348283","141","336082.793491","342965.694142","343732.386789","344499.595138","345266.120832","346032.553155","346782.202939","332948.949012","336849.517984","337599.082745","338365.444886","339132.397239","339899.121732","340665.756873","341432.359242","342199.186071","346042.619835","Mapping"
"Blocked","Male","ball","3","M_cad.wav","None","734.671579208","141","336082.793491","342965.694142","343732.386789","344499.595138","345266.120832","346032.553155","346782.202939","347548.924031","336849.517984","337599.082745","338365.444886","339132.397239","339899.121732","340665.756873","341432.359242","342199.186071","346791.499468","Mapping"
"Blocked","Male","cave","9","M_lash.wav","None","732.187990914","141","350682.677922","342965.694142","343732.386789","344499.595138","345266.120832","346032.553155","346782.202939","347548.924031","336849.517984","337599.082745","338365.444886","339132.397239","339899.121732","340665.756873","341432.359242","342199.186071","347559.478895","Mapping"
"Blocked","Male","cave","9","M_cave.wav","None","720.776717179","141","350682.677922","342965.694142","343732.386789","344499.595138","345266.120832","346032.553155","346782.202939","347548.924031","351449.309353","337599.082745","338365.444886","339132.397239","339899.121732","340665.756873","341432.359242","342199.186071","350692.248069","Mapping"
"Blocked","Male","cave","9","M_reek.wav","None","718.912712066","141","350682.677922","342965.694142","343732.386789","344499.595138","345266.120832","346032.553155","346782.202939","347548.924031","351449.309353","352198.897612","338365.444886","339132.397239","339899.121732","340665.756873","341432.359242","342199.186071","351459.730654","Mapping"
"Blocked","Male","cave","9","M_cave.wav","space","13.842302491","141","350682.677922","342965.694142","343732.386789","344499.595138","345266.120832","346032.553155","346782.202939","347548.924031","351449.309353","352198.897612","352965.595206","339132.397239","339899.121732","340665.756873","341432.359242","342199.186071","352208.309772","Mapping"
"Blocked","Male","cave","9","M_bluff.wav","space","710.524533992","141","350682.677922","342965.694142","343732.386789","344499.595138","345266.120832","346032.553155","346782.202939","347548.924031","351449.309353","352198.897612","352965.595206","353732.162329","339899.121732","340665.756873","341432.359242","342199.186071","352975.601906","Mapping"
"Blocked","Male","cave","9","M_knife.wav","None","730.213301606","141","350682.677922","342965.694142","343732.386789","344499.595138","345266.120832","346032.553155","346782.202939","347548.924031","351449.309353","352198.897612","352965.595206","353732.162329","354498.59218","340665.756873","341432.359242","342199.186071","353742.203657","Mapping"
"Blocked","Male","cave","9","M_cave.wav","None","730.13384419","141","350682.677922","342965.694142","343732.386789","344499.595138","345266.120832","346032.553155","346782.202939","347548.924031","351449.309353","352198.897612","352965.595206","353732.162329","354498.59218","355265.183109","341432.359242","342199.186071","354508.127081","Mapping"
"Blocked","Male","cave","9","M_knife.wav","space","595.404820633","141","350682.677922","342965.694142","343732.386789","344499.595138","345266.120832","346032.553155","346782.202939","347548.924031","351449.309353","352198.897612","352965.595206","353732.162329","354498.59218","355265.183109","356032.150303","342199.186071","355274.668852","Mapping"
"Blocked","Male","cave","9","M_knife.wav","None","726.365950424","141","350682.677922","342965.694142","343732.386789","344499.595138","345266.120832","346032.553155","346782.202939","347548.924031","351449.309353","352198.897612","352965.595206","353732.162329","354498.59218","355265.183109","356032.150303","356798.830892","356041.812893","Mapping"
"Blocked","Male","cave","9","M_cling.wav","None","725.898480508","141","350682.677922","357565.513646","343732.386789","344499.595138","345266.120832","346032.553155","346782.202939","347548.924031","351449.309353","352198.897612","352965.595206","353732.162329","354498.59218","355265.183109","356032.150303","356798.830892","356808.401349","Mapping"
"Blocked","Male","cave","9","M_cave.wav","None","724.57521921","141","350682.677922","357565.513646","358332.459507","344499.595138","345266.120832","346032.553155","346782.202939","347548.924031","351449.309353","352198.897612","352965.595206","353732.162329","354498.59218","355265.183109","356032.150303","356798.830892","357575.490047","Mapping"
"Blocked","Male","cave","9","M_dime.wav","space","422.93378769","141","350682.677922","357565.513646","358332.459507","359099.170705","345266.120832","346032.553155","346782.202939","347548.924031","351449.309353","352198.897612","352965.595206","353732.162329","354498.59218","355265.183109","356032.150303","356798.830892","358343.059201","Mapping"
"Blocked","Male","cave","9","M_knife.wav","None","720.087570138","141","350682.677922","357565.513646","358332.459507","359099.170705","359865.671665","346032.553155","346782.202939","347548.924031","351449.309353","352198.897612","352965.595206","353732.162329","354498.59218","355265.183109","356032.150303","356798.830892","359109.502036","Mapping"
"Blocked","Male","cave","9","M_bluff.wav","None","718.727208092","141","350682.677922","357565.513646","358332.459507","359099.170705","359865.671665","360615.662776","346782.202939","347548.924031","351449.309353","352198.897612","352965.595206","353732.162329","354498.59218","355265.183109","356032.150303","356798.830892","359876.407704","Mapping"
