"Condition","Talker","Target","Trial","current_stimulus","response_response","response_time_response","subject_nr","time_Audio1","time_Audio10","time_Audio11","time_Audio12","time_Audio13","time_Audio14","time_Audio15","time_Audio16","time_Audio2","time_Audio3","time_Audio4","time_Audio5","time_Audio6","time_Audio7","time_Audio8","time_Audio9","time_response","title"
"Blocked","Female","done","24","F_knife.wav","NA","NA","314","194747.048401","NA","NA","NA","NA","NA","NA","NA","NA","NA","NA","NA","NA","NA","NA","NA","NA","Mapping"
"Blocked","Female","done","24","F_knife.wav","None","718.972382136","314","194747.048401","NA","NA","NA","NA","NA","NA","NA","195513.47485","NA","NA","NA","NA","NA","NA","NA","194761.360956","Mapping"
"Blocked","Female","done","24","F_greet.wav","None","720.740852877","314","194747.048401","NA","NA","NA","NA","NA","NA","NA","195513.47485","196263.255724","NA","NA","NA","NA","NA","NA","195522.714182","Mapping"
"Blocked","Female","done","24","F_jolt.wav","None","736.972136889","314","194747.048401","NA","NA","NA","NA","NA","NA","NA","195513.47485","196263.255724","197029.949917","NA","NA","NA","NA","NA","196272.54205","Mapping"
"Blocked","Female","done","24","F_gnash.wav","None","735.707000364","314","194747.048401","NA","NA","NA","NA","NA","NA","NA","195513.47485","196263.255724","197029.949917","197796.658642","NA","NA","NA","NA","197039.900038","Mapping"
"Blocked","Female","done","24","F_gnash.wav","None","735.80160737","314","194747.048401","NA","NA","NA","NA","NA","NA","NA","195513.47485","196263.255724","197029.949917","197796.658642","198563.404776","NA","NA","NA","197806.123361","Mapping"
"Blocked","Female","done","24","F_done.wav","None","732.218289748","314","194747.048401","NA","NA","NA","NA","NA","NA","NA","195513.47485","196263.255724","197029.949917","197796.658642","198563.404776","199329.902953","NA","NA","198572.940605","Mapping"
"Blocked","Female","done","24","F_reek.wav","space","451.16748428","314","194747.048401","NA","NA","NA","NA","NA","NA","NA","195513.47485","196263.255724","197029.949917","197796.658642","198563.404776","199329.902953","200096.823153","NA","199338.785191","Mapping"
"Blocked","Female","done","24","F_reek.wav","None","730.662530288","314","194747.048401","NA","NA","NA","NA","NA","NA","NA","195513.47485","196263.255724","197029.949917","197796.658642","198563.404776","199329.902953","200096.823153","200863.480554","200106.740501","Mapping"
"Blocked","Female","done","24","F_done.wav","None","727.673753165","314","194747.048401","201630.159908","NA","NA","NA","NA","NA","NA","195513.47485","196263.255724","197029.949917","197796.658642","198563.404776","199329.902953","200096.823153","200863.480554","200872.941873","Mapping"
"Blocked","Female","done","24","F_lash.wav","space","342.439926695","314","194747.048401","201630.159908","202396.771861","NA","NA","NA","NA","NA","195513.47485","196263.255724","197029.949917","197796.658642","198563.404776","199329.902953","200096.823153","200863.480554","201639.416244","Mapping"
"Blocked","Female","done","24","F_done.wav","None","724.266354926","314","194747.048401","201630.159908","202396.771861","203163.652486","NA","NA","NA","NA","195513.47485","196263.255724","197029.949917","197796.658642","198563.404776","199329.902953","200096.823153","200863.480554","202405.835582","Mapping"
"Blocked","Female","done","24","F_greet.wav","space","401.149135083","314","194747.048401","201630.159908","202396.771861","203163.652486","203913.660292","NA","NA","NA","195513.47485","196263.255724","197029.949917","197796.658642","198563.404776","199329.902953","200096.823153","200863.480554","203172.70755","Mapping"
"Blocked","Female","done","24","F_done.wav","None","732.74295684","314","194747.048401","201630.159908","202396.771861","203163.652486","203913.660292","204680.402717","NA","NA","195513.47485","196263.255724","197029.949917","197796.658642","198563.404776","199329.902953","200096.823153","200863.480554","203923.648442","Mapping"
"Blocked","Female","done","24","F_cling.wav","space","387.974646874","314","194747.048401","201630.159908","202396.771861","203163.652486","203913.660292","204680.402717","205447.031674","NA","195513.47485","196263.255724","197029.949917","197796.658642","198563.404776","199329.902953","200096.823153","200863.480554","204689.830026","Mapping"
"Blocked","Female","done","24","F_cad.wav","None","730.440853164","314","194747.048401","201630.159908","202396.771861","203163.652486","203913.660292","204680.402717","205447.031674","206213.734525","195513.47485","196263.255724","197029.949917","197796.658642","198563.404776","199329.902953","200096.823153","200863.480554","205456.452491","Mapping"
"Blocked","Female","tile","18","F_knife.wav","None","729.914949741","314","209797.417971","201630.159908","202396.771861","203163.652486","203913.660292","204680.402717","205447.031674","206213.734525","195513.47485","196263.255724","197029.949917","197796.658642","198563.404776","199329.902953","200096.823153","200863.480554","206223.269117","Mapping"
"Blocked","Female","tile","18","F_tile.wav","None","719.748097938","314","209797.417971","201630.159908","202396.771861","203163.652486","203913.660292","204680.402717","205447.031674","206213.734525","210563.386226","196263.255724","197029.949917","197796.658642","198563.404776","199329.902953","200096.823153","200863.480554","209807.222781","Mapping"
"Blocked","Female","tile","18","F_knife.wav","space","513.139088172","314","209797.417971","201630.159908","202396.771861","203163.652486","203913.660292","204680.402717","205447.031674","206213.734525","210563.386226","211313.553566","197029.949917","197796.658642","198563.404776","199329.902953","200096.823153","200863.480554","210572.56094","Mapping"
"Blocked","Female","tile","18","F_dime.wav","None","734.253268223","314","209797.417971","201630.159908","202396.771861","203163.652486","203913.660292","204680.402717","205447.031674","206213.734525","210563.386226","211313.553566","212080.760987","197796.658642","198563.404776","199329.902953","200096.823153","200863.480554","211322.71344","Mapping"
"Blocked","Female","tile","18","F_tile.wav","None","732.654533349","314","209797.417971","201630.159908","202396.771861","203163.652486","203913.660292","204680.402717","205447.031674","206213.734525","210563.386226","211313.553566","212080.760987","212847.047999","198563.404776","199329.902953","200096.823153","200863.480554","212090.603516","Mapping"
"Blocked","Female","tile","18","F_cling.wav","space","573.257198557","314","209797.417971","201630.159908","202396.771861","203163.652486","203913.660292","204680.402717","205447.031674","206213.734525","210563.386226","211313.553566","212080.760987","212847.047999","213613.642948","199329.902953","200096.823153","200863.480554","212856.386885","Mapping"
"Blocked","Female","tile","18","F_priest.wav","None","726.609578822","314","209797.417971","201630.159908","202396.771861","203163.652486","203913.660292","204680.402717","205447.031674","206213.734525","210563.386226","211313.553566","212080.760987","212847.047999","213613.642948","214380.254283","200096.823153","200863.480554","213623.066547","Mapping"
"Blocked","Female","tile","18","F_reek.wav","None","726.684707683","314","209797.417971","201630.159908","202396.771861","203163.652486","203913.660292","204680.402717","205447.031674","206213.734525","210563.386226","211313.553566","212080.760987","212847.047999","213613.642948","214380.254283","215147.582281","200863.480554","214389.662732","Mapping"
"Blocked","Female","tile","18","F_gnash.wav","None","723.135399632","314","209797.417971","201630.159908","202396.771861","203163.652486","203913.660292","204680.402717","205447.031674","206213.734525","210563.386226","211313.553566","212080.760987","212847.047999","213613.642948","214380.254283","215147.582281","215913.882588","215156.553869","Mapping"
"Blocked","Female","tile","18","F_knife.wav","None","719.485918991","314","209797.417971","216663.430345","202396.771861","203163.652486","203913.660292","204680.402717","205447.031674","206213.734525","210563.386226","211313.553566","212080.760987","212847.047999","213613.642948","214380.254283","215147.582281","215913.882588","215923.522608","Mapping"
"Blocked","Female","tile","18","F_priest.wav","None","733.898646664","314","209797.417971","216663.430345","217430.232749","203163.652486","203913.660292","204680.402717","205447.031674","206213.734525","210563.386226","211313.553566","212080.760987","212847.047999","213613.642948","214380.254283","215147.582281","215913.882588","216672.800147","Mapping"
"Blocked","Female","tile","18","F_tile.wav","None","730.480736587","314","209797.417971","216663.430345","217430.232749","218196.520379","203913.660292","204680.402717","205447.031674","206213.734525","210563.386226","211313.553566","212080.760987","212847.047999","213613.642948","214380.254283","215147.582281","215913.882588","217439.599151","Mapping"
"Blocked","Female","tile","18","F_greet.wav","space","488.127903547","314","209797.417971","216663.430345","217430.232749","218196.520379","218963.535495","204680.402717","205447.031674","206213.734525","210563.386226","211313.553566","212080.760987","212847.047999","213613.642948","214380.254283","215147.582281","215913.882588","218205.437862","Mapping"
"Blocked","Female","tile","18","F_dime.wav","None","724.024272524","314","209797.417971","216663.430345","217430.232749","218196.520379","218963.535495","219730.514746","205447.031674","206213.734525","210563.386226","211313.553566","212080.760987","212847.047999","213613.642948","214380.254283","215147.582281","215913.882588","218972.591487","Mapping"
"Blocked","Female","tile","18","F_tile.wav","None","719.712543301","314","209797.417971","216663.430345","217430.232749","218196.520379","218963.535495","219730.514746","220480.1231","206213.734525","210563.386226","211313.553566","212080.760987","212847.047999","213613.642948","214380.254283","215147.582281","215913.882588","219740.364695","Mapping"
"Blocked","Female","tile","18","F_park.wav","space","403.627158143","314","209797.417971","216663.430345","217430.232749","218196.520379","218963.535495","219730.514746","220480.1231","221246.637973","210563.386226","211313.553566","212080.760987","212847.047999","213613.642948","214380.254283","215147.582281","215913.882588","220489.939041","Mapping"
"Blocked","Female","tile","15","F_park.wav","None","734.082295094","314","224380.538104","216663.430345","217430.232749","218196.520379","218963.535495","219730.514746","220480.1231","221246.637973","210563.386226","211313.553566","212080.760987","212847.047999","213613.642948","214380.254283","215147.582281","215913.882588","221256.007776","Mapping"
"Blocked","Female","tile","15","F_romp.wav","None","724.759486504","314","224380.538104","216663.430345","217430.232749","218196.520379","218963.535495","219730.514746","220480.1231","221246.637973","225147.772423","211313.553566","212080.760987","212847.047999","213613.642948","214380.254283","215147.582281","215913.882588","224384.803766","Mapping"
"Blocked","Female","tile","15","F_park.wav","None","718.541704118","314","224380.538104","216663.430345","217430.232749","218196.520379","218963.535495","219730.514746","220480.1231","221246.637973","225147.772423","225896.693795","212080.760987","212847.047999","213613.642948","214380.254283","215147.582281","215913.882588","225157.465002","Mapping"
"Blocked","Female","tile","15","F_depth.wav","None","732.957832515","314","224380.538104","216663.430345","217430.232749","218196.520379","218963.535495","219730.514746","220480.1231","221246.637973","225147.772423","225896.693795","226663.355525","212847.047999","213613.642948","214380.254283","215147.582281","215913.882588","225906.472015","Mapping"
"Blocked","Female","tile","15","F_tile.wav","None","733.552062884","314","224380.538104","216663.430345","217430.232749","218196.520379","218963.535495","219730.514746","220480.1231","221246.637973","225147.772423","225896.693795","226663.355525","227429.614712","213613.642948","214380.254283","215147.582281","215913.882588","226672.40286","Mapping"
"Blocked","Female","tile","15","F_bluff.wav","space","478.989362251","314","224380.538104","216663.430345","217430.232749","218196.520379","218963.535495","219730.514746","220480.1231","221246.637973","225147.772423","225896.693795","226663.355525","227429.614712","228196.609112","214380.254283","215147.582281","215913.882588","227438.405742","Mapping"
"Blocked","Female","tile","15","F_greet.wav","None","730.107564479","314","224380.538104","216663.430345","217430.232749","218196.520379","218963.535495","219730.514746","220480.1231","221246.637973","225147.772423","225896.693795","226663.355525","227429.614712","228196.609112","228963.33546","215147.582281","215913.882588","228205.952017","Mapping"
"Blocked","Female","tile","15","F_gnash.wav","None","726.583917625","314","224380.538104","216663.430345","217430.232749","218196.520379","218963.535495","219730.514746","220480.1231","221246.637973","225147.772423","225896.693795","226663.355525","227429.614712","228196.609112","228963.33546","229730.316256","215913.882588","228972.950437","Mapping"
"Blocked","Female","tile","15","F_tile.wav","None","723.274218384","314","224380.538104","216663.430345","217430.232749","218196.520379","218963.535495","219730.514746","220480.1231","221246.637973","225147.772423","225896.693795","226663.355525","227429.614712","228196.609112","228963.33546","229730.316256","230496.347273","229739.611858","Mapping"
"Blocked","Female","tile","15","F_bluff.wav","space","444.088345859","314","224380.538104","231246.58325","217430.232749","218196.520379","218963.535495","219730.514746","220480.1231","221246.637973","225147.772423","225896.693795","226663.355525","227429.614712","228196.609112","228963.33546","229730.316256","230496.347273","230505.279287","Mapping"
"Blocked","Female","tile","15","F_tile.wav","None","732.206231914","314","224380.538104","231246.58325","232013.336495","218196.520379","218963.535495","219730.514746","220480.1231","221246.637973","225147.772423","225896.693795","226663.355525","227429.614712","228196.609112","228963.33546","229730.316256","230496.347273","231257.278478","Mapping"
"Blocked","Female","tile","15","F_depth.wav","space","654.666521121","314","224380.538104","231246.58325","232013.336495","232779.896198","218963.535495","219730.514746","220480.1231","221246.637973","225147.772423","225896.693795","226663.355525","227429.614712","228196.609112","228963.33546","229730.316256","230496.347273","232022.619421","Mapping"
"Blocked","Female","tile","15","F_jolt.wav","None","726.796937641","314","224380.538104","231246.58325","232013.336495","232779.896198","233546.374898","219730.514746","220480.1231","221246.637973","225147.772423","225896.693795","226663.355525","227429.614712","228196.609112","228963.33546","229730.316256","230496.347273","232789.319797","Mapping"
"Blocked","Female","tile","15","F_tile.wav","None","724.628705997","314","224380.538104","231246.58325","232013.336495","232779.896198","233546.374898","234313.690838","220480.1231","221246.637973","225147.772423","225896.693795","226663.355525","227429.614712","228196.609112","228963.33546","229730.316256","230496.347273","233555.237348","Mapping"
"Blocked","Female","tile","15","F_knife.wav","space","553.53102088","314","224380.538104","231246.58325","232013.336495","232779.896198","233546.374898","234313.690838","235063.038251","221246.637973","225147.772423","225896.693795","226663.355525","227429.614712","228196.609112","228963.33546","229730.316256","230496.347273","234323.732475","Mapping"
"Blocked","Female","tile","15","F_park.wav","None","733.774358407","314","224380.538104","231246.58325","232013.336495","232779.896198","233546.374898","234313.690838","235063.038251","235829.908982","225147.772423","225896.693795","226663.355525","227429.614712","228196.609112","228963.33546","229730.316256","230496.347273","235072.684455","Mapping"
"Blocked","Female","ball","5","F_jolt.wav","None","730.673351325","314","238963.467167","231246.58325","232013.336495","232779.896198","233546.374898","234313.690838","235063.038251","235829.908982","225147.772423","225896.693795","226663.355525","227429.614712","228196.609112","228963.33546","229730.316256","230496.347273","235839.319597","Mapping"
"Blocked","Female","ball","5","F_ball.wav","None","720.046141185","314","238963.467167","231246.58325","232013.336495","232779.896198","233546.374898","234313.690838","235063.038251","235829.908982","239729.637003","225896.693795","226663.355525","227429.614712","228196.609112","228963.33546","229730.316256","230496.347273","238973.329174","Mapping"
"Blocked","Female","ball","5","F_gnash.wav","space","434.485735372","314","238963.467167","231246.58325","232013.336495","232779.896198","233546.374898","234313.690838","235063.038251","235829.908982","239729.637003","240479.818565","226663.355525","227429.614712","228196.609112","228963.33546","229730.316256","230496.347273","239738.685575","Mapping"
"Blocked","Female","ball","5","F_priest.wav","None","733.57308656","314","238963.467167","231246.58325","232013.336495","232779.896198","233546.374898","234313.690838","235063.038251","235829.908982","239729.637003","240479.818565","241246.427736","227429.614712","228196.609112","228963.33546","229730.316256","230496.347273","240489.338317","Mapping"
"Blocked","Female","ball","5","F_knife.wav","None","730.497122742","314","238963.467167","231246.58325","232013.336495","232779.896198","233546.374898","234313.690838","235063.038251","235829.908982","239729.637003","240479.818565","241246.427736","242013.083282","228196.609112","228963.33546","229730.316256","230496.347273","241255.829692","Mapping"
"Blocked","Female","ball","5","F_lash.wav","None","727.165781427","314","238963.467167","231246.58325","232013.336495","232779.896198","233546.374898","234313.690838","235063.038251","235829.908982","239729.637003","240479.818565","241246.427736","242013.083282","242779.732955","228963.33546","229730.316256","230496.347273","242022.685584","Mapping"
"Blocked","Female","ball","5","F_ball.wav","None","724.231109489","314","238963.467167","231246.58325","232013.336495","232779.896198","233546.374898","234313.690838","235063.038251","235829.908982","239729.637003","240479.818565","241246.427736","242013.083282","242779.732955","243546.818252","229730.316256","230496.347273","242789.119144","Mapping"
"Blocked","Female","ball","5","F_lash.wav","space","424.556328915","314","238963.467167","231246.58325","232013.336495","232779.896198","233546.374898","234313.690838","235063.038251","235829.908982","239729.637003","240479.818565","241246.427736","242013.083282","242779.732955","243546.818252","244296.073222","230496.347273","243556.563082","Mapping"
"Blocked","Female","ball","5","F_priest.wav","None","734.927574638","314","238963.467167","231246.58325","232013.336495","232779.896198","233546.374898","234313.690838","235063.038251","235829.908982","239729.637003","240479.818565","241246.427736","242013.083282","242779.732955","243546.818252","244296.073222","245062.640964","244305.447972","Mapping"
"Blocked","Female","ball","5","F_cad.wav","None","732.061230112","314","238963.467167","245829.349688","232013.336495","232779.896198","233546.374898","234313.690838","235063.038251","235829.908982","239729.637003","240479.818565","241246.427736","242013.083282","242779.732955","243546.818252","244296.073222","245062.640964","245071.835774","Mapping"
"Blocked","Female","ball","5","F_jolt.wav","None","729.069669731","314","238963.467167","245829.349688","246596.171261","232779.896198","233546.374898","234313.690838","235063.038251","235829.908982","239729.637003","240479.818565","241246.427736","242013.083282","242779.732955","243546.818252","244296.073222","245062.640964","245838.340754","Mapping"
"Blocked","Female","ball","5","F_ball.wav","None","727.804224007","314","238963.467167","245829.349688","246596.171261","247363.018804","233546.374898","234313.690838","235063.038251","235829.908982","239729.637003","240479.818565","241246.427736","242013.083282","242779.732955","243546.818252","244296.073222","245062.640964","246603.012027","Mapping"
"Blocked","Female","ball","5","F_romp.wav","space","368.479421362","314","238963.467167","245829.349688","246596.171261","247363.018804","248112.892121","234313.690838","235063.038251","235829.908982","239729.637003","240479.818565","241246.427736","242013.083282","242779.732955","243546.818252","244296.073222","245062.640964","247372.621106","Mapping"
"Blocked","Female","ball","5","F_ball.wav","None","736.197039485","314","238963.467167","245829.349688","246596.171261","247363.018804","248112.892121","248879.6701","235063.038251","235829.908982","239729.637003","240479.818565","241246.427736","242013.083282","242779.732955","243546.818252","244296.073222","245062.640964","248122.02788","Mapping"
"Blocked","Female","ball","5","F_park.wav","space","483.806280885","314","238963.467167","245829.349688","246596.171261","247363.018804","248112.892121","248879.6701","249646.280198","235829.908982","239729.637003","240479.818565","241246.427736","242013.083282","242779.732955","243546.818252","244296.073222","245062.640964","248889.159553","Mapping"
"Blocked","Female","ball","5","F_knife.wav","None","729.579496663","314","238963.467167","245829.349688","246596.171261","247363.018804","248112.892121","248879.6701","249646.280198","250412.509086","239729.637003","240479.818565","241246.427736","242013.083282","242779.732955","243546.818252","244296.073222","245062.640964","249655.792839","Mapping"
"Blocked","Female","done","22","F_cad.wav","None","727.019233163","314","253529.082841","245829.349688","246596.171261","247363.018804","248112.892121","248879.6701","249646.280198","250412.509086","239729.637003","240479.818565","241246.427736","242013.083282","242779.732955","243546.818252","244296.073222","245062.640964","250421.669888","Mapping"
"Blocked","Female","done","22","F_knife.wav","None","724.61788496","314","253529.082841","245829.349688","246596.171261","247363.018804","248112.892121","248879.6701","249646.280198","250412.509086","254296.523378","240479.818565","241246.427736","242013.083282","242779.732955","243546.818252","244296.073222","245062.640964","253538.186755","Mapping"
"Blocked","Female","done","22","F_done.wav","None","720.038102474","314","253529.082841","245829.349688","246596.171261","247363.018804","248112.892121","248879.6701","249646.280198","250412.509086","254296.523378","255046.059078","241246.427736","242013.083282","242779.732955","243546.818252","244296.073222","245062.640964","254306.369617","Mapping"
"Blocked","Female","done","22","F_reek.wav","space","581.322908867","314","253529.082841","245829.349688","246596.171261","247363.018804","248112.892121","248879.6701","249646.280198","250412.509086","254296.523378","255046.059078","255812.802739","242013.083282","242779.732955","243546.818252","244296.073222","245062.640964","255055.585013","Mapping"
"Blocked","Female","done","22","F_jaw.wav","None","730.504543055","314","253529.082841","245829.349688","246596.171261","247363.018804","248112.892121","248879.6701","249646.280198","250412.509086","254296.523378","255046.059078","255812.802739","256579.495077","242779.732955","243546.818252","244296.073222","245062.640964","255822.437812","Mapping"
"Blocked","Female","done","22","F_park.wav","None","730.552464258","314","253529.082841","245829.349688","246596.171261","247363.018804","248112.892121","248879.6701","249646.280198","250412.509086","254296.523378","255046.059078","255812.802739","256579.495077","257346.260998","243546.818252","244296.073222","245062.640964","256588.936608","Mapping"
"Blocked","Female","done","22","F_knife.wav","None","727.663240861","314","253529.082841","245829.349688","246596.171261","247363.018804","248112.892121","248879.6701","249646.280198","250412.509086","254296.523378","255046.059078","255812.802739","256579.495077","257346.260998","258112.774326","244296.073222","245062.640964","257355.610087","Mapping"
"Blocked","Female","done","22","F_done.wav","None","724.597788882","314","253529.082841","245829.349688","246596.171261","247363.018804","248112.892121","248879.6701","249646.280198","250412.509086","254296.523378","255046.059078","255812.802739","256579.495077","257346.260998","258112.774326","258879.970616","245062.640964","258122.191123","Mapping"
"Blocked","Female","done","22","F_jaw.wav","space","394.990404602","314","253529.082841","245829.349688","246596.171261","247363.018804","248112.892121","248879.6701","249646.280198","250412.509086","254296.523378","255046.059078","255812.802739","256579.495077","257346.260998","258112.774326","258879.970616","259629.277218","258889.850864","Mapping"
"Blocked","Female","done","22","F_gnash.wav","None","734.642516822","314","253529.082841","260395.945441","246596.171261","247363.018804","248112.892121","248879.6701","249646.280198","250412.509086","254296.523378","255046.059078","255812.802739","256579.495077","257346.260998","258112.774326","258879.970616","259629.277218","259638.829124","Mapping"
"Blocked","Female","done","22","F_done.wav","None","731.676927768","314","253529.082841","260395.945441","261162.677972","247363.018804","248112.892121","248879.6701","249646.280198","250412.509086","254296.523378","255046.059078","255812.802739","256579.495077","257346.260998","258112.774326","258879.970616","259629.277218","260405.533829","Mapping"
"Blocked","Female","done","22","F_dime.wav","space","497.012923006","314","253529.082841","260395.945441","261162.677972","261929.38144","248112.892121","248879.6701","249646.280198","250412.509086","254296.523378","255046.059078","255812.802739","256579.495077","257346.260998","258112.774326","258879.970616","259629.277218","261171.774775","Mapping"
"Blocked","Female","done","22","F_bluff.wav","None","725.195730105","314","253529.082841","260395.945441","261162.677972","261929.38144","262696.359145","248879.6701","249646.280198","250412.509086","254296.523378","255046.059078","255812.802739","256579.495077","257346.260998","258112.774326","258879.970616","259629.277218","261939.359078","Mapping"
"Blocked","Female","done","22","F_jolt.wav","None","721.876137424","314","253529.082841","260395.945441","261162.677972","261929.38144","262696.359145","263462.880511","249646.280198","250412.509086","254296.523378","255046.059078","255812.802739","256579.495077","257346.260998","258112.774326","258879.970616","259629.277218","262706.153134","Mapping"
"Blocked","Female","done","22","F_done.wav","None","719.026796985","314","253529.082841","260395.945441","261162.677972","261929.38144","262696.359145","263462.880511","264212.684263","250412.509086","254296.523378","255046.059078","255812.802739","256579.495077","257346.260998","258112.774326","258879.970616","259629.277218","263472.772817","Mapping"
"Blocked","Female","done","22","F_romp.wav","space","310.412365943","314","253529.082841","260395.945441","261162.677972","261929.38144","262696.359145","263462.880511","264212.684263","264979.303637","254296.523378","255046.059078","255812.802739","256579.495077","257346.260998","258112.774326","258879.970616","259629.277218","264222.338815","Mapping"
"Blocked","Female","ball","4","F_depth.wav","None","729.607631452","314","268112.70909","260395.945441","261162.677972","261929.38144","262696.359145","263462.880511","264212.684263","264979.303637","254296.523378","255046.059078","255812.802739","256579.495077","257346.260998","258112.774326","258879.970616","259629.277218","264988.853069","Mapping"
"Blocked","Female","ball","4","F_bluff.wav","None","719.715325627","314","268112.70909","260395.945441","261162.677972","261929.38144","262696.359145","263462.880511","264212.684263","264979.303637","268862.15451","255046.059078","255812.802739","256579.495077","257346.260998","258112.774326","258879.970616","259629.277218","268122.8914","Mapping"
"Blocked","Female","ball","4","F_cad.wav","None","735.266119242","314","268112.70909","260395.945441","261162.677972","261929.38144","262696.359145","263462.880511","264212.684263","264979.303637","268862.15451","269628.966808","255812.802739","256579.495077","257346.260998","258112.774326","258879.970616","259629.277218","268871.097036","Mapping"
"Blocked","Female","ball","4","F_ball.wav","None","732.338558417","314","268112.70909","260395.945441","261162.677972","261929.38144","262696.359145","263462.880511","264212.684263","264979.303637","268862.15451","269628.966808","270395.714179","256579.495077","257346.260998","258112.774326","258879.970616","259629.277218","269637.742071","Mapping"
"Blocked","Female","ball","4","F_cad.wav","space","311.932570767","314","268112.70909","260395.945441","261162.677972","261929.38144","262696.359145","263462.880511","264212.684263","264979.303637","268862.15451","269628.966808","270395.714179","271162.561104","257346.260998","258112.774326","258879.970616","259629.277218","270404.704317","Mapping"
"Blocked","Female","ball","4","F_ball.wav","None","725.309196394","314","268112.70909","260395.945441","261162.677972","261929.38144","262696.359145","263462.880511","264212.684263","264979.303637","268862.15451","269628.966808","270395.714179","271162.561104","271929.479448","258112.774326","258879.970616","259629.277218","271172.174536","Mapping"
"Blocked","Female","ball","4","F_park.wav","space","344.823034015","314","268112.70909","260395.945441","261162.677972","261929.38144","262696.359145","263462.880511","264212.684263","264979.303637","268862.15451","269628.966808","270395.714179","271162.561104","271929.479448","272695.584976","258879.970616","259629.277218","271939.78821","Mapping"
"Blocked","Female","ball","4","F_ball.wav","None","721.128556412","314","268112.70909","260395.945441","261162.677972","261929.38144","262696.359145","263462.880511","264212.684263","264979.303637","268862.15451","269628.966808","270395.714179","271162.561104","271929.479448","272695.584976","273445.65369","259629.277218","272704.459174","Mapping"
"Blocked","Female","ball","4","F_gnash.wav","space","445.63204702","314","268112.70909","260395.945441","261162.677972","261929.38144","262696.359145","263462.880511","264212.684263","264979.303637","268862.15451","269628.966808","270395.714179","271162.561104","271929.479448","272695.584976","273445.65369","274212.449601","273454.935069","Mapping"
"Blocked","Female","ball","4","F_cling.wav","None","730.419520289","314","268112.70909","274978.764439","261162.677972","261929.38144","262696.359145","263462.880511","264212.684263","264979.303637","268862.15451","269628.966808","270395.714179","271162.561104","271929.479448","272695.584976","273445.65369","274212.449601","274221.927924","Mapping"
"Blocked","Female","ball","4","F_gnash.wav","None","728.311886545","314","268112.70909","274978.764439","275745.532525","261929.38144","262696.359145","263462.880511","264212.684263","264979.303637","268862.15451","269628.966808","270395.714179","271162.561104","271929.479448","272695.584976","273445.65369","274212.449601","274987.803427","Mapping"
"Blocked","Female","ball","4","F_reek.wav","None","725.174396764","314","268112.70909","274978.764439","275745.532525","276512.752003","262696.359145","263462.880511","264212.684263","264979.303637","268862.15451","269628.966808","270395.714179","271162.561104","271929.479448","272695.584976","273445.65369","274212.449601","275754.564401","Mapping"
"Blocked","Female","ball","4","F_greet.wav","None","720.986954868","314","268112.70909","274978.764439","275745.532525","276512.752003","277262.054277","263462.880511","264212.684263","264979.303637","268862.15451","269628.966808","270395.714179","271162.561104","271929.479448","272695.584976","273445.65369","274212.449601","276522.507655","Mapping"
"Blocked","Female","ball","4","F_ball.wav","None","735.552413855","314","268112.70909","274978.764439","275745.532525","276512.752003","277262.054277","278028.825763","264212.684263","264979.303637","268862.15451","269628.966808","270395.714179","271162.561104","271929.479448","272695.584976","273445.65369","274212.449601","277271.547749","Mapping"
"Blocked","Female","ball","4","F_knife.wav","space","390.476476401","314","268112.70909","274978.764439","275745.532525","276512.752003","277262.054277","278028.825763","278795.25314","264979.303637","268862.15451","269628.966808","270395.714179","271162.561104","271929.479448","272695.584976","273445.65369","274212.449601","278038.016246","Mapping"
"Blocked","Female","ball","4","F_dime.wav","None","729.773348197","314","268112.70909","274978.764439","275745.532525","276512.752003","277262.054277","278028.825763","278795.25314","279562.017207","268862.15451","269628.966808","270395.714179","271162.561104","271929.479448","272695.584976","273445.65369","274212.449601","278804.211434","Mapping"
"Blocked","Female","ball","6","F_romp.wav","None","726.635549217","314","282679.377498","274978.764439","275745.532525","276512.752003","277262.054277","278028.825763","278795.25314","279562.017207","268862.15451","269628.966808","270395.714179","271162.561104","271929.479448","272695.584976","273445.65369","274212.449601","279571.099788","Mapping"
"Blocked","Female","ball","6","F_romp.wav","None","719.263933133","314","282679.377498","274978.764439","275745.532525","276512.752003","277262.054277","278028.825763","278795.25314","279562.017207","283428.935767","269628.966808","270395.714179","271162.561104","271929.479448","272695.584976","273445.65369","274212.449601","282689.408313","Mapping"
"Blocked","Female","ball","6","F_ball.wav","None","733.952132985","314","282679.377498","274978.764439","275745.532525","276512.752003","277262.054277","278028.825763","278795.25314","279562.017207","283428.935767","284195.605536","270395.714179","271162.561104","271929.479448","272695.584976","273445.65369","274212.449601","283438.554145","Mapping"
"Blocked","Female","ball","6","F_jaw.wav","space","407.252832316","314","282679.377498","274978.764439","275745.532525","276512.752003","277262.054277","278028.825763","278795.25314","279562.017207","283428.935767","284195.605536","284962.245006","271162.561104","271929.479448","272695.584976","273445.65369","274212.449601","284205.125597","Mapping"
"Blocked","Female","ball","6","F_greet.wav","None","727.423322853","314","282679.377498","274978.764439","275745.532525","276512.752003","277262.054277","278028.825763","278795.25314","279562.017207","283428.935767","284195.605536","284962.245006","285729.002889","271929.479448","272695.584976","273445.65369","274212.449601","284971.90605","Mapping"
"Blocked","Female","ball","6","F_jolt.wav","None","724.817920011","314","282679.377498","274978.764439","275745.532525","276512.752003","277262.054277","278028.825763","278795.25314","279562.017207","283428.935767","284195.605536","284962.245006","285729.002889","286495.932981","272695.584976","273445.65369","274212.449601","285738.286432","Mapping"
"Blocked","Female","ball","6","F_ball.wav","None","721.212960314","314","282679.377498","274978.764439","275745.532525","276512.752003","277262.054277","278028.825763","278795.25314","279562.017207","283428.935767","284195.605536","284962.245006","285729.002889","286495.932981","287245.033055","273445.65369","274212.449601","286505.623088","Mapping"
"Blocked","Female","ball","6","F_park.wav","space","294.086475391","314","282679.377498","274978.764439","275745.532525","276512.752003","277262.054277","278028.825763","278795.25314","279562.017207","283428.935767","284195.605536","284962.245006","285729.002889","286495.932981","287245.033055","288012.181115","274212.449601","287254.246107","Mapping"
"Blocked","Female","ball","6","F_reek.wav","None","732.134194579","314","282679.377498","274978.764439","275745.532525","276512.752003","277262.054277","278028.825763","278795.25314","279562.017207","283428.935767","284195.605536","284962.245006","285729.002889","286495.932981","287245.033055","288012.181115","288778.942708","288021.656346","Mapping"
"Blocked","Female","ball","6","F_ball.wav","None","729.184682481","314","282679.377498","289545.061839","275745.532525","276512.752003","277262.054277","278028.825763","278795.25314","279562.017207","283428.935767","284195.605536","284962.245006","285729.002889","286495.932981","287245.033055","288012.181115","288778.942708","288788.382075","Mapping"
"Blocked","Female","ball","6","F_priest.wav","space","522.11314952","314","282679.377498","289545.061839","290312.126422","276512.752003","277262.054277","278028.825763","278795.25314","279562.017207","283428.935767","284195.605536","284962.245006","285729.002889","286495.932981","287245.033055","288012.181115","288778.942708","289554.17812","Mapping"
"Blocked","Female","ball","6","F_romp.wav","None","723.174973857","314","282679.377498","289545.061839","290312.126422","291079.225323","277262.054277","278028.825763","278795.25314","279562.017207","283428.935767","284195.605536","284962.245006","285729.002889","286495.932981","287245.033055","288012.181115","288778.942708","290321.424188","Mapping"
"Blocked","Female","ball","6","F_ball.wav","None","719.166234136","314","282679.377498","289545.061839","290312.126422","291079.225323","291828.798742","278028.825763","278795.25314","279562.017207","283428.935767","284195.605536","284962.245006","285729.002889","286495.932981","287245.033055","288012.181115","288778.942708","291089.191212","Mapping"
"Blocked","Female","ball","6","F_knife.wav","space","309.984470252","314","282679.377498","289545.061839","290312.126422","291079.225323","291828.798742","292595.358754","278795.25314","279562.017207","283428.935767","284195.605536","284962.245006","285729.002889","286495.932981","287245.033055","288012.181115","288778.942708","291838.209664","Mapping"
"Blocked","Female","ball","6","F_jaw.wav","None","730.121477041","314","282679.377498","289545.061839","290312.126422","291079.225323","291828.798742","292595.358754","293362.103033","279562.017207","283428.935767","284195.605536","284962.245006","285729.002889","286495.932981","287245.033055","288012.181115","288778.942708","292604.824401","Mapping"
"Blocked","Female","ball","6","F_dime.wav","None","727.751973551","314","282679.377498","289545.061839","290312.126422","291079.225323","291828.798742","292595.358754","293362.103033","294128.40705","283428.935767","284195.605536","284962.245006","285729.002889","286495.932981","287245.033055","288012.181115","288778.942708","293371.283313","Mapping"
"Blocked","Female","cave","7","F_greet.wav","None","725.506758317","314","297245.673044","289545.061839","290312.126422","291079.225323","291828.798742","292595.358754","293362.103033","294128.40705","283428.935767","284195.605536","284962.245006","285729.002889","286495.932981","287245.033055","288012.181115","288778.942708","294137.530442","Mapping"
"Blocked","Female","cave","7","F_cave.wav","None","719.744388014","314","297245.673044","289545.061839","290312.126422","291079.225323","291828.798742","292595.358754","293362.103033","294128.40705","298012.499563","284195.605536","284962.245006","285729.002889","286495.932981","287245.033055","288012.181115","288778.942708","297255.487129","Mapping"
"Blocked","Female","cave","7","F_lash.wav","space","429.53185318","314","297245.673044","289545.061839","290312.126422","291079.225323","291828.798742","292595.358754","293362.103033","294128.40705","298012.499563","298762.082257","284962.245006","285729.002889","286495.932981","287245.033055","288012.181115","288778.942708","298022.6457","Mapping"
"Blocked","Female","cave","7","F_bluff.wav","None","733.650071081","314","297245.673044","289545.061839","290312.126422","291079.225323","291828.798742","292595.358754","293362.103033","294128.40705","298012.499563","298762.082257","299528.740895","285729.002889","286495.932981","287245.033055","288012.181115","288778.942708","298771.447113","Mapping"
"Blocked","Female","cave","7","F_cave.wav","None","730.293068569","314","297245.673044","289545.061839","290312.126422","291079.225323","291828.798742","292595.358754","293362.103033","294128.40705","298012.499563","298762.082257","299528.740895","300294.871775","286495.932981","287245.033055","288012.181115","288778.942708","299538.621452","Mapping"
"Blocked","Female","cave","7","F_bluff.wav","space","588.360927533","314","297245.673044","289545.061839","290312.126422","291079.225323","291828.798742","292595.358754","293362.103033","294128.40705","298012.499563","298762.082257","299528.740895","300294.871775","301062.334882","287245.033055","288012.181115","288778.942708","300303.764524","Mapping"
"Blocked","Female","cave","7","F_romp.wav","None","723.67768921","314","297245.673044","289545.061839","290312.126422","291079.225323","291828.798742","292595.358754","293362.103033","294128.40705","298012.499563","298762.082257","299528.740895","300294.871775","301062.334882","301829.075761","288012.181115","288778.942708","301072.077857","Mapping"
"Blocked","Female","cave","7","F_cave.wav","None","720.515157096","314","297245.673044","289545.061839","290312.126422","291079.225323","291828.798742","292595.358754","293362.103033","294128.40705","298012.499563","298762.082257","299528.740895","300294.871775","301062.334882","301829.075761","302578.112145","288778.942708","301838.9591","Mapping"
"Blocked","Female","cave","7","F_greet.wav","space","376.987867523","314","297245.673044","289545.061839","290312.126422","291079.225323","291828.798742","292595.358754","293362.103033","294128.40705","298012.499563","298762.082257","299528.740895","300294.871775","301062.334882","301829.075761","302578.112145","303345.300707","302587.05127","Mapping"
"Blocked","Female","cave","7","F_knife.wav","None","732.282906771","314","297245.673044","304111.934302","290312.126422","291079.225323","291828.798742","292595.358754","293362.103033","294128.40705","298012.499563","298762.082257","299528.740895","300294.871775","301062.334882","301829.075761","302578.112145","303345.300707","303354.530454","Mapping"
"Blocked","Female","cave","7","F_dime.wav","None","729.127176572","314","297245.673044","304111.934302","304878.242029","291079.225323","291828.798742","292595.358754","293362.103033","294128.40705","298012.499563","298762.082257","299528.740895","300294.871775","301062.334882","301829.075761","302578.112145","303345.300707","304121.512488","Mapping"
"Blocked","Female","cave","7","F_cave.wav","None","727.203809656","314","297245.673044","304111.934302","304878.242029","305644.993728","291828.798742","292595.358754","293362.103033","294128.40705","298012.499563","298762.082257","299528.740895","300294.871775","301062.334882","301829.075761","302578.112145","303345.300707","304887.173115","Mapping"
"Blocked","Female","cave","7","F_romp.wav","space","478.069572244","314","297245.673044","304111.934302","304878.242029","305644.993728","306412.449106","292595.358754","293362.103033","294128.40705","298012.499563","298762.082257","299528.740895","300294.871775","301062.334882","301829.075761","302578.112145","303345.300707","305653.91523","Mapping"
"Blocked","Female","cave","7","F_greet.wav","None","719.169016927","314","297245.673044","304111.934302","304878.242029","305644.993728","306412.449106","307161.4858","293362.103033","294128.40705","298012.499563","298762.082257","299528.740895","300294.871775","301062.334882","301829.075761","302578.112145","303345.300707","306422.006886","Mapping"
"Blocked","Female","cave","7","F_gnash.wav","None","735.127918888","314","297245.673044","304111.934302","304878.242029","305644.993728","306412.449106","307161.4858","307928.158351","294128.40705","298012.499563","298762.082257","299528.740895","300294.871775","301062.334882","301829.075761","302578.112145","303345.300707","307170.344849","Mapping"
"Blocked","Female","cave","7","F_dime.wav","None","732.205613516","314","297245.673044","304111.934302","304878.242029","305644.993728","306412.449106","307161.4858","307928.158351","308695.273638","298012.499563","298762.082257","299528.740895","300294.871775","301062.334882","301829.075761","302578.112145","303345.300707","307937.115408","Mapping"
"Blocked","Female","tile","17","F_jaw.wav","None","728.408039548","314","311828.872943","304111.934302","304878.242029","305644.993728","306412.449106","307161.4858","307928.158351","308695.273638","298012.499563","298762.082257","299528.740895","300294.871775","301062.334882","301829.075761","302578.112145","303345.300707","308704.84966","Mapping"
"Blocked","Female","tile","17","F_tile.wav","None","718.715150375","314","311828.872943","304111.934302","304878.242029","305644.993728","306412.449106","307161.4858","307928.158351","308695.273638","312578.39442","298762.082257","299528.740895","300294.871775","301062.334882","301829.075761","302578.112145","303345.300707","311839.421933","Mapping"
"Blocked","Female","tile","17","F_reek.wav","None","734.179375693","314","311828.872943","304111.934302","304878.242029","305644.993728","306412.449106","307161.4858","307928.158351","308695.273638","312578.39442","313345.280919","299528.740895","300294.871775","301062.334882","301829.075761","302578.112145","303345.300707","312587.926848","Mapping"
"Blocked","Female","tile","17","F_gnash.wav","space","81.3314109109","314","311828.872943","304111.934302","304878.242029","305644.993728","306412.449106","307161.4858","307928.158351","308695.273638","312578.39442","313345.280919","314111.718499","300294.871775","301062.334882","301829.075761","302578.112145","303345.300707","313354.539729","Mapping"
"Blocked","Female","tile","17","F_tile.wav","None","728.139985818","314","311828.872943","304111.934302","304878.242029","305644.993728","306412.449106","307161.4858","307928.158351","308695.273638","312578.39442","313345.280919","314111.718499","314878.036429","301062.334882","301829.075761","302578.112145","303345.300707","314121.221556","Mapping"
"Blocked","Female","tile","17","F_knife.wav","space","476.660051383","314","311828.872943","304111.934302","304878.242029","305644.993728","306412.449106","307161.4858","307928.158351","308695.273638","312578.39442","313345.280919","314111.718499","314878.036429","315645.299192","301829.075761","302578.112145","303345.300707","314887.157347","Mapping"
"Blocked","Female","tile","17","F_tile.wav","None","721.689396538","314","311828.872943","304111.934302","304878.242029","305644.993728","306412.449106","307161.4858","307928.158351","308695.273638","312578.39442","313345.280919","314111.718499","314878.036429","315645.299192","316411.99895","302578.112145","303345.300707","315654.815543","Mapping"
"Blocked","Female","tile","17","F_jaw.wav","space","541.902398691","314","311828.872943","304111.934302","304878.242029","305644.993728","306412.449106","307161.4858","307928.158351","308695.273638","312578.39442","313345.280919","314111.718499","314878.036429","315645.299192","316411.99895","317161.521045","303345.300707","316421.883526","Mapping"
"Blocked","Female","tile","17","F_tile.wav","None","735.953411087","314","311828.872943","304111.934302","304878.242029","305644.993728","306412.449106","307161.4858","307928.158351","308695.273638","312578.39442","313345.280919","314111.718499","314878.036429","315645.299192","316411.99895","317161.521045","317928.398888","317170.436364","Mapping"
"Blocked","Female","tile","17","F_priest.wav","space","449.643260334","314","311828.872943","318695.059691","304878.242029","305644.993728","306412.449106","307161.4858","307928.158351","308695.273638","312578.39442","313345.280919","314111.718499","314878.036429","315645.299192","316411.99895","317161.521045","317928.398888","317938.165979","Mapping"
"Blocked","Female","tile","17","F_park.wav","None","729.116355069","314","311828.872943","318695.059691","319461.665151","305644.993728","306412.449106","307161.4858","307928.158351","308695.273638","312578.39442","313345.280919","314111.718499","314878.036429","315645.299192","316411.99895","317161.521045","317928.398888","318704.40476","Mapping"
"Blocked","Female","tile","17","F_depth.wav","None","725.938363466","314","311828.872943","318695.059691","319461.665151","320228.760651","306412.449106","307161.4858","307928.158351","308695.273638","312578.39442","313345.280919","314111.718499","314878.036429","315645.299192","316411.99895","317161.521045","317928.398888","319471.358659","Mapping"
"Blocked","Female","tile","17","F_cling.wav","None","722.673804034","314","311828.872943","318695.059691","319461.665151","320228.760651","320995.158966","307161.4858","307928.158351","308695.273638","312578.39442","313345.280919","314111.718499","314878.036429","315645.299192","316411.99895","317161.521045","317928.398888","320238.728704","Mapping"
"Blocked","Female","tile","17","F_depth.wav","None","720.683037769","314","311828.872943","318695.059691","319461.665151","320228.760651","320995.158966","321744.690955","307928.158351","308695.273638","312578.39442","313345.280919","314111.718499","314878.036429","315645.299192","316411.99895","317161.521045","317928.398888","321004.739625","Mapping"
"Blocked","Female","tile","17","F_romp.wav","None","735.35516113","314","311828.872943","318695.059691","319461.665151","320228.760651","320995.158966","321744.690955","322511.202118","308695.273638","312578.39442","313345.280919","314111.718499","314878.036429","315645.299192","316411.99895","317161.521045","317928.398888","321754.063231","Mapping"
"Blocked","Female","tile","17","F_lash.wav","None","733.605240937","314","311828.872943","318695.059691","319461.665151","320228.760651","320995.158966","321744.690955","322511.202118","323277.895693","312578.39442","313345.280919","314111.718499","314878.036429","315645.299192","316411.99895","317161.521045","317928.398888","322520.13104","Mapping"
"Blocked","Female","done","20","F_cad.wav","None","731.050233357","314","326412.06264","318695.059691","319461.665151","320228.760651","320995.158966","321744.690955","322511.202118","323277.895693","312578.39442","313345.280919","314111.718499","314878.036429","315645.299192","316411.99895","317161.521045","317928.398888","323286.752269","Mapping"
"Blocked","Female","done","20","F_priest.wav","None","719.752426259","314","326412.06264","318695.059691","319461.665151","320228.760651","320995.158966","321744.690955","322511.202118","323277.895693","327160.937326","313345.280919","314111.718499","314878.036429","315645.299192","316411.99895","317161.521045","317928.398888","326421.92712","Mapping"
"Blocked","Female","done","20","F_done.wav","None","736.580414698","314","326412.06264","318695.059691","319461.665151","320228.760651","320995.158966","321744.690955","322511.202118","323277.895693","327160.937326","327928.270272","314111.718499","314878.036429","315645.299192","316411.99895","317161.521045","317928.398888","327169.654465","Mapping"
"Blocked","Female","done","20","F_priest.wav","space","489.715817384","314","326412.06264","318695.059691","319461.665151","320228.760651","320995.158966","321744.690955","322511.202118","323277.895693","327160.937326","327928.270272","328694.74186","314878.036429","315645.299192","316411.99895","317161.521045","317928.398888","327937.930388","Mapping"
"Blocked","Female","done","20","F_done.wav","None","729.049264453","314","326412.06264","318695.059691","319461.665151","320228.760651","320995.158966","321744.690955","322511.202118","323277.895693","327160.937326","327928.270272","328694.74186","329461.124407","315645.299192","316411.99895","317161.521045","317928.398888","328704.461029","Mapping"
"Blocked","Female","done","20","F_gnash.wav","space","389.549884014","314","326412.06264","318695.059691","319461.665151","320228.760651","320995.158966","321744.690955","322511.202118","323277.895693","327160.937326","327928.270272","328694.74186","329461.124407","330228.587205","316411.99895","317161.521045","317928.398888","329470.02674","Mapping"
"Blocked","Female","done","20","F_cling.wav","None","721.984656993","314","326412.06264","318695.059691","319461.665151","320228.760651","320995.158966","321744.690955","322511.202118","323277.895693","327160.937326","327928.270272","328694.74186","329461.124407","330228.587205","330995.06034","317161.521045","317928.398888","330238.580301","Mapping"
"Blocked","Female","done","20","F_done.wav","None","719.909486361","314","326412.06264","318695.059691","319461.665151","320228.760651","320995.158966","321744.690955","322511.202118","323277.895693","327160.937326","327928.270272","328694.74186","329461.124407","330228.587205","330995.06034","331744.473916","317928.398888","331004.74148","Mapping"
"Blocked","Female","done","20","F_cad.wav","space","465.446030255","314","326412.06264","318695.059691","319461.665151","320228.760651","320995.158966","321744.690955","322511.202118","323277.895693","327160.937326","327928.270272","328694.74186","329461.124407","330228.587205","330995.06034","331744.473916","332511.465843","331754.093531","Mapping"
"Blocked","Female","done","20","F_cad.wav","None","731.051779818","314","326412.06264","333278.100675","319461.665151","320228.760651","320995.158966","321744.690955","322511.202118","323277.895693","327160.937326","327928.270272","328694.74186","329461.124407","330228.587205","330995.06034","331744.473916","332511.465843","332520.841211","Mapping"
"Blocked","Female","done","20","F_greet.wav","None","728.360117413","314","326412.06264","333278.100675","334044.412112","320228.760651","320995.158966","321744.690955","322511.202118","323277.895693","327160.937326","327928.270272","328694.74186","329461.124407","330228.587205","330995.06034","331744.473916","332511.465843","333287.507579","Mapping"
"Blocked","Female","done","20","F_done.wav","None","726.427475922","314","326412.06264","333278.100675","334044.412112","334811.228429","320995.158966","321744.690955","322511.202118","323277.895693","327160.937326","327928.270272","328694.74186","329461.124407","330228.587205","330995.06034","331744.473916","332511.465843","334053.423892","Mapping"
"Blocked","Female","done","20","F_bluff.wav","space","495.223119855","314","326412.06264","333278.100675","334044.412112","334811.228429","335561.49625","321744.690955","322511.202118","323277.895693","327160.937326","327928.270272","328694.74186","329461.124407","330228.587205","330995.06034","331744.473916","332511.465843","334820.267107","Mapping"
"Blocked","Female","done","20","F_priest.wav","None","736.685224343","314","326412.06264","333278.100675","334044.412112","334811.228429","335561.49625","336328.081924","322511.202118","323277.895693","327160.937326","327928.270272","328694.74186","329461.124407","330228.587205","330995.06034","331744.473916","332511.465843","335570.26502","Mapping"
"Blocked","Female","done","20","F_cad.wav","None","733.44045179","314","326412.06264","333278.100675","334044.412112","334811.228429","335561.49625","336328.081924","337094.391196","323277.895693","327160.937326","327928.270272","328694.74186","329461.124407","330228.587205","330995.06034","331744.473916","332511.465843","336337.537367","Mapping"
"Blocked","Female","done","20","F_knife.wav","None","730.780943763","314","326412.06264","333278.100675","334044.412112","334811.228429","335561.49625","336328.081924","337094.391196","337861.462581","327160.937326","327928.270272","328694.74186","329461.124407","330228.587205","330995.06034","331744.473916","332511.465843","337104.223832","Mapping"
"Blocked","Female","tile","13","F_reek.wav","None","728.659396991","314","340994.829697","333278.100675","334044.412112","334811.228429","335561.49625","336328.081924","337094.391196","337861.462581","327160.937326","327928.270272","328694.74186","329461.124407","330228.587205","330995.06034","331744.473916","332511.465843","337870.441898","Mapping"
"Blocked","Female","tile","13","F_tile.wav","None","720.360570122","314","340994.829697","333278.100675","334044.412112","334811.228429","335561.49625","336328.081924","337094.391196","337861.462581","341744.335406","327928.270272","328694.74186","329461.124407","330228.587205","330995.06034","331744.473916","332511.465843","341004.209084","Mapping"
"Blocked","Female","tile","13","F_jolt.wav","space","497.561705299","314","340994.829697","333278.100675","334044.412112","334811.228429","335561.49625","336328.081924","337094.391196","337861.462581","341744.335406","342511.301981","328694.74186","329461.124407","330228.587205","330995.06034","331744.473916","332511.465843","341753.803835","Mapping"
"Blocked","Female","tile","13","F_jolt.wav","None","730.832266156","314","340994.829697","333278.100675","334044.412112","334811.228429","335561.49625","336328.081924","337094.391196","337861.462581","341744.335406","342511.301981","343277.966185","329461.124407","330228.587205","330995.06034","331744.473916","332511.465843","342521.085149","Mapping"
"Blocked","Female","tile","13","F_tile.wav","None","728.770390153","314","340994.829697","333278.100675","334044.412112","334811.228429","335561.49625","336328.081924","337094.391196","337861.462581","341744.335406","342511.301981","343277.966185","344044.402837","330228.587205","330995.06034","331744.473916","332511.465843","343287.195314","Mapping"
"Blocked","Female","tile","13","F_cling.wav","space","477.349816822","314","340994.829697","333278.100675","334044.412112","334811.228429","335561.49625","336328.081924","337094.391196","337861.462581","341744.335406","342511.301981","343277.966185","344044.402837","344811.617987","330995.06034","331744.473916","332511.465843","344053.9668","Mapping"
"Blocked","Female","tile","13","F_gnash.wav","None","721.649822313","314","340994.829697","333278.100675","334044.412112","334811.228429","335561.49625","336328.081924","337094.391196","337861.462581","341744.335406","342511.301981","343277.966185","344044.402837","344811.617987","345578.277553","331744.473916","332511.465843","344821.659932","Mapping"
"Blocked","Female","tile","13","F_romp.wav","None","719.11398368","314","340994.829697","333278.100675","334044.412112","334811.228429","335561.49625","336328.081924","337094.391196","337861.462581","341744.335406","342511.301981","343277.966185","344044.402837","344811.617987","345578.277553","346327.78048","332511.465843","345588.388135","Mapping"
"Blocked","Female","tile","13","F_cling.wav","None","734.453612007","314","340994.829697","333278.100675","334044.412112","334811.228429","335561.49625","336328.081924","337094.391196","337861.462581","341744.335406","342511.301981","343277.966185","344044.402837","344811.617987","345578.277553","346327.78048","347094.394597","346337.361139","Mapping"
"Blocked","Female","tile","13","F_tile.wav","None","732.085963711","314","340994.829697","347861.150316","334044.412112","334811.228429","335561.49625","336328.081924","337094.391196","337861.462581","341744.335406","342511.301981","343277.966185","344044.402837","344811.617987","345578.277553","346327.78048","347094.394597","347103.853133","Mapping"
"Blocked","Female","tile","13","F_jolt.wav","space","580.319332425","314","340994.829697","347861.150316","348627.87419","334811.228429","335561.49625","336328.081924","337094.391196","337861.462581","341744.335406","342511.301981","343277.966185","344044.402837","344811.617987","345578.277553","346327.78048","347094.394597","347870.902875","Mapping"
"Blocked","Female","tile","13","F_dime.wav","None","725.95227696","314","340994.829697","347861.150316","348627.87419","349394.22211","335561.49625","336328.081924","337094.391196","337861.462581","341744.335406","342511.301981","343277.966185","344044.402837","344811.617987","345578.277553","346327.78048","347094.394597","348637.440627","Mapping"
"Blocked","Female","tile","13","F_lash.wav","None","724.637053907","314","340994.829697","347861.150316","348627.87419","349394.22211","350160.9061","336328.081924","337094.391196","337861.462581","341744.335406","342511.301981","343277.966185","344044.402837","344811.617987","345578.277553","346327.78048","347094.394597","349403.13279","Mapping"
"Blocked","Female","tile","13","F_cad.wav","None","721.931788139","314","340994.829697","347861.150316","348627.87419","349394.22211","350160.9061","350910.76705","337094.391196","337861.462581","341744.335406","342511.301981","343277.966185","344044.402837","344811.617987","345578.277553","346327.78048","347094.394597","350170.178823","Mapping"
"Blocked","Female","tile","13","F_tile.wav","None","736.255782656","314","340994.829697","347861.150316","348627.87419","349394.22211","350160.9061","350910.76705","351677.796077","337861.462581","341744.335406","342511.301981","343277.966185","344044.402837","344811.617987","345578.277553","346327.78048","347094.394597","350920.054921","Mapping"
"Blocked","Female","tile","13","F_greet.wav","space","531.843757723","314","340994.829697","347861.150316","348627.87419","349394.22211","350160.9061","350910.76705","351677.796077","352444.105041","341744.335406","342511.301981","343277.966185","344044.402837","344811.617987","345578.277553","346327.78048","347094.394597","351687.335616","Mapping"
"Blocked","Female","cave","10","F_jaw.wav","None","730.478262994","314","355578.182946","347861.150316","348627.87419","349394.22211","350160.9061","350910.76705","351677.796077","352444.105041","341744.335406","342511.301981","343277.966185","344044.402837","344811.617987","345578.277553","346327.78048","347094.394597","352453.137536","Mapping"
"Blocked","Female","cave","10","F_priest.wav","None","719.22064852","314","355578.182946","347861.150316","348627.87419","349394.22211","350160.9061","350910.76705","351677.796077","352444.105041","356327.224895","342511.301981","343277.966185","344044.402837","344811.617987","345578.277553","346327.78048","347094.394597","355588.030112","Mapping"
"Blocked","Female","cave","10","F_cave.wav","None","735.145851038","314","355578.182946","347861.150316","348627.87419","349394.22211","350160.9061","350910.76705","351677.796077","352444.105041","356327.224895","357094.001947","343277.966185","344044.402837","344811.617987","345578.277553","346327.78048","347094.394597","356336.248734","Mapping"
"Blocked","Female","cave","10","F_reek.wav","space","460.031479597","314","355578.182946","347861.150316","348627.87419","349394.22211","350160.9061","350910.76705","351677.796077","352444.105041","356327.224895","357094.001947","357860.545573","344044.402837","344811.617987","345578.277553","346327.78048","347094.394597","357103.013728","Mapping"
"Blocked","Female","cave","10","F_cad.wav","None","729.000724386","314","355578.182946","347861.150316","348627.87419","349394.22211","350160.9061","350910.76705","351677.796077","352444.105041","356327.224895","357094.001947","357860.545573","358627.267592","344811.617987","345578.277553","346327.78048","347094.394597","357869.650415","Mapping"
"Blocked","Female","cave","10","F_lash.wav","None","726.345235948","314","355578.182946","347861.150316","348627.87419","349394.22211","350160.9061","350910.76705","351677.796077","352444.105041","356327.224895","357094.001947","357860.545573","358627.267592","359394.052064","345578.277553","346327.78048","347094.394597","358636.447254","Mapping"
"Blocked","Female","cave","10","F_cave.wav","None","724.117334001","314","355578.182946","347861.150316","348627.87419","349394.22211","350160.9061","350910.76705","351677.796077","352444.105041","356327.224895","357094.001947","357860.545573","358627.267592","359394.052064","360161.44468","346327.78048","347094.394597","359402.942339","Mapping"
"Blocked","Female","cave","10","F_lash.wav","space","519.886174705","314","355578.182946","347861.150316","348627.87419","349394.22211","350160.9061","350910.76705","351677.796077","352444.105041","356327.224895","357094.001947","357860.545573","358627.267592","359394.052064","360161.44468","360910.832285","347094.394597","360171.135095","Mapping"
"Blocked","Female","cave","10","F_park.wav","None","733.959553298","314","355578.182946","347861.150316","348627.87419","349394.22211","350160.9061","350910.76705","351677.796077","352444.105041","356327.224895","357094.001947","357860.545573","358627.267592","359394.052064","360161.44468","360910.832285","361677.630052","360920.383882","Mapping"
"Blocked","Female","cave","10","F_dime.wav","None","731.225225609","314","355578.182946","362443.934377","348627.87419","349394.22211","350160.9061","350910.76705","351677.796077","352444.105041","356327.224895","357094.001947","357860.545573","358627.267592","359394.052064","360161.44468","360910.832285","361677.630052","361687.413837","Mapping"
"Blocked","Female","cave","10","F_gnash.wav","None","729.743358213","314","355578.182946","362443.934377","363210.875909","349394.22211","350160.9061","350910.76705","351677.796077","352444.105041","356327.224895","357094.001947","357860.545573","358627.267592","359394.052064","360161.44468","360910.832285","361677.630052","362453.04262","Mapping"
"Blocked","Female","cave","10","F_priest.wav","None","726.558255963","314","355578.182946","362443.934377","363210.875909","363978.067562","350160.9061","350910.76705","351677.796077","352444.105041","356327.224895","357094.001947","357860.545573","358627.267592","359394.052064","360161.44468","360910.832285","361677.630052","363220.456878","Mapping"
"Blocked","Female","cave","10","F_cave.wav","None","723.289986141","314","355578.182946","362443.934377","363210.875909","363978.067562","364743.905964","350910.76705","351677.796077","352444.105041","356327.224895","357094.001947","357860.545573","358627.267592","359394.052064","360161.44468","360910.832285","361677.630052","363987.963269","Mapping"
"Blocked","Female","cave","10","F_gnash.wav","space","505.918657407","314","355578.182946","362443.934377","363210.875909","363978.067562","364743.905964","365493.88409","351677.796077","352444.105041","356327.224895","357094.001947","357860.545573","358627.267592","359394.052064","360161.44468","360910.832285","361677.630052","364753.073568","Mapping"
"Blocked","Female","cave","10","F_cave.wav","None","735.151416156","314","355578.182946","362443.934377","363210.875909","363978.067562","364743.905964","365493.88409","366260.266019","352444.105041","356327.224895","357094.001947","357860.545573","358627.267592","359394.052064","360161.44468","360910.832285","361677.630052","365503.33366","Mapping"
"Blocked","Female","cave","10","F_jaw.wav","space","485.207453836","314","355578.182946","362443.934377","363210.875909","363978.067562","364743.905964","365493.88409","366260.266019","367027.517961","356327.224895","357094.001947","357860.545573","358627.267592","359394.052064","360161.44468","360910.832285","361677.630052","366269.736921","Mapping"
"Blocked","Female","ball","3","F_cad.wav","None","728.680729866","314","370161.009982","362443.934377","363210.875909","363978.067562","364743.905964","365493.88409","366260.266019","367027.517961","356327.224895","357094.001947","357860.545573","358627.267592","359394.052064","360161.44468","360910.832285","361677.630052","367036.924865","Mapping"
"Blocked","Female","ball","3","F_ball.wav","None","720.019551925","314","370161.009982","362443.934377","363210.875909","363978.067562","364743.905964","365493.88409","366260.266019","367027.517961","370910.319366","357094.001947","357860.545573","358627.267592","359394.052064","360161.44468","360910.832285","361677.630052","370170.963504","Mapping"
"Blocked","Female","ball","3","F_jolt.wav","space","435.316174757","314","370161.009982","362443.934377","363210.875909","363978.067562","364743.905964","365493.88409","366260.266019","367027.517961","370910.319366","371677.502363","357860.545573","358627.267592","359394.052064","360161.44468","360910.832285","361677.630052","370919.492226","Mapping"
"Blocked","Female","ball","3","F_gnash.wav","None","731.409183703","314","370161.009982","362443.934377","363210.875909","363978.067562","364743.905964","365493.88409","366260.266019","367027.517961","370910.319366","371677.502363","372444.032695","358627.267592","359394.052064","360161.44468","360910.832285","361677.630052","371687.103118","Mapping"
"Blocked","Female","ball","3","F_cad.wav","None","729.47530495","314","370161.009982","362443.934377","363210.875909","363978.067562","364743.905964","365493.88409","366260.266019","367027.517961","370910.319366","371677.502363","372444.032695","373210.742965","359394.052064","360161.44468","360910.832285","361677.630052","372453.422285","Mapping"
"Blocked","Female","ball","3","F_ball.wav","None","726.907930803","314","370161.009982","362443.934377","363210.875909","363978.067562","364743.905964","365493.88409","366260.266019","367027.517961","370910.319366","371677.502363","372444.032695","373210.742965","373977.143753","360161.44468","360910.832285","361677.630052","373220.251896","Mapping"
"Blocked","Female","ball","3","F_cling.wav","space","296.445466578","314","370161.009982","362443.934377","363210.875909","363978.067562","364743.905964","365493.88409","366260.266019","367027.517961","370910.319366","371677.502363","372444.032695","373210.742965","373977.143753","374744.467114","360910.832285","361677.630052","373986.326815","Mapping"
"Blocked","Female","ball","3","F_jolt.wav","None","720.662941691","314","370161.009982","362443.934377","363210.875909","363978.067562","364743.905964","365493.88409","366260.266019","367027.517961","370910.319366","371677.502363","372444.032695","373210.742965","373977.143753","374744.467114","375493.903568","361677.630052","374754.273469","Mapping"
"Blocked","Female","ball","3","F_bluff.wav","None","735.836234409","314","370161.009982","362443.934377","363210.875909","363978.067562","364743.905964","365493.88409","366260.266019","367027.517961","370910.319366","371677.502363","372444.032695","373210.742965","373977.143753","374744.467114","375493.903568","376260.693915","375503.432905","Mapping"
"Blocked","Female","ball","3","F_priest.wav","None","733.511561528","314","370161.009982","377027.345751","363210.875909","363978.067562","364743.905964","365493.88409","366260.266019","367027.517961","370910.319366","371677.502363","372444.032695","373210.742965","373977.143753","374744.467114","375493.903568","376260.693915","376270.134827","Mapping"
"Blocked","Female","ball","3","F_ball.wav","None","730.601004791","314","370161.009982","377027.345751","377793.826924","363978.067562","364743.905964","365493.88409","366260.266019","367027.517961","370910.319366","371677.502363","372444.032695","373210.742965","373977.143753","374744.467114","375493.903568","376260.693915","377037.287834","Mapping"
"Blocked","Female","ball","3","F_knife.wav","space","575.456347317","314","370161.009982","377027.345751","377793.826924","378560.634584","364743.905964","365493.88409","366260.266019","367027.517961","370910.319366","371677.502363","372444.032695","373210.742965","373977.143753","374744.467114","375493.903568","376260.693915","377803.233828","Mapping"
"Blocked","Female","ball","3","F_lash.wav","None","725.493463688","314","370161.009982","377027.345751","377793.826924","378560.634584","379327.036609","365493.88409","366260.266019","367027.517961","370910.319366","371677.502363","372444.032695","373210.742965","373977.143753","374744.467114","375493.903568","376260.693915","378570.053237","Mapping"
"Blocked","Female","ball","3","F_ball.wav","None","723.999229725","314","370161.009982","377027.345751","377793.826924","378560.634584","379327.036609","380093.580853","366260.266019","367027.517961","370910.319366","371677.502363","372444.032695","373210.742965","373977.143753","374744.467114","375493.903568","376260.693915","379336.179788","Mapping"
"Blocked","Female","ball","3","F_dime.wav","space","412.013480905","314","370161.009982","377027.345751","377793.826924","378560.634584","379327.036609","380093.580853","380860.534752","367027.517961","370910.319366","371677.502363","372444.032695","373210.742965","373977.143753","374744.467114","375493.903568","376260.693915","380102.619223","Mapping"
"Blocked","Female","ball","3","F_jolt.wav","None","721.081561875","314","370161.009982","377027.345751","377793.826924","378560.634584","379327.036609","380093.580853","380860.534752","381610.122702","370910.319366","371677.502363","372444.032695","373210.742965","373977.143753","374744.467114","375493.903568","376260.693915","380869.487172","Mapping"
"Blocked","Female","cave","9","F_jaw.wav","None","735.651967581","314","384744.175254","377027.345751","377793.826924","378560.634584","379327.036609","380093.580853","380860.534752","381610.122702","370910.319366","371677.502363","372444.032695","373210.742965","373977.143753","374744.467114","375493.903568","376260.693915","381619.250731","Mapping"
"Blocked","Female","cave","9","F_cave.wav","None","719.917525072","314","384744.175254","377027.345751","377793.826924","378560.634584","379327.036609","380093.580853","380860.534752","381610.122702","385493.5777","371677.502363","372444.032695","373210.742965","373977.143753","374744.467114","375493.903568","376260.693915","384753.93678","Mapping"
"Blocked","Female","cave","9","F_depth.wav","None","734.9779699","314","384744.175254","377027.345751","377793.826924","378560.634584","379327.036609","380093.580853","380860.534752","381610.122702","385493.5777","386260.16461","372444.032695","373210.742965","373977.143753","374744.467114","375493.903568","376260.693915","385503.022013","Mapping"
"Blocked","Female","cave","9","F_knife.wav","space","21.2670969777","314","384744.175254","377027.345751","377793.826924","378560.634584","379327.036609","380093.580853","380860.534752","381610.122702","385493.5777","386260.16461","387027.161484","373210.742965","373977.143753","374744.467114","375493.903568","376260.693915","386269.345508","Mapping"
"Blocked","Female","cave","9","F_cave.wav","None","728.661561385","314","384744.175254","377027.345751","377793.826924","378560.634584","379327.036609","380093.580853","380860.534752","381610.122702","385493.5777","386260.16461","387027.161484","387793.685941","373977.143753","374744.467114","375493.903568","376260.693915","387036.747708","Mapping"
"Blocked","Female","cave","9","F_lash.wav","space","527.115571778","314","384744.175254","377027.345751","377793.826924","378560.634584","379327.036609","380093.580853","380860.534752","381610.122702","385493.5777","386260.16461","387027.161484","387793.685941","388560.969728","374744.467114","375493.903568","376260.693915","387803.447158","Mapping"
"Blocked","Female","cave","9","F_jaw.wav","None","722.067824565","314","384744.175254","377027.345751","377793.826924","378560.634584","379327.036609","380093.580853","380860.534752","381610.122702","385493.5777","386260.16461","387027.161484","387793.685941","388560.969728","389327.441317","375493.903568","376260.693915","388570.785668","Mapping"
"Blocked","Female","cave","9","F_jolt.wav","None","719.969465863","314","384744.175254","377027.345751","377793.826924","378560.634584","379327.036609","380093.580853","380860.534752","381610.122702","385493.5777","386260.16461","387027.161484","387793.685941","388560.969728","389327.441317","390076.480793","376260.693915","389337.204388","Mapping"
"Blocked","Female","cave","9","F_cling.wav","None","736.084500793","314","384744.175254","377027.345751","377793.826924","378560.634584","379327.036609","380093.580853","380860.534752","381610.122702","385493.5777","386260.16461","387027.161484","387793.685941","388560.969728","389327.441317","390076.480793","390843.810337","390085.468767","Mapping"
"Blocked","Female","cave","9","F_reek.wav","None","732.729353011","314","384744.175254","391610.371586","377793.826924","378560.634584","379327.036609","380093.580853","380860.534752","381610.122702","385493.5777","386260.16461","387027.161484","387793.685941","388560.969728","389327.441317","390076.480793","390843.810337","390853.201164","Mapping"
"Blocked","Female","cave","9","F_cave.wav","None","730.408080854","314","384744.175254","391610.371586","392377.074436","378560.634584","379327.036609","380093.580853","380860.534752","381610.122702","385493.5777","386260.16461","387027.161484","387793.685941","388560.969728","389327.441317","390076.480793","390843.810337","391619.802605","Mapping"
"Blocked","Female","cave","9","F_bluff.wav","space","349.44053553","314","384744.175254","391610.371586","392377.074436","393143.654854","379327.036609","380093.580853","380860.534752","381610.122702","385493.5777","386260.16461","387027.161484","387793.685941","388560.969728","389327.441317","390076.480793","390843.810337","392381.004955","Mapping"
"Blocked","Female","cave","9","F_cave.wav","None","724.953647237","314","384744.175254","391610.371586","392377.074436","393143.654854","393910.712326","380093.580853","380860.534752","381610.122702","385493.5777","386260.16461","387027.161484","387793.685941","388560.969728","389327.441317","390076.480793","390843.810337","393153.032077","Mapping"
"Blocked","Female","cave","9","F_romp.wav","space","441.966489889","314","384744.175254","391610.371586","392377.074436","393143.654854","393910.712326","394677.436509","380860.534752","381610.122702","385493.5777","386260.16461","387027.161484","387793.685941","388560.969728","389327.441317","390076.480793","390843.810337","393920.466122","Mapping"
"Blocked","Female","cave","9","F_cling.wav","None","717.971588485","314","384744.175254","391610.371586","392377.074436","393143.654854","393910.712326","394677.436509","395426.937581","381610.122702","385493.5777","386260.16461","387027.161484","387793.685941","388560.969728","389327.441317","390076.480793","390843.810337","394687.810816","Mapping"
"Blocked","Female","cave","9","F_cad.wav","None","733.82258974","314","384744.175254","391610.371586","392377.074436","393143.654854","393910.712326","394677.436509","395426.937581","396193.620953","385493.5777","386260.16461","387027.161484","387793.685941","388560.969728","389327.441317","390076.480793","390843.810337","395436.43971","Mapping"
"Blocked","Female","done","23","F_greet.wav","None","731.490186881","314","399327.224277","391610.371586","392377.074436","393143.654854","393910.712326","394677.436509","395426.937581","396193.620953","385493.5777","386260.16461","387027.161484","387793.685941","388560.969728","389327.441317","390076.480793","390843.810337","396203.26592","Mapping"
"Blocked","Female","done","23","F_dime.wav","None","719.115220476","314","399327.224277","391610.371586","392377.074436","393143.654854","393910.712326","394677.436509","395426.937581","396193.620953","400076.782855","386260.16461","387027.161484","387793.685941","388560.969728","389327.441317","390076.480793","390843.810337","399337.358665","Mapping"
"Blocked","Female","done","23","F_done.wav","space","451.960513834","314","399327.224277","391610.371586","392377.074436","393143.654854","393910.712326","394677.436509","395426.937581","396193.620953","400076.782855","400843.340394","387027.161484","387793.685941","388560.969728","389327.441317","390076.480793","390843.810337","400086.331051","Mapping"
"Blocked","Female","done","23","F_bluff.wav","space","598.103593104","314","399327.224277","391610.371586","392377.074436","393143.654854","393910.712326","394677.436509","395426.937581","396193.620953","400076.782855","400843.340394","401609.959149","387793.685941","388560.969728","389327.441317","390076.480793","390843.810337","400852.16327","Mapping"
"Blocked","Female","done","23","F_cling.wav","None","727.907488123","314","399327.224277","391610.371586","392377.074436","393143.654854","393910.712326","394677.436509","395426.937581","396193.620953","400076.782855","400843.340394","401609.959149","402376.85616","388560.969728","389327.441317","390076.480793","390843.810337","401619.245475","Mapping"
"Blocked","Female","done","23","F_romp.wav","None","725.647741463","314","399327.224277","391610.371586","392377.074436","393143.654854","393910.712326","394677.436509","395426.937581","396193.620953","400076.782855","400843.340394","401609.959149","402376.85616","403143.62641","389327.441317","390076.480793","390843.810337","402386.13352","Mapping"
"Blocked","Female","done","23","F_done.wav","None","723.278855905","314","399327.224277","391610.371586","392377.074436","393143.654854","393910.712326","394677.436509","395426.937581","396193.620953","400076.782855","400843.340394","401609.959149","402376.85616","403143.62641","403909.997826","390076.480793","390843.810337","403152.880891","Mapping"
"Blocked","Female","done","23","F_jaw.wav","space","482.987590134","314","399327.224277","391610.371586","392377.074436","393143.654854","393910.712326","394677.436509","395426.937581","396193.620953","400076.782855","400843.340394","401609.959149","402376.85616","403143.62641","403909.997826","404659.997904","390843.810337","403919.270549","Mapping"
"Blocked","Female","done","23","F_jaw.wav","None","733.907921705","314","399327.224277","391610.371586","392377.074436","393143.654854","393910.712326","394677.436509","395426.937581","396193.620953","400076.782855","400843.340394","401609.959149","402376.85616","403143.62641","403909.997826","404659.997904","405426.839264","404669.854654","Mapping"
"Blocked","Female","done","23","F_depth.wav","None","731.930758804","314","399327.224277","406193.121329","392377.074436","393143.654854","393910.712326","394677.436509","395426.937581","396193.620953","400076.782855","400843.340394","401609.959149","402376.85616","403143.62641","403909.997826","404659.997904","405426.839264","405436.273684","Mapping"
"Blocked","Female","done","23","F_park.wav","None","729.700074065","314","399327.224277","406193.121329","406960.159014","393143.654854","393910.712326","394677.436509","395426.937581","396193.620953","400076.782855","400843.340394","401609.959149","402376.85616","403143.62641","403909.997826","404659.997904","405426.839264","406203.241495","Mapping"
"Blocked","Female","done","23","F_done.wav","None","727.756302338","314","399327.224277","406193.121329","406960.159014","407726.351728","393910.712326","394677.436509","395426.937581","396193.620953","400076.782855","400843.340394","401609.959149","402376.85616","403143.62641","403909.997826","404659.997904","405426.839264","406969.738436","Mapping"
"Blocked","Female","done","23","F_cling.wav","space","451.00485906","314","399327.224277","406193.121329","406960.159014","407726.351728","408493.088897","394677.436509","395426.937581","396193.620953","400076.782855","400843.340394","401609.959149","402376.85616","403143.62641","403909.997826","404659.997904","405426.839264","407735.166875","Mapping"
"Blocked","Female","done","23","F_done.wav","None","722.903519403","314","399327.224277","406193.121329","406960.159014","407726.351728","408493.088897","409260.415659","395426.937581","396193.620953","400076.782855","400843.340394","401609.959149","402376.85616","403143.62641","403909.997826","404659.997904","405426.839264","408502.293292","Mapping"
"Blocked","Female","done","23","F_romp.wav","space","460.130106192","314","399327.224277","406193.121329","406960.159014","407726.351728","408493.088897","409260.415659","410010.075027","396193.620953","400076.782855","400843.340394","401609.959149","402376.85616","403143.62641","403909.997826","404659.997904","405426.839264","409270.056298","Mapping"
"Blocked","Female","done","23","F_lash.wav","None","733.645742759","314","399327.224277","406193.121329","406960.159014","407726.351728","408493.088897","409260.415659","410010.075027","410776.720989","400076.782855","400843.340394","401609.959149","402376.85616","403143.62641","403909.997826","404659.997904","405426.839264","410019.152352","Mapping"
"Blocked","Female","ball","2","F_greet.wav","None","731.19678162","314","413910.333589","406193.121329","406960.159014","407726.351728","408493.088897","409260.415659","410010.075027","410776.720989","400076.782855","400843.340394","401609.959149","402376.85616","403143.62641","403909.997826","404659.997904","405426.839264","410786.133768","Mapping"
"Blocked","Female","ball","2","F_priest.wav","None","719.982142095","314","413910.333589","406193.121329","406960.159014","407726.351728","408493.088897","409260.415659","410010.075027","410776.720989","414659.739744","400843.340394","401609.959149","402376.85616","403143.62641","403909.997826","404659.997904","405426.839264","413920.174881","Mapping"
"Blocked","Female","ball","2","F_depth.wav","None","735.306311399","314","413910.333589","406193.121329","406960.159014","407726.351728","408493.088897","409260.415659","410010.075027","410776.720989","414659.739744","415426.661489","401609.959149","402376.85616","403143.62641","403909.997826","404659.997904","405426.839264","414669.391823","Mapping"
"Blocked","Female","ball","2","F_cling.wav","None","733.188166283","314","413910.333589","406193.121329","406960.159014","407726.351728","408493.088897","409260.415659","410010.075027","410776.720989","414659.739744","415426.661489","416193.078663","402376.85616","403143.62641","403909.997826","404659.997904","405426.839264","415436.206593","Mapping"
"Blocked","Female","ball","2","F_lash.wav","None","731.527597178","314","413910.333589","406193.121329","406960.159014","407726.351728","408493.088897","409260.415659","410010.075027","410776.720989","414659.739744","415426.661489","416193.078663","416959.637748","403143.62641","403909.997826","404659.997904","405426.839264","416202.418167","Mapping"
"Blocked","Female","ball","2","F_ball.wav","None","729.701928794","314","413910.333589","406193.121329","406960.159014","407726.351728","408493.088897","409260.415659","410010.075027","410776.720989","414659.739744","415426.661489","416193.078663","416959.637748","417726.361622","403909.997826","404659.997904","405426.839264","416968.834414","Mapping"
"Blocked","Female","ball","2","F_park.wav","space","490.576555021","314","413910.333589","406193.121329","406960.159014","407726.351728","408493.088897","409260.415659","410010.075027","410776.720989","414659.739744","415426.661489","416193.078663","416959.637748","417726.361622","418493.68962","404659.997904","405426.839264","417735.408339","Mapping"
"Blocked","Female","ball","2","F_park.wav","None","723.045120947","314","413910.333589","406193.121329","406960.159014","407726.351728","408493.088897","409260.415659","410010.075027","410776.720989","414659.739744","415426.661489","416193.078663","416959.637748","417726.361622","418493.68962","419260.238193","405426.839264","418503.448054","Mapping"
"Blocked","Female","ball","2","F_jolt.wav","None","720.808562357","314","413910.333589","406193.121329","406960.159014","407726.351728","408493.088897","409260.415659","410010.075027","410776.720989","414659.739744","415426.661489","416193.078663","416959.637748","417726.361622","418493.68962","419260.238193","420026.973816","419270.30951","Mapping"
"Blocked","Female","ball","2","F_knife.wav","None","718.457918148","314","413910.333589","420776.085638","406960.159014","407726.351728","408493.088897","409260.415659","410010.075027","410776.720989","414659.739744","415426.661489","416193.078663","416959.637748","417726.361622","418493.68962","419260.238193","420026.973816","420037.077287","Mapping"
"Blocked","Female","ball","2","F_ball.wav","None","735.119571444","314","413910.333589","420776.085638","421543.098589","407726.351728","408493.088897","409260.415659","410010.075027","410776.720989","414659.739744","415426.661489","416193.078663","416959.637748","417726.361622","418493.68962","419260.238193","420026.973816","420785.124626","Mapping"
"Blocked","Female","ball","2","F_priest.wav","space","449.361912906","314","413910.333589","420776.085638","421543.098589","422309.53957","408493.088897","409260.415659","410010.075027","410776.720989","414659.739744","415426.661489","416193.078663","416959.637748","417726.361622","418493.68962","419260.238193","420026.973816","421552.542285","Mapping"
"Blocked","Female","ball","2","F_ball.wav","None","728.951565456","314","413910.333589","420776.085638","421543.098589","422309.53957","423076.523459","409260.415659","410010.075027","410776.720989","414659.739744","415426.661489","416193.078663","416959.637748","417726.361622","418493.68962","419260.238193","420026.973816","422318.915247","Mapping"
"Blocked","Female","ball","2","F_dime.wav","space","483.632834628","314","413910.333589","420776.085638","421543.098589","422309.53957","423076.523459","423843.08749","410010.075027","410776.720989","414659.739744","415426.661489","416193.078663","416959.637748","417726.361622","418493.68962","419260.238193","420026.973816","423086.274163","Mapping"
"Blocked","Female","ball","2","F_ball.wav","None","729.594336823","314","413910.333589","420776.085638","421543.098589","422309.53957","423076.523459","423843.08749","424609.597107","410776.720989","414659.739744","415426.661489","416193.078663","416959.637748","417726.361622","418493.68962","419260.238193","420026.973816","423846.656895","Mapping"
"Blocked","Female","ball","2","F_cad.wav","space","327.064434532","314","413910.333589","420776.085638","421543.098589","422309.53957","423076.523459","423843.08749","424609.597107","425359.500413","414659.739744","415426.661489","416193.078663","416959.637748","417726.361622","418493.68962","419260.238193","420026.973816","424626.806924","Mapping"
"Blocked","Female","cave","8","F_jaw.wav","None","734.548528213","314","428493.507518","420776.085638","421543.098589","422309.53957","423076.523459","423843.08749","424609.597107","425359.500413","414659.739744","415426.661489","416193.078663","416959.637748","417726.361622","418493.68962","419260.238193","420026.973816","425369.775785","Mapping"
"Blocked","Female","cave","8","F_park.wav","None","719.193132129","314","428493.507518","420776.085638","421543.098589","422309.53957","423076.523459","423843.08749","424609.597107","425359.500413","429242.726623","415426.661489","416193.078663","416959.637748","417726.361622","418493.68962","419260.238193","420026.973816","428503.687663","Mapping"
"Blocked","Female","cave","8","F_depth.wav","None","735.210158862","314","428493.507518","420776.085638","421543.098589","422309.53957","423076.523459","423843.08749","424609.597107","425359.500413","429242.726623","430009.780694","416193.078663","416959.637748","417726.361622","418493.68962","419260.238193","420026.973816","429252.315012","Mapping"
"Blocked","Female","cave","8","F_cave.wav","None","731.453395449","314","428493.507518","420776.085638","421543.098589","422309.53957","423076.523459","423843.08749","424609.597107","425359.500413","429242.726623","430009.780694","430776.352764","416959.637748","417726.361622","418493.68962","419260.238193","420026.973816","430020.784478","Mapping"
"Blocked","Female","cave","8","F_priest.wav","space","415.252070408","314","428493.507518","420776.085638","421543.098589","422309.53957","423076.523459","423843.08749","424609.597107","425359.500413","429242.726623","430009.780694","430776.352764","431542.899482","417726.361622","418493.68962","419260.238193","420026.973816","430786.513432","Mapping"
"Blocked","Female","cave","8","F_cave.wav","None","727.483920753","314","428493.507518","420776.085638","421543.098589","422309.53957","423076.523459","423843.08749","424609.597107","425359.500413","429242.726623","430009.780694","430776.352764","431542.899482","432309.632013","418493.68962","419260.238193","420026.973816","431552.362964","Mapping"
"Blocked","Female","cave","8","F_jaw.wav","space","522.472099401","314","428493.507518","420776.085638","421543.098589","422309.53957","423076.523459","423843.08749","424609.597107","425359.500413","429242.726623","430009.780694","430776.352764","431542.899482","432309.632013","433076.562105","419260.238193","420026.973816","432319.255956","Mapping"
"Blocked","Female","cave","8","F_reek.wav","None","720.765586942","314","428493.507518","420776.085638","421543.098589","422309.53957","423076.523459","423843.08749","424609.597107","425359.500413","429242.726623","430009.780694","430776.352764","431542.899482","432309.632013","433076.562105","433843.191991","420026.973816","433086.725865","Mapping"
"Blocked","Female","cave","8","F_cave.wav","None","718.850568403","314","428493.507518","420776.085638","421543.098589","422309.53957","423076.523459","423843.08749","424609.597107","425359.500413","429242.726623","430009.780694","430776.352764","431542.899482","432309.632013","433076.562105","433843.191991","434592.673584","433853.28124","Mapping"
"Blocked","Female","cave","8","F_cad.wav","space","463.437641039","314","428493.507518","435359.591001","421543.098589","422309.53957","423076.523459","423843.08749","424609.597107","425359.500413","429242.726623","430009.780694","430776.352764","431542.899482","432309.632013","433076.562105","433843.191991","434592.673584","434602.250224","Mapping"
"Blocked","Female","cave","8","F_knife.wav","None","730.886371341","314","428493.507518","435359.591001","436126.271591","422309.53957","423076.523459","423843.08749","424609.597107","425359.500413","429242.726623","430009.780694","430776.352764","431542.899482","432309.632013","433076.562105","433843.191991","434592.673584","435369.125593","Mapping"
"Blocked","Female","cave","8","F_cave.wav","None","728.194709867","314","428493.507518","435359.591001","436126.271591","436892.693403","423076.523459","423843.08749","424609.597107","425359.500413","429242.726623","430009.780694","430776.352764","431542.899482","432309.632013","433076.562105","433843.191991","434592.673584","436136.469978","Mapping"
"Blocked","Female","cave","8","F_reek.wav","space","458.979363553","314","428493.507518","435359.591001","436126.271591","436892.693403","437659.948127","423843.08749","424609.597107","425359.500413","429242.726623","430009.780694","430776.352764","431542.899482","432309.632013","433076.562105","433843.191991","434592.673584","436902.672586","Mapping"
"Blocked","Female","cave","8","F_jaw.wav","None","722.251472995","314","428493.507518","435359.591001","436126.271591","436892.693403","437659.948127","438426.001095","424609.597107","425359.500413","429242.726623","430009.780694","430776.352764","431542.899482","432309.632013","433076.562105","433843.191991","434592.673584","437670.14806","Mapping"
"Blocked","Female","cave","8","F_jaw.wav","None","721.862533595","314","428493.507518","435359.591001","436126.271591","436892.693403","437659.948127","438426.001095","439193.079282","425359.500413","429242.726623","430009.780694","430776.352764","431542.899482","432309.632013","433076.562105","433843.191991","434592.673584","438435.344309","Mapping"
"Blocked","Female","cave","8","F_knife.wav","None","718.926624861","314","428493.507518","435359.591001","436126.271591","436892.693403","437659.948127","438426.001095","439193.079282","439942.57417","429242.726623","430009.780694","430776.352764","431542.899482","432309.632013","433076.562105","433843.191991","434592.673584","439202.927685","Mapping"
"Blocked","Female","tile","16","F_depth.wav","None","733.374906704","314","443076.404736","435359.591001","436126.271591","436892.693403","437659.948127","438426.001095","439193.079282","439942.57417","429242.726623","430009.780694","430776.352764","431542.899482","432309.632013","433076.562105","433843.191991","434592.673584","439952.991761","Mapping"
"Blocked","Female","tile","16","F_bluff.wav","None","718.412160873","314","443076.404736","435359.591001","436126.271591","436892.693403","437659.948127","438426.001095","439193.079282","439942.57417","443825.951875","430009.780694","430776.352764","431542.899482","432309.632013","433076.562105","433843.191991","434592.673584","443087.287633","Mapping"
"Blocked","Female","tile","16","F_gnash.wav","None","734.902531374","314","443076.404736","435359.591001","436126.271591","436892.693403","437659.948127","438426.001095","439193.079282","439942.57417","443825.951875","444592.819514","430776.352764","431542.899482","432309.632013","433076.562105","433843.191991","434592.673584","443835.621576","Mapping"
"Blocked","Female","tile","16","F_tile.wav","None","732.745120768","314","443076.404736","435359.591001","436126.271591","436892.693403","437659.948127","438426.001095","439193.079282","439942.57417","443825.951875","444592.819514","445359.409516","431542.899482","432309.632013","433076.562105","433843.191991","434592.673584","444602.346687","Mapping"
"Blocked","Female","tile","16","F_cling.wav","space","376.005315222","314","443076.404736","435359.591001","436126.271591","436892.693403","437659.948127","438426.001095","439193.079282","439942.57417","443825.951875","444592.819514","445359.409516","446126.129062","432309.632013","433076.562105","433843.191991","434592.673584","445369.512369","Mapping"
"Blocked","Female","tile","16","F_tile.wav","None","726.468596142","314","443076.404736","435359.591001","436126.271591","436892.693403","437659.948127","438426.001095","439193.079282","439942.57417","443825.951875","444592.819514","445359.409516","446126.129062","446892.578081","433076.562105","433843.191991","434592.673584","446136.313845","Mapping"
"Blocked","Female","tile","16","F_jolt.wav","None","725.245197769","314","443076.404736","435359.591001","436126.271591","436892.693403","437659.948127","438426.001095","439193.079282","439942.57417","443825.951875","444592.819514","445359.409516","446126.129062","446892.578081","447659.805907","433843.191991","434592.673584","446902.374234","Mapping"
"Blocked","Female","tile","16","F_dime.wav","space","123.64949286","314","443076.404736","435359.591001","436126.271591","436892.693403","437659.948127","438426.001095","439193.079282","439942.57417","443825.951875","444592.819514","445359.409516","446126.129062","446892.578081","447659.805907","448425.750665","434592.673584","447669.798694","Mapping"
"Blocked","Female","tile","16","F_dime.wav","None","720.616256353","314","443076.404736","435359.591001","436126.271591","436892.693403","437659.948127","438426.001095","439193.079282","439942.57417","443825.951875","444592.819514","445359.409516","446126.129062","446892.578081","447659.805907","448425.750665","449175.433221","448435.058324","Mapping"
"Blocked","Female","tile","16","F_cling.wav","None","735.791713931","314","443076.404736","449942.530267","436126.271591","436892.693403","437659.948127","438426.001095","439193.079282","439942.57417","443825.951875","444592.819514","445359.409516","446126.129062","446892.578081","447659.805907","448425.750665","449175.433221","449184.671935","Mapping"
"Blocked","Female","tile","16","F_gnash.wav","None","732.838182244","314","443076.404736","449942.530267","450709.341947","436892.693403","437659.948127","438426.001095","439193.079282","439942.57417","443825.951875","444592.819514","445359.409516","446126.129062","446892.578081","447659.805907","448425.750665","449175.433221","449952.331367","Mapping"
"Blocked","Female","tile","16","F_tile.wav","None","730.87524157","314","443076.404736","449942.530267","450709.341947","451475.98729","437659.948127","438426.001095","439193.079282","439942.57417","443825.951875","444592.819514","445359.409516","446126.129062","446892.578081","447659.805907","448425.750665","449175.433221","450719.094197","Mapping"
"Blocked","Female","tile","16","F_dime.wav","space","354.994522873","314","443076.404736","449942.530267","450709.341947","451475.98729","452242.21185","438426.001095","439193.079282","439942.57417","443825.951875","444592.819514","445359.409516","446126.129062","446892.578081","447659.805907","448425.750665","449175.433221","451486.390969","Mapping"
