"Condition","Talker","Target","Trial","current_stimulus","response_response","response_time_response","subject_nr","time_Audio1","time_Audio10","time_Audio11","time_Audio12","time_Audio13","time_Audio14","time_Audio15","time_Audio16","time_Audio2","time_Audio3","time_Audio4","time_Audio5","time_Audio6","time_Audio7","time_Audio8","time_Audio9","time_response","title"
"Mixed","Female","cave","22","M_bluff.wav","NA","NA","412","153609.539723","NA","NA","NA","NA","NA","NA","NA","NA","NA","NA","NA","NA","NA","NA","NA","NA","Mapping"
"Mixed","Female","cave","22","M_jaw.wav","None","723.982805939","412","153609.539723","NA","NA","NA","NA","NA","NA","NA","154376.44969","NA","NA","NA","NA","NA","NA","NA","153620.379457","Mapping"
"Mixed","Female","cave","22","M_cad.wav","None","732.737282183","412","153609.539723","NA","NA","NA","NA","NA","NA","NA","154376.44969","155143.744257","NA","NA","NA","NA","NA","NA","154379.529501","Mapping"
"Mixed","Female","cave","22","M_lash.wav","None","733.385094194","412","153609.539723","NA","NA","NA","NA","NA","NA","NA","154376.44969","155143.744257","155910.921341","NA","NA","NA","NA","NA","155146.728519","Mapping"
"Mixed","Female","cave","22","F_cave.wav","None","733.824981386","412","153609.539723","NA","NA","NA","NA","NA","NA","NA","154376.44969","155143.744257","155910.921341","156678.506763","NA","NA","NA","NA","155913.895988","Mapping"
"Mixed","Female","cave","22","F_knife.wav","space","426.636791996","412","153609.539723","NA","NA","NA","NA","NA","NA","NA","154376.44969","155143.744257","155910.921341","156678.506763","157445.791716","NA","NA","NA","156681.869316","Mapping"
"Mixed","Female","cave","22","M_cad.wav","None","733.660624628","412","153609.539723","NA","NA","NA","NA","NA","NA","NA","154376.44969","155143.744257","155910.921341","156678.506763","157445.791716","158213.01387","NA","NA","157449.336654","Mapping"
"Mixed","Female","cave","22","F_romp.wav","None","734.554220603","412","153609.539723","NA","NA","NA","NA","NA","NA","NA","154376.44969","155143.744257","155910.921341","156678.506763","157445.791716","158213.01387","158980.127856","NA","158216.463259","Mapping"
"Mixed","Female","cave","22","M_jaw.wav","None","735.559891662","412","153609.539723","NA","NA","NA","NA","NA","NA","NA","154376.44969","155143.744257","155910.921341","156678.506763","157445.791716","158213.01387","158980.127856","159747.438048","158983.42731","Mapping"
"Mixed","Female","cave","22","F_cave.wav","None","735.975741303","412","153609.539723","160514.295132","NA","NA","NA","NA","NA","NA","154376.44969","155143.744257","155910.921341","156678.506763","157445.791716","158213.01387","158980.127856","159747.438048","159750.625127","Mapping"
"Mixed","Female","cave","22","F_park.wav","space","511.466813457","412","153609.539723","160514.295132","161281.720704","NA","NA","NA","NA","NA","154376.44969","155143.744257","155910.921341","156678.506763","157445.791716","158213.01387","158980.127856","159747.438048","160517.03992","Mapping"
"Mixed","Female","cave","22","F_cave.wav","None","737.129543773","412","153609.539723","160514.295132","161281.720704","162048.703985","NA","NA","NA","NA","154376.44969","155143.744257","155910.921341","156678.506763","157445.791716","158213.01387","158980.127856","159747.438048","161284.820046","Mapping"
"Mixed","Female","cave","22","M_depth.wav","space","622.68646079","412","153609.539723","160514.295132","161281.720704","162048.703985","162816.38075","NA","NA","NA","154376.44969","155143.744257","155910.921341","156678.506763","157445.791716","158213.01387","158980.127856","159747.438048","162051.77959","Mapping"
"Mixed","Female","cave","22","F_cave.wav","None","737.229600081","412","153609.539723","160514.295132","161281.720704","162048.703985","162816.38075","163583.484219","NA","NA","154376.44969","155143.744257","155910.921341","156678.506763","157445.791716","158213.01387","158980.127856","159747.438048","162819.922383","Mapping"
"Mixed","Female","cave","22","F_gnash.wav","space","554.470593962","412","153609.539723","160514.295132","161281.720704","162048.703985","162816.38075","163583.484219","164350.386975","NA","154376.44969","155143.744257","155910.921341","156678.506763","157445.791716","158213.01387","158980.127856","159747.438048","163587.042378","Mapping"
"Mixed","Female","cave","22","M_cling.wav","None","739.105730973","412","153609.539723","160514.295132","161281.720704","162048.703985","162816.38075","163583.484219","164350.386975","165117.638575","154376.44969","155143.744257","155910.921341","156678.506763","157445.791716","158213.01387","158980.127856","159747.438048","164353.749528","Mapping"
"Mixed","Female","done","48","M_reek.wav","None","740.473467651","412","168286.987933","160514.295132","161281.720704","162048.703985","162816.38075","163583.484219","164350.386975","165117.638575","154376.44969","155143.744257","155910.921341","156678.506763","157445.791716","158213.01387","158980.127856","159747.438048","165120.365936","Mapping"
"Mixed","Female","done","48","F_done.wav","None","731.654991428","412","168286.987933","160514.295132","161281.720704","162048.703985","162816.38075","163583.484219","164350.386975","165117.638575","169053.78973","155143.744257","155910.921341","156678.506763","157445.791716","158213.01387","158980.127856","159747.438048","168290.125133","Mapping"
"Mixed","Female","done","48","F_lash.wav","space","389.023432406","412","168286.987933","160514.295132","161281.720704","162048.703985","162816.38075","163583.484219","164350.386975","165117.638575","169053.78973","169820.966814","155910.921341","156678.506763","157445.791716","158213.01387","158980.127856","159747.438048","169056.502969","Mapping"
"Mixed","Female","done","48","F_done.wav","None","733.757075303","412","168286.987933","160514.295132","161281.720704","162048.703985","162816.38075","163583.484219","164350.386975","165117.638575","169053.78973","169820.966814","170588.203992","156678.506763","157445.791716","158213.01387","158980.127856","159747.438048","169823.576091","Mapping"
"Mixed","Female","done","48","M_greet.wav","space","344.347840196","412","168286.987933","160514.295132","161281.720704","162048.703985","162816.38075","163583.484219","164350.386975","165117.638575","169053.78973","169820.966814","170588.203992","171355.471818","157445.791716","158213.01387","158980.127856","159747.438048","170591.160611","Mapping"
"Mixed","Female","done","48","M_lash.wav","None","734.226108026","412","168286.987933","160514.295132","161281.720704","162048.703985","162816.38075","163583.484219","164350.386975","165117.638575","169053.78973","169820.966814","170588.203992","171355.471818","172122.641991","158213.01387","158980.127856","159747.438048","171358.320869","Mapping"
"Mixed","Female","done","48","F_done.wav","None","734.757037444","412","168286.987933","160514.295132","161281.720704","162048.703985","162816.38075","163583.484219","164350.386975","165117.638575","169053.78973","169820.966814","170588.203992","171355.471818","172122.641991","172889.756878","158980.127856","159747.438048","172125.388883","Mapping"
"Mixed","Female","done","48","F_bluff.wav","space","545.068005237","412","168286.987933","160514.295132","161281.720704","162048.703985","162816.38075","163583.484219","164350.386975","165117.638575","169053.78973","169820.966814","170588.203992","171355.471818","172122.641991","172889.756878","173657.049342","159747.438048","172892.416633","Mapping"
"Mixed","Female","done","48","F_depth.wav","None","735.676173318","412","168286.987933","160514.295132","161281.720704","162048.703985","162816.38075","163583.484219","164350.386975","165117.638575","169053.78973","169820.966814","170588.203992","171355.471818","172122.641991","172889.756878","173657.049342","174424.329488","173660.073567","Mapping"
"Mixed","Female","done","48","M_gnash.wav","None","736.50697119","412","168286.987933","175191.583792","161281.720704","162048.703985","162816.38075","163583.484219","164350.386975","165117.638575","169053.78973","169820.966814","170588.203992","171355.471818","172122.641991","172889.756878","173657.049342","174424.329488","174427.134369","Mapping"
"Mixed","Female","done","48","F_gnash.wav","None","737.008454607","412","168286.987933","175191.583792","175958.684257","162048.703985","162816.38075","163583.484219","164350.386975","165117.638575","169053.78973","169820.966814","170588.203992","171355.471818","172122.641991","172889.756878","173657.049342","174424.329488","175194.07889","Mapping"
"Mixed","Female","done","48","F_done.wav","None","737.347384083","412","168286.987933","175191.583792","175958.684257","176726.009772","162816.38075","163583.484219","164350.386975","165117.638575","169053.78973","169820.966814","170588.203992","171355.471818","172122.641991","172889.756878","173657.049342","174424.329488","175961.804932","Mapping"
"Mixed","Female","done","48","M_jaw.wav","space","600.747988507","412","168286.987933","175191.583792","175958.684257","176726.009772","177493.626744","163583.484219","164350.386975","165117.638575","169053.78973","169820.966814","170588.203992","171355.471818","172122.641991","172889.756878","173657.049342","174424.329488","176728.743143","Mapping"
"Mixed","Female","done","48","M_bluff.wav","None","737.868698481","412","168286.987933","175191.583792","175958.684257","176726.009772","177493.626744","178260.424936","164350.386975","165117.638575","169053.78973","169820.966814","170588.203992","171355.471818","172122.641991","172889.756878","173657.049342","174424.329488","177496.846874","Mapping"
"Mixed","Female","done","48","M_cad.wav","None","739.832566435","412","168286.987933","175191.583792","175958.684257","176726.009772","177493.626744","178260.424936","179027.622151","165117.638575","169053.78973","169820.966814","170588.203992","171355.471818","172122.641991","172889.756878","173657.049342","174424.329488","178263.047433","Mapping"
"Mixed","Female","done","48","M_bluff.wav","None","740.435908977","412","168286.987933","175191.583792","175958.684257","176726.009772","177493.626744","178260.424936","179027.622151","179795.209376","169053.78973","169820.966814","170588.203992","171355.471818","172122.641991","172889.756878","173657.049342","174424.329488","179030.402395","Mapping"
"Mixed","Male","cave","17","F_gnash.wav","None","740.081355093","412","182930.752321","175191.583792","175958.684257","176726.009772","177493.626744","178260.424936","179027.622151","179795.209376","169053.78973","169820.966814","170588.203992","171355.471818","172122.641991","172889.756878","173657.049342","174424.329488","179798.358295","Mapping"
"Mixed","Male","cave","17","F_jolt.wav","None","730.974728721","412","182930.752321","175191.583792","175958.684257","176726.009772","177493.626744","178260.424936","179027.622151","179795.209376","183697.651772","169820.966814","170588.203992","171355.471818","172122.641991","172889.756878","173657.049342","174424.329488","182933.809297","Mapping"
"Mixed","Male","cave","17","M_cave.wav","None","732.532362056","412","182930.752321","175191.583792","175958.684257","176726.009772","177493.626744","178260.424936","179027.622151","179795.209376","183697.651772","184464.879334","170588.203992","171355.471818","172122.641991","172889.756878","173657.049342","174424.329488","183700.322344","Mapping"
"Mixed","Male","cave","17","F_lash.wav","space","628.849688984","412","182930.752321","175191.583792","175958.684257","176726.009772","177493.626744","178260.424936","179027.622151","179795.209376","183697.651772","184464.879334","185232.099686","171355.471818","172122.641991","172889.756878","173657.049342","174424.329488","184467.633737","Mapping"
"Mixed","Male","cave","17","F_dime.wav","None","733.556361749","412","182930.752321","175191.583792","175958.684257","176726.009772","177493.626744","178260.424936","179027.622151","179795.209376","183697.651772","184464.879334","185232.099686","185999.38524","172122.641991","172889.756878","173657.049342","174424.329488","185235.127516","Mapping"
"Mixed","Male","cave","17","M_cave.wav","None","734.500737052","412","182930.752321","175191.583792","175958.684257","176726.009772","177493.626744","178260.424936","179027.622151","179795.209376","183697.651772","184464.879334","185232.099686","185999.38524","186766.556314","172889.756878","173657.049342","174424.329488","186002.339755","Mapping"
"Mixed","Male","cave","17","M_dime.wav","space","435.111831704","412","182930.752321","175191.583792","175958.684257","176726.009772","177493.626744","178260.424936","179027.622151","179795.209376","183697.651772","184464.879334","185232.099686","185999.38524","186766.556314","187533.739408","173657.049342","174424.329488","186769.372914","Mapping"
"Mixed","Male","cave","17","F_greet.wav","None","735.897018322","412","182930.752321","175191.583792","175958.684257","176726.009772","177493.626744","178260.424936","179027.622151","179795.209376","183697.651772","184464.879334","185232.099686","185999.38524","186766.556314","187533.739408","188300.980792","174424.329488","187536.533172","Mapping"
"Mixed","Male","cave","17","F_reek.wav","None","736.443572148","412","182930.752321","175191.583792","175958.684257","176726.009772","177493.626744","178260.424936","179027.622151","179795.209376","183697.651772","184464.879334","185232.099686","185999.38524","186766.556314","187533.739408","188300.980792","189068.212862","188304.11589","Mapping"
"Mixed","Male","cave","17","M_cave.wav","None","737.477487331","412","182930.752321","189835.526059","175958.684257","176726.009772","177493.626744","178260.424936","179027.622151","179795.209376","183697.651772","184464.879334","185232.099686","185999.38524","186766.556314","187533.739408","188300.980792","189068.212862","189071.169781","Mapping"
"Mixed","Male","cave","17","M_romp.wav","space","500.204018718","412","182930.752321","189835.526059","190602.657472","176726.009772","177493.626744","178260.424936","179027.622151","179795.209376","183697.651772","184464.879334","185232.099686","185999.38524","186766.556314","187533.739408","188300.980792","189068.212862","189838.336049","Mapping"
"Mixed","Male","cave","17","M_cave.wav","None","739.41912055","412","182930.752321","189835.526059","190602.657472","191369.947833","177493.626744","178260.424936","179027.622151","179795.209376","183697.651772","184464.879334","185232.099686","185999.38524","186766.556314","187533.739408","188300.980792","189068.212862","190605.247217","Mapping"
"Mixed","Male","cave","17","F_cling.wav","space","511.843902545","412","182930.752321","189835.526059","190602.657472","191369.947833","192137.073236","178260.424936","179027.622151","179795.209376","183697.651772","184464.879334","185232.099686","185999.38524","186766.556314","187533.739408","188300.980792","189068.212862","191372.680301","Mapping"
"Mixed","Male","cave","17","F_romp.wav","None","740.851758617","412","182930.752321","189835.526059","190602.657472","191369.947833","192137.073236","192904.384329","179027.622151","179795.209376","183697.651772","184464.879334","185232.099686","185999.38524","186766.556314","187533.739408","188300.980792","189068.212862","192139.672296","Mapping"
"Mixed","Male","cave","17","M_romp.wav","None","741.582199713","412","182930.752321","189835.526059","190602.657472","191369.947833","192137.073236","192904.384329","193671.609488","179795.209376","183697.651772","184464.879334","185232.099686","185999.38524","186766.556314","187533.739408","188300.980792","189068.212862","192907.250206","Mapping"
"Mixed","Male","cave","17","M_jaw.wav","None","742.785279163","412","182930.752321","189835.526059","190602.657472","191369.947833","192137.073236","192904.384329","193671.609488","194455.647112","183697.651772","184464.879334","185232.099686","185999.38524","186766.556314","187533.739408","188300.980792","189068.212862","193674.245506","Mapping"
"Mixed","Female","ball","10","F_priest.wav","None","726.52808217","412","197591.980292","189835.526059","190602.657472","191369.947833","192137.073236","192904.384329","193671.609488","194455.647112","183697.651772","184464.879334","185232.099686","185999.38524","186766.556314","187533.739408","188300.980792","189068.212862","194458.717609","Mapping"
"Mixed","Female","ball","10","M_jolt.wav","None","729.329057854","412","197591.980292","189835.526059","190602.657472","191369.947833","192137.073236","192904.384329","193671.609488","194455.647112","198358.304343","184464.879334","185232.099686","185999.38524","186766.556314","187533.739408","188300.980792","189068.212862","197595.719633","Mapping"
"Mixed","Female","ball","10","M_knife.wav","None","731.969282413","412","197591.980292","189835.526059","190602.657472","191369.947833","192137.073236","192904.384329","193671.609488","194455.647112","198358.304343","199125.580882","185232.099686","185999.38524","186766.556314","187533.739408","188300.980792","189068.212862","198361.254952","Mapping"
"Mixed","Female","ball","10","F_ball.wav","None","732.873695287","412","197591.980292","189835.526059","190602.657472","191369.947833","192137.073236","192904.384329","193671.609488","194455.647112","198358.304343","199125.580882","199892.70869","185999.38524","186766.556314","187533.739408","188300.980792","189068.212862","199128.429332","Mapping"
"Mixed","Female","ball","10","M_jaw.wav","space","624.048488548","412","197591.980292","189835.526059","190602.657472","191369.947833","192137.073236","192904.384329","193671.609488","194455.647112","198358.304343","199125.580882","199892.70869","200660.004158","186766.556314","187533.739408","188300.980792","189068.212862","199895.441459","Mapping"
"Mixed","Female","ball","10","F_ball.wav","None","734.371535213","412","197591.980292","189835.526059","190602.657472","191369.947833","192137.073236","192904.384329","193671.609488","194455.647112","198358.304343","199125.580882","199892.70869","200660.004158","201427.665299","187533.739408","188300.980792","189068.212862","200662.626956","Mapping"
"Mixed","Female","ball","10","F_dime.wav","space","454.493309448","412","197591.980292","189835.526059","190602.657472","191369.947833","192137.073236","192904.384329","193671.609488","194455.647112","198358.304343","199125.580882","199892.70869","200660.004158","201427.665299","202194.879341","188300.980792","189068.212862","201430.992697","Mapping"
"Mixed","Female","ball","10","M_cad.wav","None","733.798540079","412","197591.980292","189835.526059","190602.657472","191369.947833","192137.073236","192904.384329","193671.609488","194455.647112","198358.304343","199125.580882","199892.70869","200660.004158","201427.665299","202194.879341","202961.642678","189068.212862","202198.558288","Mapping"
"Mixed","Female","ball","10","M_jolt.wav","None","735.998576977","412","197591.980292","189835.526059","190602.657472","191369.947833","192137.073236","192904.384329","193671.609488","194455.647112","198358.304343","199125.580882","199892.70869","200660.004158","201427.665299","202194.879341","202961.642678","203728.834786","202964.365231","Mapping"
"Mixed","Female","ball","10","M_jaw.wav","None","736.73502746","412","197591.980292","204496.105616","190602.657472","191369.947833","192137.073236","192904.384329","193671.609488","194455.647112","198358.304343","199125.580882","199892.70869","200660.004158","201427.665299","202194.879341","202961.642678","203728.834786","203731.568757","Mapping"
"Mixed","Female","ball","10","F_ball.wav","None","736.854914748","412","197591.980292","204496.105616","205263.249348","191369.947833","192137.073236","192904.384329","193671.609488","194455.647112","198358.304343","199125.580882","199892.70869","200660.004158","201427.665299","202194.879341","202961.642678","203728.834786","204499.160489","Mapping"
"Mixed","Female","ball","10","M_priest.wav","space","621.340658377","412","197591.980292","204496.105616","205263.249348","206030.573061","192137.073236","192904.384329","193671.609488","194455.647112","198358.304343","199125.580882","199892.70869","200660.004158","201427.665299","202194.879341","202961.642678","203728.834786","205266.148878","Mapping"
"Mixed","Female","ball","10","F_depth.wav","None","738.321505856","412","197591.980292","204496.105616","205263.249348","206030.573061","206797.806934","192904.384329","193671.609488","194455.647112","198358.304343","199125.580882","199892.70869","200660.004158","201427.665299","202194.879341","202961.642678","203728.834786","206033.429624","Mapping"
"Mixed","Female","ball","10","F_jolt.wav","None","738.877073764","412","197591.980292","204496.105616","205263.249348","206030.573061","206797.806934","207564.972901","193671.609488","194455.647112","198358.304343","199125.580882","199892.70869","200660.004158","201427.665299","202194.879341","202961.642678","203728.834786","206800.975083","Mapping"
"Mixed","Female","ball","10","F_ball.wav","None","740.405261098","412","197591.980292","204496.105616","205263.249348","206030.573061","206797.806934","207564.972901","208332.195356","194455.647112","198358.304343","199125.580882","199892.70869","200660.004158","201427.665299","202194.879341","202961.642678","203728.834786","207567.623041","Mapping"
"Mixed","Female","ball","10","M_jolt.wav","space","447.57379979","412","197591.980292","204496.105616","205263.249348","206030.573061","206797.806934","207564.972901","208332.195356","209099.362224","198358.304343","199125.580882","199892.70869","200660.004158","201427.665299","202194.879341","202961.642678","203728.834786","208334.941946","Mapping"
"Mixed","Male","tile","27","F_reek.wav","None","741.1179745","412","212235.186408","204496.105616","205263.249348","206030.573061","206797.806934","207564.972901","208332.195356","209099.362224","198358.304343","199125.580882","199892.70869","200660.004158","201427.665299","202194.879341","202961.642678","203728.834786","209102.079969","Mapping"
"Mixed","Male","tile","27","F_priest.wav","None","731.758352899","412","212235.186408","204496.105616","205263.249348","206030.573061","206797.806934","207564.972901","208332.195356","209099.362224","213002.293182","199125.580882","199892.70869","200660.004158","201427.665299","202194.879341","202961.642678","203728.834786","212238.417656","Mapping"
"Mixed","Male","tile","27","M_tile.wav","None","733.262803151","412","212235.186408","204496.105616","205263.249348","206030.573061","206797.806934","207564.972901","208332.195356","209099.362224","213002.293182","213769.433609","199892.70869","200660.004158","201427.665299","202194.879341","202961.642678","203728.834786","213005.150947","Mapping"
"Mixed","Male","tile","27","F_lash.wav","space","360.33191051","412","212235.186408","204496.105616","205263.249348","206030.573061","206797.806934","207564.972901","208332.195356","209099.362224","213002.293182","213769.433609","214536.676196","200660.004158","201427.665299","202194.879341","202961.642678","203728.834786","213772.182303","Mapping"
"Mixed","Male","tile","27","M_gnash.wav","None","734.721882524","412","212235.186408","204496.105616","205263.249348","206030.573061","206797.806934","207564.972901","208332.195356","209099.362224","213002.293182","213769.433609","214536.676196","215303.915777","201427.665299","202194.879341","202961.642678","203728.834786","214539.310711","Mapping"
"Mixed","Male","tile","27","F_jaw.wav","None","735.842633362","412","212235.186408","204496.105616","205263.249348","206030.573061","206797.806934","207564.972901","208332.195356","209099.362224","213002.293182","213769.433609","214536.676196","215303.915777","216071.198927","202194.879341","202961.642678","203728.834786","215306.908452","Mapping"
"Mixed","Male","tile","27","M_tile.wav","None","736.92852975","412","212235.186408","204496.105616","205263.249348","206030.573061","206797.806934","207564.972901","208332.195356","209099.362224","213002.293182","213769.433609","214536.676196","215303.915777","216071.198927","216838.342959","202961.642678","203728.834786","216074.127302","Mapping"
"Mixed","Male","tile","27","F_romp.wav","space","567.632054795","412","212235.186408","204496.105616","205263.249348","206030.573061","206797.806934","207564.972901","208332.195356","209099.362224","213002.293182","213769.433609","214536.676196","215303.915777","216071.198927","216838.342959","217605.61409","203728.834786","216840.838358","Mapping"
"Mixed","Male","tile","27","F_romp.wav","None","738.475045717","412","212235.186408","204496.105616","205263.249348","206030.573061","206797.806934","207564.972901","208332.195356","209099.362224","213002.293182","213769.433609","214536.676196","215303.915777","216071.198927","216838.342959","217605.61409","218372.842254","217608.286465","Mapping"
"Mixed","Male","tile","27","M_tile.wav","None","739.350913998","412","212235.186408","219140.059601","205263.249348","206030.573061","206797.806934","207564.972901","208332.195356","209099.362224","213002.293182","213769.433609","214536.676196","215303.915777","216071.198927","216838.342959","217605.61409","218372.842254","218375.708131","Mapping"
"Mixed","Male","tile","27","M_cad.wav","space","615.376941859","412","212235.186408","219140.059601","219907.230075","206030.573061","206797.806934","207564.972901","208332.195356","209099.362224","213002.293182","213769.433609","214536.676196","215303.915777","216071.198927","216838.342959","217605.61409","218372.842254","219143.136408","Mapping"
"Mixed","Male","tile","27","M_dime.wav","None","740.998688151","412","212235.186408","219140.059601","219907.230075","220674.490689","206797.806934","207564.972901","208332.195356","209099.362224","213002.293182","213769.433609","214536.676196","215303.915777","216071.198927","216838.342959","217605.61409","218372.842254","219910.001004","Mapping"
"Mixed","Male","tile","27","F_park.wav","None","742.081579844","412","212235.186408","219140.059601","219907.230075","220674.490689","221458.581496","207564.972901","208332.195356","209099.362224","213002.293182","213769.433609","214536.676196","215303.915777","216071.198927","216838.342959","217605.61409","218372.842254","220677.341543","Mapping"
"Mixed","Male","tile","27","M_jolt.wav","None","726.08248606","412","212235.186408","219140.059601","219907.230075","220674.490689","221458.581496","222225.780514","208332.195356","209099.362224","213002.293182","213769.433609","214536.676196","215303.915777","216071.198927","216838.342959","217605.61409","218372.842254","221461.468406","Mapping"
"Mixed","Male","tile","27","M_tile.wav","None","727.509114738","412","212235.186408","219140.059601","219907.230075","220674.490689","221458.581496","222225.780514","222993.188359","209099.362224","213002.293182","213769.433609","214536.676196","215303.915777","216071.198927","216838.342959","217605.61409","218372.842254","222228.500964","Mapping"
"Mixed","Male","tile","27","F_park.wav","space","711.497701709","412","212235.186408","219140.059601","219907.230075","220674.490689","221458.581496","222225.780514","222993.188359","223760.26088","213002.293182","213769.433609","214536.676196","215303.915777","216071.198927","216838.342959","217605.61409","218372.842254","222995.978217","Mapping"
"Mixed","Female","ball","11","M_reek.wav","None","729.156588422","412","226896.519843","219140.059601","219907.230075","220674.490689","221458.581496","222225.780514","222993.188359","223760.26088","213002.293182","213769.433609","214536.676196","215303.915777","216071.198927","216838.342959","217605.61409","218372.842254","223763.111132","Mapping"
"Mixed","Female","ball","11","F_ball.wav","None","729.302616547","412","226896.519843","219140.059601","219907.230075","220674.490689","221458.581496","222225.780514","222993.188359","223760.26088","227663.161491","213769.433609","214536.676196","215303.915777","216071.198927","216838.342959","217605.61409","218372.842254","226900.218321","Mapping"
"Mixed","Female","ball","11","M_depth.wav","space","425.955327413","412","226896.519843","219140.059601","219907.230075","220674.490689","221458.581496","222225.780514","222993.188359","223760.26088","227663.161491","228430.065148","214536.676196","215303.915777","216071.198927","216838.342959","217605.61409","218372.842254","227666.575725","Mapping"
"Mixed","Female","ball","11","F_jolt.wav","None","732.7282681","412","226896.519843","219140.059601","219907.230075","220674.490689","221458.581496","222225.780514","222993.188359","223760.26088","227663.161491","228430.065148","229197.326063","215303.915777","216071.198927","216838.342959","217605.61409","218372.842254","228432.959269","Mapping"
"Mixed","Female","ball","11","M_lash.wav","None","733.146221027","412","226896.519843","219140.059601","219907.230075","220674.490689","221458.581496","222225.780514","222993.188359","223760.26088","227663.161491","228430.065148","229197.326063","229964.598095","216071.198927","216838.342959","217605.61409","218372.842254","229200.40978","Mapping"
"Mixed","Female","ball","11","F_ball.wav","None","734.315948374","412","226896.519843","219140.059601","219907.230075","220674.490689","221458.581496","222225.780514","222993.188359","223760.26088","227663.161491","228430.065148","229197.326063","229964.598095","230731.804926","216838.342959","217605.61409","218372.842254","229967.71216","Mapping"
"Mixed","Female","ball","11","M_priest.wav","space","467.1460756","412","226896.519843","219140.059601","219907.230075","220674.490689","221458.581496","222225.780514","222993.188359","223760.26088","227663.161491","228430.065148","229197.326063","229964.598095","230731.804926","231498.998836","217605.61409","218372.842254","230734.364925","Mapping"
"Mixed","Female","ball","11","F_greet.wav","None","735.688492563","412","226896.519843","219140.059601","219907.230075","220674.490689","221458.581496","222225.780514","222993.188359","223760.26088","227663.161491","228430.065148","229197.326063","229964.598095","230731.804926","231498.998836","232266.256746","218372.842254","231501.919999","Mapping"
"Mixed","Female","ball","11","F_cad.wav","None","736.928529749","412","226896.519843","219140.059601","219907.230075","220674.490689","221458.581496","222225.780514","222993.188359","223760.26088","227663.161491","228430.065148","229197.326063","229964.598095","230731.804926","231498.998836","232266.256746","233033.455765","232268.939638","Mapping"
"Mixed","Female","ball","11","M_cad.wav","None","737.856379235","412","226896.519843","233800.654182","219907.230075","220674.490689","221458.581496","222225.780514","222993.188359","223760.26088","227663.161491","228430.065148","229197.326063","229964.598095","230731.804926","231498.998836","232266.256746","233033.455765","233036.489604","Mapping"
"Mixed","Female","ball","11","F_ball.wav","None","739.267383507","412","226896.519843","233800.654182","234567.928318","220674.490689","221458.581496","222225.780514","222993.188359","223760.26088","227663.161491","228430.065148","229197.326063","229964.598095","230731.804926","231498.998836","232266.256746","233033.455765","233803.485505","Mapping"
"Mixed","Female","ball","11","M_jolt.wav","space","476.854842635","412","226896.519843","233800.654182","234567.928318","235335.055223","221458.581496","222225.780514","222993.188359","223760.26088","227663.161491","228430.065148","229197.326063","229964.598095","230731.804926","231498.998836","232266.256746","233033.455765","234570.614214","Mapping"
"Mixed","Female","ball","11","F_romp.wav","None","740.103289359","412","226896.519843","233800.654182","234567.928318","235335.055223","236102.264458","222225.780514","222993.188359","223760.26088","227663.161491","228430.065148","229197.326063","229964.598095","230731.804926","231498.998836","232266.256746","233033.455765","235338.014546","Mapping"
"Mixed","Female","ball","11","F_ball.wav","None","741.51910114","412","226896.519843","233800.654182","234567.928318","235335.055223","236102.264458","236869.58757","222993.188359","223760.26088","227663.161491","228430.065148","229197.326063","229964.598095","230731.804926","231498.998836","232266.256746","233033.455765","236105.043198","Mapping"
"Mixed","Female","ball","11","M_reek.wav","space","503.076806588","412","226896.519843","233800.654182","234567.928318","235335.055223","236102.264458","236869.58757","237636.699752","223760.26088","227663.161491","228430.065148","229197.326063","229964.598095","230731.804926","231498.998836","232266.256746","233033.455765","236872.411682","Mapping"
"Mixed","Female","ball","11","M_bluff.wav","None","742.759138326","412","226896.519843","233800.654182","234567.928318","235335.055223","236102.264458","236869.58757","237636.699752","238420.875892","227663.161491","228430.065148","229197.326063","229964.598095","230731.804926","231498.998836","232266.256746","233033.455765","237639.486306","Mapping"
"Mixed","Male","done","40","F_lash.wav","None","726.190354571","412","241557.157391","233800.654182","234567.928318","235335.055223","236102.264458","236869.58757","237636.699752","238420.875892","227663.161491","228430.065148","229197.326063","229964.598095","230731.804926","231498.998836","232266.256746","233033.455765","238424.04945","Mapping"
"Mixed","Male","done","40","F_jaw.wav","None","728.625058066","412","241557.157391","233800.654182","234567.928318","235335.055223","236102.264458","236869.58757","237636.699752","238420.875892","242323.506682","228430.065148","229197.326063","229964.598095","230731.804926","231498.998836","232266.256746","233033.455765","241560.901841","Mapping"
"Mixed","Male","done","40","F_dime.wav","None","731.254465726","412","241557.157391","233800.654182","234567.928318","235335.055223","236102.264458","236869.58757","237636.699752","238420.875892","242323.506682","243090.720423","229197.326063","229964.598095","230731.804926","231498.998836","232266.256746","233033.455765","242326.385479","Mapping"
"Mixed","Male","done","40","M_greet.wav","None","732.033883332","412","241557.157391","233800.654182","234567.928318","235335.055223","236102.264458","236869.58757","237636.699752","238420.875892","242323.506682","243090.720423","243857.972925","229964.598095","230731.804926","231498.998836","232266.256746","233033.455765","243093.792423","Mapping"
"Mixed","Male","done","40","M_park.wav","None","732.672080324","412","241557.157391","233800.654182","234567.928318","235335.055223","236102.264458","236869.58757","237636.699752","238420.875892","242323.506682","243090.720423","243857.972925","244625.224526","230731.804926","231498.998836","232266.256746","233033.455765","243861.069262","Mapping"
"Mixed","Male","done","40","F_cad.wav","None","734.093300553","412","241557.157391","233800.654182","234567.928318","235335.055223","236102.264458","236869.58757","237636.699752","238420.875892","242323.506682","243090.720423","243857.972925","244625.224526","245392.412727","231498.998836","232266.256746","233033.455765","244628.06937","Mapping"
"Mixed","Male","done","40","M_done.wav","None","735.367891721","412","241557.157391","233800.654182","234567.928318","235335.055223","236102.264458","236869.58757","237636.699752","238420.875892","242323.506682","243090.720423","243857.972925","244625.224526","245392.412727","246159.651708","232266.256746","233033.455765","245395.181853","Mapping"
"Mixed","Male","done","40","F_gnash.wav","None","736.364849167","412","241557.157391","233800.654182","234567.928318","235335.055223","236102.264458","236869.58757","237636.699752","238420.875892","242323.506682","243090.720423","243857.972925","244625.224526","245392.412727","246159.651708","246926.830595","233033.455765","246162.54012","Mapping"
"Mixed","Male","done","40","M_jaw.wav","space","20.6016839511","412","241557.157391","233800.654182","234567.928318","235335.055223","236102.264458","236869.58757","237636.699752","238420.875892","242323.506682","243090.720423","243857.972925","244625.224526","245392.412727","246159.651708","246926.830595","247694.071979","246929.876753","Mapping"
"Mixed","Male","done","40","M_done.wav","None","737.686914498","412","241557.157391","248461.233739","234567.928318","235335.055223","236102.264458","236869.58757","237636.699752","238420.875892","242323.506682","243090.720423","243857.972925","244625.224526","245392.412727","246159.651708","246926.830595","247694.071979","247696.925237","Mapping"
"Mixed","Male","done","40","F_cad.wav","space","614.685261315","412","241557.157391","248461.233739","249228.5238","235335.055223","236102.264458","236869.58757","237636.699752","238420.875892","242323.506682","243090.720423","243857.972925","244625.224526","245392.412727","246159.651708","246926.830595","247694.071979","248463.81417","Mapping"
"Mixed","Male","done","40","M_done.wav","None","739.42362759","412","241557.157391","248461.233739","249228.5238","249995.674743","236102.264458","236869.58757","237636.699752","238420.875892","242323.506682","243090.720423","243857.972925","244625.224526","245392.412727","246159.651708","246926.830595","247694.071979","249231.109039","Mapping"
"Mixed","Male","done","40","F_romp.wav","space","693.788937077","412","241557.157391","248461.233739","249228.5238","249995.674743","250763.294419","236869.58757","237636.699752","238420.875892","242323.506682","243090.720423","243857.972925","244625.224526","245392.412727","246159.651708","246926.830595","247694.071979","249998.682141","Mapping"
"Mixed","Male","done","40","M_done.wav","None","740.456340895","412","241557.157391","248461.233739","249228.5238","249995.674743","250763.294419","251530.669812","237636.699752","238420.875892","242323.506682","243090.720423","243857.972925","244625.224526","245392.412727","246159.651708","246926.830595","247694.071979","250766.283488","Mapping"
"Mixed","Male","done","40","F_reek.wav","space","604.767367581","412","241557.157391","248461.233739","249228.5238","249995.674743","250763.294419","251530.669812","252297.809638","238420.875892","242323.506682","243090.720423","243857.972925","244625.224526","245392.412727","246159.651708","246926.830595","247694.071979","251533.692534","Mapping"
"Mixed","Male","done","40","M_greet.wav","None","742.065654967","412","241557.157391","248461.233739","249228.5238","249995.674743","250763.294419","251530.669812","252297.809638","253081.446436","242323.506682","243090.720423","243857.972925","244625.224526","245392.412727","246159.651708","246926.830595","247694.071979","252300.820041","Mapping"
"Mixed","Male","ball","1","F_priest.wav","None","725.837603504","412","256217.78893","248461.233739","249228.5238","249995.674743","250763.294419","251530.669812","252297.809638","253081.446436","242323.506682","243090.720423","243857.972925","244625.224526","245392.412727","246159.651708","246926.830595","247694.071979","253085.18097","Mapping"
"Mixed","Male","ball","1","M_ball.wav","None","729.213978077","412","256217.78893","248461.233739","249228.5238","249995.674743","250763.294419","251530.669812","252297.809638","253081.446436","256984.119892","243090.720423","243857.972925","244625.224526","245392.412727","246159.651708","246926.830595","247694.071979","256221.570337","Mapping"
"Mixed","Male","ball","1","F_romp.wav","space","565.472280798","412","256217.78893","248461.233739","249228.5238","249995.674743","250763.294419","251530.669812","252297.809638","253081.446436","256984.119892","257751.308995","243857.972925","244625.224526","245392.412727","246159.651708","246926.830595","247694.071979","256986.990877","Mapping"
"Mixed","Male","ball","1","M_gnash.wav","None","732.74329157","412","256217.78893","248461.233739","249228.5238","249995.674743","250763.294419","251530.669812","252297.809638","253081.446436","256984.119892","257751.308995","258518.535957","244625.224526","245392.412727","246159.651708","246926.830595","247694.071979","257754.191999","Mapping"
"Mixed","Male","ball","1","M_knife.wav","None","733.931948489","412","256217.78893","248461.233739","249228.5238","249995.674743","250763.294419","251530.669812","252297.809638","253081.446436","256984.119892","257751.308995","258518.535957","259285.767125","245392.412727","246159.651708","246926.830595","247694.071979","258521.336031","Mapping"
"Mixed","Male","ball","1","F_romp.wav","None","735.462539579","412","256217.78893","248461.233739","249228.5238","249995.674743","250763.294419","251530.669812","252297.809638","253081.446436","256984.119892","257751.308995","258518.535957","259285.767125","260053.048472","246159.651708","246926.830595","247694.071979","259288.458129","Mapping"
"Mixed","Male","ball","1","M_ball.wav","None","735.952004221","412","256217.78893","248461.233739","249228.5238","249995.674743","250763.294419","251530.669812","252297.809638","253081.446436","256984.119892","257751.308995","258518.535957","259285.767125","260053.048472","260820.256805","246926.830595","247694.071979","260055.982556","Mapping"
"Mixed","Male","ball","1","F_dime.wav","space","510.753198647","412","256217.78893","248461.233739","249228.5238","249995.674743","250763.294419","251530.669812","252297.809638","253081.446436","256984.119892","257751.308995","258518.535957","259285.767125","260053.048472","260820.256805","261587.819091","247694.071979","260822.689405","Mapping"
"Mixed","Male","ball","1","M_ball.wav","None","736.886464034","412","256217.78893","248461.233739","249228.5238","249995.674743","250763.294419","251530.669812","252297.809638","253081.446436","256984.119892","257751.308995","258518.535957","259285.767125","260053.048472","260820.256805","261587.819091","262355.068288","261591.066865","Mapping"
"Mixed","Male","ball","1","F_reek.wav","space","466.666225978","412","256217.78893","263121.949409","249228.5238","249995.674743","250763.294419","251530.669812","252297.809638","253081.446436","256984.119892","257751.308995","258518.535957","259285.767125","260053.048472","260820.256805","261587.819091","262355.068288","262358.798916","Mapping"
"Mixed","Male","ball","1","M_depth.wav","None","739.187458647","412","256217.78893","263121.949409","263889.187188","249995.674743","250763.294419","251530.669812","252297.809638","253081.446436","256984.119892","257751.308995","258518.535957","259285.767125","260053.048472","260820.256805","261587.819091","262355.068288","263125.005484","Mapping"
"Mixed","Male","ball","1","M_cling.wav","None","740.424791609","412","256217.78893","263121.949409","263889.187188","264656.333023","250763.294419","251530.669812","252297.809638","253081.446436","256984.119892","257751.308995","258518.535957","259285.767125","260053.048472","260820.256805","261587.819091","262355.068288","263891.829817","Mapping"
"Mixed","Male","ball","1","F_park.wav","None","741.713805306","412","256217.78893","263121.949409","263889.187188","264656.333023","265423.52483","251530.669812","252297.809638","253081.446436","256984.119892","257751.308995","258518.535957","259285.767125","260053.048472","260820.256805","261587.819091","262355.068288","264659.167652","Mapping"
"Mixed","Male","ball","1","M_ball.wav","None","743.068321332","412","256217.78893","263121.949409","263889.187188","264656.333023","265423.52483","266207.646585","252297.809638","253081.446436","256984.119892","257751.308995","258518.535957","259285.767125","260053.048472","260820.256805","261587.819091","262355.068288","265426.324304","Mapping"
"Mixed","Male","ball","1","F_park.wav","space","420.975047218","412","256217.78893","263121.949409","263889.187188","264656.333023","265423.52483","266207.646585","266974.845303","253081.446436","256984.119892","257751.308995","258518.535957","259285.767125","260053.048472","260820.256805","261587.819091","262355.068288","266210.485721","Mapping"
"Mixed","Male","ball","1","F_park.wav","None","727.807480846","412","256217.78893","263121.949409","263889.187188","264656.333023","265423.52483","266207.646585","266974.845303","267742.18434","256984.119892","257751.308995","258518.535957","259285.767125","260053.048472","260820.256805","261587.819091","262355.068288","266977.920908","Mapping"
"Mixed","Female","done","43","F_cling.wav","None","729.270766792","412","270878.365182","263121.949409","263889.187188","264656.333023","265423.52483","266207.646585","266974.845303","267742.18434","256984.119892","257751.308995","258518.535957","259285.767125","260053.048472","260820.256805","261587.819091","262355.068288","267745.288189","Mapping"
"Mixed","Female","done","43","M_depth.wav","None","729.636137574","412","270878.365182","263121.949409","263889.187188","264656.333023","265423.52483","266207.646585","266974.845303","267742.18434","271644.796201","257751.308995","258518.535957","259285.767125","260053.048472","260820.256805","261587.819091","262355.068288","270881.879773","Mapping"
"Mixed","Female","done","43","F_done.wav","None","732.737282182","412","270878.365182","263121.949409","263889.187188","264656.333023","265423.52483","266207.646585","266974.845303","267742.18434","271644.796201","272411.928515","258518.535957","259285.767125","260053.048472","260820.256805","261587.819091","262355.068288","271647.353195","Mapping"
"Mixed","Female","done","43","F_park.wav","space","598.774806002","412","270878.365182","263121.949409","263889.187188","264656.333023","265423.52483","266207.646585","266974.845303","267742.18434","271644.796201","272411.928515","273179.180716","259285.767125","260053.048472","260820.256805","261587.819091","262355.068288","272414.670298","Mapping"
"Mixed","Female","done","43","M_greet.wav","None","733.895291223","412","270878.365182","263121.949409","263889.187188","264656.333023","265423.52483","266207.646585","266974.845303","267742.18434","271644.796201","272411.928515","273179.180716","273946.802795","260053.048472","260820.256805","261587.819091","262355.068288","273182.141842","Mapping"
"Mixed","Female","done","43","F_done.wav","None","734.617619645","412","270878.365182","263121.949409","263889.187188","264656.333023","265423.52483","266207.646585","266974.845303","267742.18434","271644.796201","272411.928515","273179.180716","273946.802795","274713.982584","260820.256805","261587.819091","262355.068288","273949.954719","Mapping"
"Mixed","Female","done","43","M_reek.wav","space","477.56575322","412","270878.365182","263121.949409","263889.187188","264656.333023","265423.52483","266207.646585","266974.845303","267742.18434","271644.796201","272411.928515","273179.180716","273946.802795","274713.982584","275480.889846","261587.819091","262355.068288","274716.895935","Mapping"
"Mixed","Female","done","43","M_romp.wav","None","737.207365347","412","270878.365182","263121.949409","263889.187188","264656.333023","265423.52483","266207.646585","266974.845303","267742.18434","271644.796201","272411.928515","273179.180716","273946.802795","274713.982584","275480.889846","276248.00894","262355.068288","275483.381038","Mapping"
"Mixed","Female","done","43","F_knife.wav","None","738.203120916","412","270878.365182","263121.949409","263889.187188","264656.333023","265423.52483","266207.646585","266974.845303","267742.18434","271644.796201","272411.928515","273179.180716","273946.802795","274713.982584","275480.889846","276248.00894","277015.295995","276251.072525","Mapping"
"Mixed","Female","done","43","M_gnash.wav","None","739.454876409","412","270878.365182","277782.54369","263889.187188","264656.333023","265423.52483","266207.646585","266974.845303","267742.18434","271644.796201","272411.928515","273179.180716","273946.802795","274713.982584","275480.889846","276248.00894","277015.295995","277018.355675","Mapping"
"Mixed","Female","done","43","F_done.wav","None","740.954819619","412","270878.365182","277782.54369","278549.660079","264656.333023","265423.52483","266207.646585","266974.845303","267742.18434","271644.796201","272411.928515","273179.180716","273946.802795","274713.982584","275480.889846","276248.00894","277015.295995","277785.37982","Mapping"
"Mixed","Female","done","43","M_depth.wav","space","608.088455786","412","270878.365182","277782.54369","278549.660079","279316.994609","265423.52483","266207.646585","266974.845303","267742.18434","271644.796201","272411.928515","273179.180716","273946.802795","274713.982584","275480.889846","276248.00894","277015.295995","278552.410275","Mapping"
"Mixed","Female","done","43","F_gnash.wav","None","741.750162103","412","270878.365182","277782.54369","278549.660079","279316.994609","280101.168946","266207.646585","266974.845303","267742.18434","271644.796201","272411.928515","273179.180716","273946.802795","274713.982584","275480.889846","276248.00894","277015.295995","279320.633594","Mapping"
"Mixed","Female","done","43","M_cling.wav","None","727.157565549","412","270878.365182","277782.54369","278549.660079","279316.994609","280101.168946","280868.329204","266974.845303","267742.18434","271644.796201","272411.928515","273179.180716","273946.802795","274713.982584","275480.889846","276248.00894","277015.295995","280104.106936","Mapping"
"Mixed","Female","done","43","F_done.wav","None","728.194785895","412","270878.365182","277782.54369","278549.660079","279316.994609","280101.168946","280868.329204","281635.442588","267742.18434","271644.796201","272411.928515","273179.180716","273946.802795","274713.982584","275480.889846","276248.00894","277015.295995","280871.753053","Mapping"
"Mixed","Female","done","43","M_greet.wav","space","391.585534922","412","270878.365182","277782.54369","278549.660079","279316.994609","280101.168946","280868.329204","281635.442588","282402.590527","271644.796201","272411.928515","273179.180716","273946.802795","274713.982584","275480.889846","276248.00894","277015.295995","281638.863432","Mapping"
"Mixed","Female","cave","23","M_lash.wav","None","730.709414247","412","285538.623838","277782.54369","278549.660079","279316.994609","280101.168946","280868.329204","281635.442588","282402.590527","271644.796201","272411.928515","273179.180716","273946.802795","274713.982584","275480.889846","276248.00894","277015.295995","282405.790225","Mapping"
"Mixed","Female","cave","23","F_cave.wav","None","730.242785279","412","285538.623838","277782.54369","278549.660079","279316.994609","280101.168946","280868.329204","281635.442588","282402.590527","286305.412716","272411.928515","273179.180716","273946.802795","274713.982584","275480.889846","276248.00894","277015.295995","285542.758597","Mapping"
"Mixed","Female","cave","23","M_reek.wav","space","610.147272068","412","285538.623838","277782.54369","278549.660079","279316.994609","280101.168946","280868.329204","281635.442588","282402.590527","286305.412716","287072.636373","273179.180716","273946.802795","274713.982584","275480.889846","276248.00894","277015.295995","286308.303832","Mapping"
"Mixed","Female","cave","23","M_romp.wav","None","733.446089481","412","285538.623838","277782.54369","278549.660079","279316.994609","280101.168946","280868.329204","281635.442588","282402.590527","286305.412716","287072.636373","287839.819766","273946.802795","274713.982584","275480.889846","276248.00894","277015.295995","287075.365236","Mapping"
"Mixed","Female","cave","23","F_cave.wav","None","735.008229857","412","285538.623838","277782.54369","278549.660079","279316.994609","280101.168946","280868.329204","281635.442588","282402.590527","286305.412716","287072.636373","287839.819766","288607.085489","274713.982584","275480.889846","276248.00894","277015.295995","287842.502658","Mapping"
"Mixed","Female","cave","23","M_lash.wav","space","460.451617517","412","285538.623838","277782.54369","278549.660079","279316.994609","280101.168946","280868.329204","281635.442588","282402.590527","286305.412716","287072.636373","287839.819766","288607.085489","289374.673014","275480.889846","276248.00894","277015.295995","288610.022577","Mapping"
"Mixed","Female","cave","23","M_reek.wav","None","735.833318811","412","285538.623838","277782.54369","278549.660079","279316.994609","280101.168946","280868.329204","281635.442588","282402.590527","286305.412716","287072.636373","287839.819766","288607.085489","289374.673014","290141.640671","276248.00894","277015.295995","289377.920788","Mapping"
"Mixed","Female","cave","23","F_depth.wav","None","737.720567069","412","285538.623838","277782.54369","278549.660079","279316.994609","280101.168946","280868.329204","281635.442588","282402.590527","286305.412716","287072.636373","287839.819766","288607.085489","289374.673014","290141.640671","290908.66061","277015.295995","290144.857196","Mapping"
"Mixed","Female","cave","23","M_priest.wav","None","739.923608661","412","285538.623838","277782.54369","278549.660079","279316.994609","280101.168946","280868.329204","281635.442588","282402.590527","286305.412716","287072.636373","287839.819766","288607.085489","289374.673014","290141.640671","290908.66061","291676.008661","290911.267482","Mapping"
"Mixed","Female","cave","23","M_cling.wav","None","741.492058894","412","285538.623838","292443.172825","278549.660079","279316.994609","280101.168946","280868.329204","281635.442588","282402.590527","286305.412716","287072.636373","287839.819766","288607.085489","289374.673014","290141.640671","290908.66061","291676.008661","291678.553336","Mapping"
"Mixed","Female","cave","23","F_cave.wav","None","742.527175954","412","285538.623838","292443.172825","293227.366091","279316.994609","280101.168946","280868.329204","281635.442588","282402.590527","286305.412716","287072.636373","287839.819766","288607.085489","289374.673014","290141.640671","290908.66061","291676.008661","292446.200655","Mapping"
"Mixed","Female","cave","23","F_lash.wav","None","726.974880157","412","285538.623838","292443.172825","293227.366091","293994.534762","280101.168946","280868.329204","281635.442588","282402.590527","286305.412716","287072.636373","287839.819766","288607.085489","289374.673014","290141.640671","290908.66061","291676.008661","293230.468137","Mapping"
"Mixed","Female","cave","23","F_cave.wav","space","42.2868605338","412","285538.623838","292443.172825","293227.366091","293994.534762","294761.818513","280868.329204","281635.442588","282402.590527","286305.412716","287072.636373","287839.819766","288607.085489","289374.673014","290141.640671","290908.66061","291676.008661","293997.194517","Mapping"
"Mixed","Female","cave","23","F_cad.wav","space","645.999881014","412","285538.623838","292443.172825","293227.366091","293994.534762","294761.818513","295529.047578","281635.442588","282402.590527","286305.412716","287072.636373","287839.819766","288607.085489","289374.673014","290141.640671","290908.66061","291676.008661","294765.457798","Mapping"
"Mixed","Female","cave","23","M_priest.wav","None","729.412287877","412","285538.623838","292443.172825","293227.366091","293994.534762","294761.818513","295529.047578","296295.950334","282402.590527","286305.412716","287072.636373","287839.819766","288607.085489","289374.673014","290141.640671","290908.66061","291676.008661","295532.218131","Mapping"
"Mixed","Female","cave","23","F_bluff.wav","None","731.324775564","412","285538.623838","292443.172825","293227.366091","293994.534762","294761.818513","295529.047578","296295.950334","297063.194422","286305.412716","287072.636373","287839.819766","288607.085489","289374.673014","290141.640671","290908.66061","291676.008661","296298.715854","Mapping"
"Mixed","Female","done","47","F_depth.wav","None","732.624606159","412","300199.388184","292443.172825","293227.366091","293994.534762","294761.818513","295529.047578","296295.950334","297063.194422","286305.412716","287072.636373","287839.819766","288607.085489","289374.673014","290141.640671","290908.66061","291676.008661","297066.226759","Mapping"
"Mixed","Female","done","47","M_depth.wav","None","729.693226758","412","300199.388184","292443.172825","293227.366091","293994.534762","294761.818513","295529.047578","296295.950334","297063.194422","300966.117268","287072.636373","287839.819766","288607.085489","289374.673014","290141.640671","290908.66061","291676.008661","300203.014549","Mapping"
"Mixed","Female","done","47","F_done.wav","None","732.306108603","412","300199.388184","292443.172825","293227.366091","293994.534762","294761.818513","295529.047578","296295.950334","297063.194422","300966.117268","301733.236061","287839.819766","288607.085489","289374.673014","290141.640671","290908.66061","291676.008661","300968.837718","Mapping"
"Mixed","Female","done","47","M_priest.wav","space","476.905621963","412","300199.388184","292443.172825","293227.366091","293994.534762","294761.818513","295529.047578","296295.950334","297063.194422","300966.117268","301733.236061","302500.368676","288607.085489","289374.673014","290141.640671","290908.66061","291676.008661","301736.559854","Mapping"
"Mixed","Female","done","47","M_depth.wav","None","734.666596156","412","300199.388184","292443.172825","293227.366091","293994.534762","294761.818513","295529.047578","296295.950334","297063.194422","300966.117268","301733.236061","302500.368676","303267.668952","289374.673014","290141.640671","290908.66061","291676.008661","302502.794365","Mapping"
"Mixed","Female","done","47","F_depth.wav","None","735.976642711","412","300199.388184","292443.172825","293227.366091","293994.534762","294761.818513","295529.047578","296295.950334","297063.194422","300966.117268","301733.236061","302500.368676","303267.668952","304034.894412","290141.640671","290908.66061","291676.008661","303270.309177","Mapping"
"Mixed","Female","done","47","M_depth.wav","None","736.549637844","412","300199.388184","292443.172825","293227.366091","293994.534762","294761.818513","295529.047578","296295.950334","297063.194422","300966.117268","301733.236061","302500.368676","303267.668952","304034.894412","304802.152322","290908.66061","291676.008661","304038.015989","Mapping"
"Mixed","Female","done","47","F_done.wav","None","737.838351072","412","300199.388184","292443.172825","293227.366091","293994.534762","294761.818513","295529.047578","296295.950334","297063.194422","300966.117268","301733.236061","302500.368676","303267.668952","304034.894412","304802.152322","305569.341726","291676.008661","304805.532904","Mapping"
"Mixed","Female","done","47","M_reek.wav","space","410.506994026","412","300199.388184","292443.172825","293227.366091","293994.534762","294761.818513","295529.047578","296295.950334","297063.194422","300966.117268","301733.236061","302500.368676","303267.668952","304034.894412","304802.152322","305569.341726","306336.794641","305571.959115","Mapping"
"Mixed","Female","done","47","F_park.wav","None","739.606312983","412","300199.388184","307104.171837","293227.366091","293994.534762","294761.818513","295529.047578","296295.950334","297063.194422","300966.117268","301733.236061","302500.368676","303267.668952","304034.894412","304802.152322","305569.341726","306336.794641","306339.82818","Mapping"
"Mixed","Female","done","47","F_done.wav","None","740.767326718","412","300199.388184","307104.171837","307887.968484","293994.534762","294761.818513","295529.047578","296295.950334","297063.194422","300966.117268","301733.236061","302500.368676","303267.668952","304034.894412","304802.152322","305569.341726","306336.794641","307107.462578","Mapping"
"Mixed","Female","done","47","M_priest.wav","space","455.870661147","412","300199.388184","307104.171837","307887.968484","308655.275672","294761.818513","295529.047578","296295.950334","297063.194422","300966.117268","301733.236061","302500.368676","303267.668952","304034.894412","304802.152322","305569.341726","306336.794641","307890.581667","Mapping"
"Mixed","Female","done","47","F_done.wav","None","726.323762982","412","300199.388184","307104.171837","307887.968484","308655.275672","309422.170615","295529.047578","296295.950334","297063.194422","300966.117268","301733.236061","302500.368676","303267.668952","304034.894412","304802.152322","305569.341726","306336.794641","308658.21246","Mapping"
"Mixed","Female","done","47","M_jolt.wav","space","629.353876627","412","300199.388184","307104.171837","307887.968484","308655.275672","309422.170615","310189.408995","296295.950334","297063.194422","300966.117268","301733.236061","302500.368676","303267.668952","304034.894412","304802.152322","305569.341726","306336.794641","309425.083666","Mapping"
"Mixed","Female","done","47","M_dime.wav","None","727.936382216","412","300199.388184","307104.171837","307887.968484","308655.275672","309422.170615","310189.408995","310956.87483","297063.194422","300966.117268","301733.236061","302500.368676","303267.668952","304034.894412","304802.152322","305569.341726","306336.794641","310192.688919","Mapping"
"Mixed","Female","done","47","F_romp.wav","None","729.684513147","412","300199.388184","307104.171837","307887.968484","308655.275672","309422.170615","310189.408995","310956.87483","311723.860815","300966.117268","301733.236061","302500.368676","303267.668952","304034.894412","304802.152322","305569.341726","306336.794641","310959.797195","Mapping"
"Mixed","Female","ball","8","F_greet.wav","None","731.971686168","412","314860.431666","307104.171837","307887.968484","308655.275672","309422.170615","310189.408995","310956.87483","311723.860815","300966.117268","301733.236061","302500.368676","303267.668952","304034.894412","304802.152322","305569.341726","306336.794641","311726.605603","Mapping"
"Mixed","Female","ball","8","M_cling.wav","None","728.674034577","412","314860.431666","307104.171837","307887.968484","308655.275672","309422.170615","310189.408995","310956.87483","311723.860815","315626.673089","301733.236061","302500.368676","303267.668952","304034.894412","304802.152322","305569.341726","306336.794641","314864.067346","Mapping"
"Mixed","Female","ball","8","F_ball.wav","None","732.515535769","412","314860.431666","307104.171837","307887.968484","308655.275672","309422.170615","310189.408995","310956.87483","311723.860815","315626.673089","316393.909365","302500.368676","303267.668952","304034.894412","304802.152322","305569.341726","306336.794641","315629.199736","Mapping"
"Mixed","Female","ball","8","F_gnash.wav","space","640.847131388","412","314860.431666","307104.171837","307887.968484","308655.275672","309422.170615","310189.408995","310956.87483","311723.860815","315626.673089","316393.909365","317161.019745","303267.668952","304034.894412","304802.152322","305569.341726","306336.794641","316396.601271","Mapping"
"Mixed","Female","ball","8","F_ball.wav","None","734.156699596","412","314860.431666","307104.171837","307887.968484","308655.275672","309422.170615","310189.408995","310956.87483","311723.860815","315626.673089","316393.909365","317161.019745","317928.287871","304034.894412","304802.152322","305569.341726","306336.794641","317163.671688","Mapping"
"Mixed","Female","ball","8","F_jolt.wav","None","735.610070052","412","314860.431666","307104.171837","307887.968484","308655.275672","309422.170615","310189.408995","310956.87483","311723.860815","315626.673089","316393.909365","317161.019745","317928.287871","318695.518439","304802.152322","305569.341726","306336.794641","317930.804903","Mapping"
"Mixed","Female","ball","8","F_ball.wav","space","77.8362958609","412","314860.431666","307104.171837","307887.968484","308655.275672","309422.170615","310189.408995","310956.87483","311723.860815","315626.673089","316393.909365","317161.019745","317928.287871","318695.518439","319462.734283","305569.341726","306336.794641","318698.579321","Mapping"
"Mixed","Female","ball","8","M_cling.wav","None","736.997036771","412","314860.431666","307104.171837","307887.968484","308655.275672","309422.170615","310189.408995","310956.87483","311723.860815","315626.673089","316393.909365","317161.019745","317928.287871","318695.518439","319462.734283","320229.890936","306336.794641","319465.986264","Mapping"
"Mixed","Female","ball","8","M_bluff.wav","space","57.5053348339","412","314860.431666","307104.171837","307887.968484","308655.275672","309422.170615","310189.408995","310956.87483","311723.860815","315626.673089","316393.909365","317161.019745","317928.287871","318695.518439","319462.734283","320229.890936","320997.500996","320232.935592","Mapping"
"Mixed","Female","ball","8","M_park.wav","None","738.671552699","412","314860.431666","321764.709329","307887.968484","308655.275672","309422.170615","310189.408995","310956.87483","311723.860815","315626.673089","316393.909365","317161.019745","317928.287871","318695.518439","319462.734283","320229.890936","320997.500996","321000.643906","Mapping"
"Mixed","Female","ball","8","M_romp.wav","None","740.570519265","412","314860.431666","321764.709329","322531.579033","308655.275672","309422.170615","310189.408995","310956.87483","311723.860815","315626.673089","316393.909365","317161.019745","317928.287871","318695.518439","319462.734283","320229.890936","320997.500996","321767.743469","Mapping"
"Mixed","Female","ball","8","F_ball.wav","None","743.13352319","412","314860.431666","321764.709329","322531.579033","323315.581501","309422.170615","310189.408995","310956.87483","311723.860815","315626.673089","316393.909365","317161.019745","317928.287871","318695.518439","319462.734283","320229.890936","320997.500996","322534.23398","Mapping"
"Mixed","Female","ball","8","F_romp.wav","space","448.490832378","412","314860.431666","321764.709329","322531.579033","323315.581501","324082.955393","310189.408995","310956.87483","311723.860815","315626.673089","316393.909365","317161.019745","317928.287871","318695.518439","319462.734283","320229.890936","320997.500996","323318.961181","Mapping"
"Mixed","Female","ball","8","M_greet.wav","None","727.973640421","412","314860.431666","321764.709329","322531.579033","323315.581501","324082.955393","324850.279707","310956.87483","311723.860815","315626.673089","316393.909365","317161.019745","317928.287871","318695.518439","319462.734283","320229.890936","320997.500996","324086.023185","Mapping"
"Mixed","Female","ball","8","M_lash.wav","None","729.771048332","412","314860.431666","321764.709329","322531.579033","323315.581501","324082.955393","324850.279707","325617.2068","311723.860815","315626.673089","316393.909365","317161.019745","317928.287871","318695.518439","319462.734283","320229.890936","320997.500996","324853.083988","Mapping"
"Mixed","Female","ball","8","M_romp.wav","None","731.780888103","412","314860.431666","321764.709329","322531.579033","323315.581501","324082.955393","324850.279707","325617.2068","326384.42595","315626.673089","316393.909365","317161.019745","317928.287871","318695.518439","319462.734283","320229.890936","320997.500996","325619.794743","Mapping"
"Mixed","Female","cave","24","F_greet.wav","None","733.336418152","412","329520.3562","321764.709329","322531.579033","323315.581501","324082.955393","324850.279707","325617.2068","326384.42595","315626.673089","316393.909365","317161.019745","317928.287871","318695.518439","319462.734283","320229.890936","320997.500996","326387.12086","Mapping"
"Mixed","Female","cave","24","M_bluff.wav","None","731.150803786","412","329520.3562","321764.709329","322531.579033","323315.581501","324082.955393","324850.279707","325617.2068","326384.42595","330287.233717","316393.909365","317161.019745","317928.287871","318695.518439","319462.734283","320229.890936","320997.500996","329523.529458","Mapping"
"Mixed","Female","cave","24","M_depth.wav","None","733.774502528","412","329520.3562","321764.709329","322531.579033","323315.581501","324082.955393","324850.279707","325617.2068","326384.42595","330287.233717","331054.469092","317161.019745","317928.287871","318695.518439","319462.734283","320229.890936","320997.500996","330289.890467","Mapping"
"Mixed","Female","cave","24","F_cave.wav","None","735.107685226","412","329520.3562","321764.709329","322531.579033","323315.581501","324082.955393","324850.279707","325617.2068","326384.42595","330287.233717","331054.469092","331821.726701","317928.287871","318695.518439","319462.734283","320229.890936","320997.500996","331057.421804","Mapping"
"Mixed","Female","cave","24","M_knife.wav","space","638.105047706","412","329520.3562","321764.709329","322531.579033","323315.581501","324082.955393","324850.279707","325617.2068","326384.42595","330287.233717","331054.469092","331821.726701","332588.927222","318695.518439","319462.734283","320229.890936","320997.500996","331824.346194","Mapping"
"Mixed","Female","cave","24","F_cave.wav","None","737.234708061","412","329520.3562","321764.709329","322531.579033","323315.581501","324082.955393","324850.279707","325617.2068","326384.42595","330287.233717","331054.469092","331821.726701","332588.927222","333356.032494","319462.734283","320229.890936","320997.500996","332591.869418","Mapping"
"Mixed","Female","cave","24","M_lash.wav","space","460.396631618","412","329520.3562","321764.709329","322531.579033","323315.581501","324082.955393","324850.279707","325617.2068","326384.42595","330287.233717","331054.469092","331821.726701","332588.927222","333356.032494","334123.327662","320229.890936","320997.500996","333359.041995","Mapping"
"Mixed","Female","cave","24","F_cave.wav","None","739.600303595","412","329520.3562","321764.709329","322531.579033","323315.581501","324082.955393","324850.279707","325617.2068","326384.42595","330287.233717","331054.469092","331821.726701","332588.927222","333356.032494","334123.327662","334890.520972","320997.500996","334126.201953","Mapping"
"Mixed","Female","cave","24","F_priest.wav","space","418.085132594","412","329520.3562","321764.709329","322531.579033","323315.581501","324082.955393","324850.279707","325617.2068","326384.42595","330287.233717","331054.469092","331821.726701","332588.927222","333356.032494","334123.327662","334890.520972","335657.824554","334893.391656","Mapping"
"Mixed","Female","cave","24","F_cave.wav","None","741.976415557","412","329520.3562","336441.933689","322531.579033","323315.581501","324082.955393","324850.279707","325617.2068","326384.42595","330287.233717","331054.469092","331821.726701","332588.927222","333356.032494","334123.327662","334890.520972","335657.824554","335660.599689","Mapping"
"Mixed","Female","cave","24","F_cling.wav","space","627.701294963","412","329520.3562","336441.933689","337209.187993","323315.581501","324082.955393","324850.279707","325617.2068","326384.42595","330287.233717","331054.469092","331821.726701","332588.927222","333356.032494","334123.327662","334890.520972","335657.824554","336444.714533","Mapping"
"Mixed","Female","cave","24","M_depth.wav","None","726.660288703","412","329520.3562","336441.933689","337209.187993","337977.264983","324082.955393","324850.279707","325617.2068","326384.42595","330287.233717","331054.469092","331821.726701","332588.927222","333356.032494","334123.327662","334890.520972","335657.824554","337212.3925","Mapping"
"Mixed","Female","cave","24","M_bluff.wav","None","727.111593732","412","329520.3562","336441.933689","337209.187993","337977.264983","338744.352227","324850.279707","325617.2068","326384.42595","330287.233717","331054.469092","331821.726701","332588.927222","333356.032494","334123.327662","334890.520972","335657.824554","337980.987198","Mapping"
"Mixed","Female","cave","24","M_greet.wav","None","728.9447575","412","329520.3562","336441.933689","337209.187993","337977.264983","338744.352227","339511.053668","325617.2068","326384.42595","330287.233717","331054.469092","331821.726701","332588.927222","333356.032494","334123.327662","334890.520972","335657.824554","338747.751437","Mapping"
"Mixed","Female","cave","24","M_jaw.wav","None","731.173338991","412","329520.3562","336441.933689","337209.187993","337977.264983","338744.352227","339511.053668","340277.882809","326384.42595","330287.233717","331054.469092","331821.726701","332588.927222","333356.032494","334123.327662","334890.520972","335657.824554","339514.18516","Mapping"
"Mixed","Female","cave","24","F_bluff.wav","None","733.914521264","412","329520.3562","336441.933689","337209.187993","337977.264983","338744.352227","339511.053668","340277.882809","341045.0647","330287.233717","331054.469092","331821.726701","332588.927222","333356.032494","334123.327662","334890.520972","335657.824554","340280.71293","Mapping"
"Mixed","Male","ball","6","M_jolt.wav","None","735.950501874","412","344181.489523","336441.933689","337209.187993","337977.264983","338744.352227","339511.053668","340277.882809","341045.0647","330287.233717","331054.469092","331821.726701","332588.927222","333356.032494","334123.327662","334890.520972","335657.824554","341047.715441","Mapping"
"Mixed","Male","ball","6","F_cling.wav","None","728.861227009","412","344181.489523","336441.933689","337209.187993","337977.264983","338744.352227","339511.053668","340277.882809","341045.0647","344947.837912","331054.469092","331821.726701","332588.927222","333356.032494","334123.327662","334890.520972","335657.824554","344185.349653","Mapping"
"Mixed","Male","ball","6","F_cling.wav","None","731.801019553","412","344181.489523","336441.933689","337209.187993","337977.264983","338744.352227","339511.053668","340277.882809","341045.0647","344947.837912","345715.115654","331821.726701","332588.927222","333356.032494","334123.327662","334890.520972","335657.824554","344950.994944","Mapping"
"Mixed","Male","ball","6","M_ball.wav","None","733.490558951","412","344181.489523","336441.933689","337209.187993","337977.264983","338744.352227","339511.053668","340277.882809","341045.0647","344947.837912","345715.115654","346482.315874","332588.927222","333356.032494","334123.327662","334890.520972","335657.824554","345718.503146","Mapping"
"Mixed","Male","ball","6","M_priest.wav","space","420.85515993","412","344181.489523","336441.933689","337209.187993","337977.264983","338744.352227","339511.053668","340277.882809","341045.0647","344947.837912","345715.115654","346482.315874","347249.547944","333356.032494","334123.327662","334890.520972","335657.824554","346485.589187","Mapping"
"Mixed","Male","ball","6","F_park.wav","None","735.708924481","412","344181.489523","336441.933689","337209.187993","337977.264983","338744.352227","339511.053668","340277.882809","341045.0647","344947.837912","345715.115654","346482.315874","347249.547944","348016.718718","334123.327662","334890.520972","335657.824554","347252.76537","Mapping"
"Mixed","Male","ball","6","F_jaw.wav","None","737.622614048","412","344181.489523","336441.933689","337209.187993","337977.264983","338744.352227","339511.053668","340277.882809","341045.0647","344947.837912","345715.115654","346482.315874","347249.547944","348016.718718","348784.04153","334890.520972","335657.824554","348019.944557","Mapping"
"Mixed","Male","ball","6","M_ball.wav","None","739.525186245","412","344181.489523","336441.933689","337209.187993","337977.264983","338744.352227","339511.053668","340277.882809","341045.0647","344947.837912","345715.115654","346482.315874","347249.547944","348016.718718","348784.04153","349551.086407","335657.824554","348786.832289","Mapping"
"Mixed","Male","ball","6","F_dime.wav","space","422.46958198","412","344181.489523","336441.933689","337209.187993","337977.264983","338744.352227","339511.053668","340277.882809","341045.0647","344947.837912","345715.115654","346482.315874","347249.547944","348016.718718","348784.04153","349551.086407","350318.436562","349554.002763","Mapping"
"Mixed","Male","ball","6","F_knife.wav","None","742.416603217","412","344181.489523","351102.418899","337209.187993","337977.264983","338744.352227","339511.053668","340277.882809","341045.0647","344947.837912","345715.115654","346482.315874","347249.547944","348016.718718","348784.04153","349551.086407","350318.436562","350320.975828","Mapping"
"Mixed","Male","ball","6","F_romp.wav","None","726.7958004","412","344181.489523","351102.418899","351869.697842","337977.264983","338744.352227","339511.053668","340277.882809","341045.0647","344947.837912","345715.115654","346482.315874","347249.547944","348016.718718","348784.04153","349551.086407","350318.436562","351105.491499","Mapping"
"Mixed","Male","ball","6","M_ball.wav","None","728.653302189","412","344181.489523","351102.418899","351869.697842","352637.101179","338744.352227","339511.053668","340277.882809","341045.0647","344947.837912","345715.115654","346482.315874","347249.547944","348016.718718","348784.04153","349551.086407","350318.436562","351872.661372","Mapping"
"Mixed","Male","ball","6","M_priest.wav","space","481.426484454","412","344181.489523","351102.418899","351869.697842","352637.101179","353404.981362","339511.053668","340277.882809","341045.0647","344947.837912","345715.115654","346482.315874","347249.547944","348016.718718","348784.04153","349551.086407","350318.436562","352640.017836","Mapping"
"Mixed","Male","ball","6","F_bluff.wav","None","729.755423923","412","344181.489523","351102.418899","351869.697842","352637.101179","353404.981362","354171.449939","340277.882809","341045.0647","344947.837912","345715.115654","346482.315874","347249.547944","348016.718718","348784.04153","349551.086407","350318.436562","353408.277211","Mapping"
"Mixed","Male","ball","6","M_ball.wav","None","732.419085095","412","344181.489523","351102.418899","351869.697842","352637.101179","353404.981362","354171.449939","354938.432619","341045.0647","344947.837912","345715.115654","346482.315874","347249.547944","348016.718718","348784.04153","349551.086407","350318.436562","354174.717544","Mapping"
"Mixed","Male","ball","6","M_gnash.wav","None","735.056905898","412","344181.489523","351102.418899","351869.697842","352637.101179","353404.981362","354171.449939","354938.432619","355705.585966","344947.837912","345715.115654","346482.315874","347249.547944","348016.718718","348784.04153","349551.086407","350318.436562","354941.272356","Mapping"
"Mixed","Male","done","38","M_lash.wav","None","725.544345376","412","358841.67817","351102.418899","351869.697842","352637.101179","353404.981362","354171.449939","354938.432619","355705.585966","344947.837912","345715.115654","346482.315874","347249.547944","348016.718718","348784.04153","349551.086407","350318.436562","355719.603765","Mapping"
"Mixed","Male","done","38","M_done.wav","None","731.10393056","412","358841.67817","351102.418899","351869.697842","352637.101179","353404.981362","354171.449939","354938.432619","355705.585966","359608.882296","345715.115654","346482.315874","347249.547944","348016.718718","348784.04153","349551.086407","350318.436562","358844.836403","Mapping"
"Mixed","Male","done","38","F_depth.wav","space","537.488664792","412","358841.67817","351102.418899","351869.697842","352637.101179","353404.981362","354171.449939","354938.432619","355705.585966","359608.882296","360376.093934","346482.315874","347249.547944","348016.718718","348784.04153","349551.086407","350318.436562","359611.922145","Mapping"
"Mixed","Male","done","38","M_done.wav","None","732.800681224","412","358841.67817","351102.418899","351869.697842","352637.101179","353404.981362","354171.449939","354938.432619","355705.585966","359608.882296","360376.093934","361143.373478","347249.547944","348016.718718","348784.04153","349551.086407","350318.436562","360379.376562","Mapping"
"Mixed","Male","done","38","M_bluff.wav","space","525.855691762","412","358841.67817","351102.418899","351869.697842","352637.101179","353404.981362","354171.449939","354938.432619","355705.585966","359608.882296","360376.093934","361143.373478","361910.579407","348016.718718","348784.04153","349551.086407","350318.436562","361146.590604","Mapping"
"Mixed","Male","done","38","M_knife.wav","None","735.224868289","412","358841.67817","351102.418899","351869.697842","352637.101179","353404.981362","354171.449939","354938.432619","355705.585966","359608.882296","360376.093934","361143.373478","361910.579407","362677.392022","348784.04153","349551.086407","350318.436562","361913.856627","Mapping"
"Mixed","Male","done","38","F_cling.wav","None","737.927590481","412","358841.67817","351102.418899","351869.697842","352637.101179","353404.981362","354171.449939","354938.432619","355705.585966","359608.882296","360376.093934","361143.373478","361910.579407","362677.392022","363445.091322","349551.086407","350318.436562","362680.163552","Mapping"
"Mixed","Male","done","38","F_lash.wav","None","739.102726279","412","358841.67817","351102.418899","351869.697842","352637.101179","353404.981362","354171.449939","354938.432619","355705.585966","359608.882296","360376.093934","361143.373478","361910.579407","362677.392022","363445.091322","364211.851054","350318.436562","363448.199678","Mapping"
"Mixed","Male","done","38","F_lash.wav","None","741.965598659","412","358841.67817","351102.418899","351869.697842","352637.101179","353404.981362","354171.449939","354938.432619","355705.585966","359608.882296","360376.093934","361143.373478","361910.579407","362677.392022","363445.091322","364211.851054","364995.787119","364214.529738","Mapping"
"Mixed","Male","done","38","F_jaw.wav","None","726.825847339","412","358841.67817","365763.030907","351869.697842","352637.101179","353404.981362","354171.449939","354938.432619","355705.585966","359608.882296","360376.093934","361143.373478","361910.579407","362677.392022","363445.091322","364211.851054","364995.787119","364998.500658","Mapping"
"Mixed","Male","done","38","F_greet.wav","None","728.358241245","412","358841.67817","365763.030907","366530.337794","352637.101179","353404.981362","354171.449939","354938.432619","355705.585966","359608.882296","360376.093934","361143.373478","361910.579407","362677.392022","363445.091322","364211.851054","364995.787119","365766.115526","Mapping"
"Mixed","Male","done","38","M_done.wav","None","730.481057508","412","358841.67817","365763.030907","366530.337794","367297.332793","353404.981362","354171.449939","354938.432619","355705.585966","359608.882296","360376.093934","361143.373478","361910.579407","362677.392022","363445.091322","364211.851054","364995.787119","366533.126751","Mapping"
"Mixed","Male","done","38","M_reek.wav","space","440.345107127","412","358841.67817","365763.030907","366530.337794","367297.332793","368064.542628","354171.449939","354938.432619","355705.585966","359608.882296","360376.093934","361143.373478","361910.579407","362677.392022","363445.091322","364211.851054","364995.787119","367300.093807","Mapping"
"Mixed","Male","done","38","F_cad.wav","None","733.11467174","412","358841.67817","365763.030907","366530.337794","367297.332793","368064.542628","368831.842304","354938.432619","355705.585966","359608.882296","360376.093934","361143.373478","361910.579407","362677.392022","363445.091322","364211.851054","364995.787119","368067.094515","Mapping"
"Mixed","Male","done","38","M_done.wav","None","734.448154907","412","358841.67817","365763.030907","366530.337794","367297.332793","368064.542628","368831.842304","369599.105322","355705.585966","359608.882296","360376.093934","361143.373478","361910.579407","362677.392022","363445.091322","364211.851054","364995.787119","368834.753852","Mapping"
"Mixed","Male","done","38","F_gnash.wav","space","516.657121755","412","358841.67817","365763.030907","366530.337794","367297.332793","368064.542628","368831.842304","369599.105322","370366.311852","359608.882296","360376.093934","361143.373478","361910.579407","362677.392022","363445.091322","364211.851054","364995.787119","369601.790317","Mapping"
"Mixed","Male","ball","3","F_jaw.wav","None","737.023778547","412","373502.321126","365763.030907","366530.337794","367297.332793","368064.542628","368831.842304","369599.105322","370366.311852","359608.882296","360376.093934","361143.373478","361910.579407","362677.392022","363445.091322","364211.851054","364995.787119","370369.238725","Mapping"
"Mixed","Male","ball","3","F_knife.wav","None","730.669752287","412","373502.321126","365763.030907","366530.337794","367297.332793","368064.542628","368831.842304","369599.105322","370366.311852","374269.151769","360376.093934","361143.373478","361910.579407","362677.392022","363445.091322","364211.851054","364995.787119","373505.921651","Mapping"
"Mixed","Male","ball","3","M_ball.wav","None","733.675648098","412","373502.321126","365763.030907","366530.337794","367297.332793","368064.542628","368831.842304","369599.105322","370366.311852","374269.151769","375036.297905","361143.373478","361910.579407","362677.392022","363445.091322","364211.851054","364995.787119","374271.885139","Mapping"
"Mixed","Male","ball","3","M_cling.wav","space","353.226109829","412","373502.321126","365763.030907","366530.337794","367297.332793","368064.542628","368831.842304","369599.105322","370366.311852","374269.151769","375036.297905","375803.566031","361910.579407","362677.392022","363445.091322","364211.851054","364995.787119","375039.20104","Mapping"
"Mixed","Male","ball","3","F_cad.wav","None","735.636210889","412","373502.321126","365763.030907","366530.337794","367297.332793","368064.542628","368831.842304","369599.105322","370366.311852","374269.151769","375036.297905","375803.566031","376570.785481","362677.392022","363445.091322","364211.851054","364995.787119","375806.389542","Mapping"
"Mixed","Male","ball","3","M_cling.wav","None","737.562820638","412","373502.321126","365763.030907","366530.337794","367297.332793","368064.542628","368831.842304","369599.105322","370366.311852","374269.151769","375036.297905","375803.566031","376570.785481","377337.976086","363445.091322","364211.851054","364995.787119","376573.615602","Mapping"
"Mixed","Male","ball","3","M_park.wav","None","739.286012608","412","373502.321126","365763.030907","366530.337794","367297.332793","368064.542628","368831.842304","369599.105322","370366.311852","374269.151769","375036.297905","375803.566031","376570.785481","377337.976086","378105.151067","364211.851054","364995.787119","377341.117193","Mapping"
"Mixed","Male","ball","3","M_ball.wav","None","741.769692613","412","373502.321126","365763.030907","366530.337794","367297.332793","368064.542628","368831.842304","369599.105322","370366.311852","374269.151769","375036.297905","375803.566031","376570.785481","377337.976086","378105.151067","378889.436878","364995.787119","378107.889545","Mapping"
"Mixed","Male","ball","3","F_knife.wav","space","416.209602641","412","373502.321126","365763.030907","366530.337794","367297.332793","368064.542628","368831.842304","369599.105322","370366.311852","374269.151769","375036.297905","375803.566031","376570.785481","377337.976086","378105.151067","378889.436878","379656.598338","378892.229741","Mapping"
"Mixed","Male","ball","3","M_ball.wav","None","726.589377926","412","373502.321126","380423.712323","366530.337794","367297.332793","368064.542628","368831.842304","369599.105322","370366.311852","374269.151769","375036.297905","375803.566031","376570.785481","377337.976086","378105.151067","378889.436878","379656.598338","379659.687163","Mapping"
"Mixed","Male","ball","3","F_knife.wav","space","642.637928973","412","373502.321126","380423.712323","381190.98706","367297.332793","368064.542628","368831.842304","369599.105322","370366.311852","374269.151769","375036.297905","375803.566031","376570.785481","377337.976086","378105.151067","378889.436878","379656.598338","380426.836003","Mapping"
"Mixed","Male","ball","3","F_reek.wav","None","729.037001604","412","373502.321126","380423.712323","381190.98706","381958.093233","368064.542628","368831.842304","369599.105322","370366.311852","374269.151769","375036.297905","375803.566031","376570.785481","377337.976086","378105.151067","378889.436878","379656.598338","381194.070176","Mapping"
"Mixed","Male","ball","3","F_dime.wav","None","731.666409264","412","373502.321126","380423.712323","381190.98706","381958.093233","382725.23396","368831.842304","369599.105322","370366.311852","374269.151769","375036.297905","375803.566031","376570.785481","377337.976086","378105.151067","378889.436878","379656.598338","381960.727749","Mapping"
"Mixed","Male","ball","3","M_depth.wav","None","733.456605909","412","373502.321126","380423.712323","381190.98706","381958.093233","382725.23396","383492.510199","369599.105322","370366.311852","374269.151769","375036.297905","375803.566031","376570.785481","377337.976086","378105.151067","378889.436878","379656.598338","382727.709227","Mapping"
"Mixed","Male","ball","3","M_ball.wav","None","734.92710312","412","373502.321126","380423.712323","381190.98706","381958.093233","382725.23396","383492.510199","384259.604955","370366.311852","374269.151769","375036.297905","375803.566031","376570.785481","377337.976086","378105.151067","378889.436878","379656.598338","383495.408828","Mapping"
"Mixed","Male","ball","3","F_jaw.wav","space","497.031061926","412","373502.321126","380423.712323","381190.98706","381958.093233","382725.23396","383492.510199","384259.604955","385026.869776","374269.151769","375036.297905","375803.566031","376570.785481","377337.976086","378105.151067","378889.436878","379656.598338","384262.393311","Mapping"
"Mixed","Male","ball","5","F_priest.wav","None","738.020735994","412","388162.66151","380423.712323","381190.98706","381958.093233","382725.23396","383492.510199","384259.604955","385026.869776","374269.151769","375036.297905","375803.566031","376570.785481","377337.976086","378105.151067","378889.436878","379656.598338","385029.702601","Mapping"
"Mixed","Male","ball","5","F_reek.wav","None","731.457282566","412","388162.66151","380423.712323","381190.98706","381958.093233","382725.23396","383492.510199","384259.604955","385026.869776","388929.724716","375036.297905","375803.566031","376570.785481","377337.976086","378105.151067","378889.436878","379656.598338","388165.835969","Mapping"
"Mixed","Male","ball","5","M_ball.wav","None","734.297018803","412","388162.66151","380423.712323","381190.98706","381958.093233","382725.23396","383492.510199","384259.604955","385026.869776","388929.724716","389696.963997","375803.566031","376570.785481","377337.976086","378105.151067","378889.436878","379656.598338","388932.240847","Mapping"
"Mixed","Male","ball","5","F_bluff.wav","space","345.839971203","412","388162.66151","380423.712323","381190.98706","381958.093233","382725.23396","383492.510199","384259.604955","385026.869776","388929.724716","389696.963997","390464.480912","376570.785481","377337.976086","378105.151067","378889.436878","379656.598338","389699.566062","Mapping"
"Mixed","Male","ball","5","M_ball.wav","None","735.183703982","412","388162.66151","380423.712323","381190.98706","381958.093233","382725.23396","383492.510199","384259.604955","385026.869776","388929.724716","389696.963997","390464.480912","391231.819949","377337.976086","378105.151067","378889.436878","379656.598338","390467.896648","Mapping"
"Mixed","Male","ball","5","M_greet.wav","space","456.486623403","412","388162.66151","380423.712323","381190.98706","381958.093233","382725.23396","383492.510199","384259.604955","385026.869776","388929.724716","389696.963997","390464.480912","391231.819949","391998.940845","378105.151067","378889.436878","379656.598338","391234.919591","Mapping"
"Mixed","Male","ball","5","F_park.wav","None","737.708848763","412","388162.66151","380423.712323","381190.98706","381958.093233","382725.23396","383492.510199","384259.604955","385026.869776","388929.724716","389696.963997","390464.480912","391231.819949","391998.940845","392766.30362","378889.436878","379656.598338","392002.020957","Mapping"
"Mixed","Male","ball","5","F_reek.wav","None","739.449167489","412","388162.66151","380423.712323","381190.98706","381958.093233","382725.23396","383492.510199","384259.604955","385026.869776","388929.724716","389696.963997","390464.480912","391231.819949","391998.940845","392766.30362","393533.380948","379656.598338","392769.239806","Mapping"
"Mixed","Male","ball","5","M_ball.wav","None","741.316885238","412","388162.66151","380423.712323","381190.98706","381958.093233","382725.23396","383492.510199","384259.604955","385026.869776","388929.724716","389696.963997","390464.480912","391231.819949","391998.940845","392766.30362","393533.380948","394317.266233","393536.295501","Mapping"
"Mixed","Male","ball","5","F_reek.wav","space","437.20790619","412","388162.66151","395084.479073","381190.98706","381958.093233","382725.23396","383492.510199","384259.604955","385026.869776","388929.724716","389696.963997","390464.480912","391231.819949","391998.940845","392766.30362","393533.380948","394317.266233","394320.295866","Mapping"
"Mixed","Male","ball","5","F_cling.wav","None","727.183706385","412","388162.66151","395084.479073","395851.604777","381958.093233","382725.23396","383492.510199","384259.604955","385026.869776","388929.724716","389696.963997","390464.480912","391231.819949","391998.940845","392766.30362","393533.380948","394317.266233","395087.636406","Mapping"
"Mixed","Male","ball","5","F_lash.wav","None","729.07846638","412","388162.66151","395084.479073","395851.604777","396618.636434","382725.23396","383492.510199","384259.604955","385026.869776","388929.724716","389696.963997","390464.480912","391231.819949","391998.940845","392766.30362","393533.380948","394317.266233","395854.69871","Mapping"
"Mixed","Male","ball","5","M_reek.wav","None","731.587085344","412","388162.66151","395084.479073","395851.604777","396618.636434","397386.287058","383492.510199","384259.604955","385026.869776","388929.724716","389696.963997","390464.480912","391231.819949","391998.940845","392766.30362","393533.380948","394317.266233","396621.482179","Mapping"
"Mixed","Male","ball","5","M_ball.wav","None","733.172361864","412","388162.66151","395084.479073","395851.604777","396618.636434","397386.287058","398153.480667","384259.604955","385026.869776","388929.724716","389696.963997","390464.480912","391231.819949","391998.940845","392766.30362","393533.380948","394317.266233","397389.320597","Mapping"
"Mixed","Male","ball","5","M_dime.wav","space","506.720899389","412","388162.66151","395084.479073","395851.604777","396618.636434","397386.287058","398153.480667","398920.335348","385026.869776","388929.724716","389696.963997","390464.480912","391231.819949","391998.940845","392766.30362","393533.380948","394317.266233","398156.762695","Mapping"
"Mixed","Male","ball","5","M_jolt.wav","None","735.979346936","412","388162.66151","395084.479073","395851.604777","396618.636434","397386.287058","398153.480667","398920.335348","399687.474573","388929.724716","389696.963997","390464.480912","391231.819949","391998.940845","392766.30362","393533.380948","394317.266233","398923.111084","Mapping"
"Mixed","Male","done","39","M_knife.wav","None","738.332022285","412","402823.549349","395084.479073","395851.604777","396618.636434","397386.287058","398153.480667","398920.335348","399687.474573","388929.724716","389696.963997","390464.480912","391231.819949","391998.940845","392766.30362","393533.380948","394317.266233","399690.130722","Mapping"
"Mixed","Male","done","39","F_romp.wav","None","731.115648867","412","402823.549349","395084.479073","395851.604777","396618.636434","397386.287058","398153.480667","398920.335348","399687.474573","403590.756179","389696.963997","390464.480912","391231.819949","391998.940845","392766.30362","393533.380948","394317.266233","402826.820259","Mapping"
"Mixed","Male","done","39","M_done.wav","None","733.662727914","412","402823.549349","395084.479073","395851.604777","396618.636434","397386.287058","398153.480667","398920.335348","399687.474573","403590.756179","404357.985545","390464.480912","391231.819949","391998.940845","392766.30362","393533.380948","394317.266233","403593.834188","Mapping"
"Mixed","Male","done","39","F_reek.wav","space","615.248641428","412","402823.549349","395084.479073","395851.604777","396618.636434","397386.287058","398153.480667","398920.335348","399687.474573","403590.756179","404357.985545","405124.760601","391231.819949","391998.940845","392766.30362","393533.380948","394317.266233","404361.165413","Mapping"
"Mixed","Male","done","39","F_romp.wav","None","736.600717642","412","402823.549349","395084.479073","395851.604777","396618.636434","397386.287058","398153.480667","398920.335348","399687.474573","403590.756179","404357.985545","405124.760601","405891.970737","391998.940845","392766.30362","393533.380948","394317.266233","405127.717821","Mapping"
"Mixed","Male","done","39","M_done.wav","None","738.69649166","412","402823.549349","395084.479073","395851.604777","396618.636434","397386.287058","398153.480667","398920.335348","399687.474573","403590.756179","404357.985545","405124.760601","405891.970737","406659.252685","392766.30362","393533.380948","394317.266233","405894.484163","Mapping"
"Mixed","Male","done","39","M_cling.wav","space","416.41302042","412","402823.549349","395084.479073","395851.604777","396618.636434","397386.287058","398153.480667","398920.335348","399687.474573","403590.756179","404357.985545","405124.760601","405891.970737","406659.252685","407426.435778","393533.380948","394317.266233","406662.049754","Mapping"
"Mixed","Male","done","39","M_done.wav","None","741.022124764","412","402823.549349","395084.479073","395851.604777","396618.636434","397386.287058","398153.480667","398920.335348","399687.474573","403590.756179","404357.985545","405124.760601","405891.970737","406659.252685","407426.435778","408210.75434","394317.266233","407429.21512","Mapping"
"Mixed","Male","done","39","F_reek.wav","space","490.774988688","412","402823.549349","395084.479073","395851.604777","396618.636434","397386.287058","398153.480667","398920.335348","399687.474573","403590.756179","404357.985545","405124.760601","405891.970737","406659.252685","407426.435778","408210.75434","408977.914899","408213.635541","Mapping"
"Mixed","Male","done","39","F_jolt.wav","None","726.673208887","412","402823.549349","409745.04541","395851.604777","396618.636434","397386.287058","398153.480667","398920.335348","399687.474573","403590.756179","404357.985545","405124.760601","405891.970737","406659.252685","407426.435778","408210.75434","408977.914899","408980.699349","Mapping"
"Mixed","Male","done","39","M_priest.wav","None","728.308062856","412","402823.549349","409745.04541","410512.353198","396618.636434","397386.287058","398153.480667","398920.335348","399687.474573","403590.756179","404357.985545","405124.760601","405891.970737","406659.252685","407426.435778","408210.75434","408977.914899","409747.992714","Mapping"
"Mixed","Male","done","39","F_park.wav","None","722.101867538","412","402823.549349","409745.04541","410512.353198","411279.271578","397386.287058","398153.480667","398920.335348","399687.474573","403590.756179","404357.985545","405124.760601","405891.970737","406659.252685","407426.435778","408210.75434","408977.914899","410523.484988","Mapping"
"Mixed","Male","done","39","M_done.wav","None","733.060587249","412","402823.549349","409745.04541","410512.353198","411279.271578","412046.495836","398153.480667","398920.335348","399687.474573","403590.756179","404357.985545","405124.760601","405891.970737","406659.252685","407426.435778","408210.75434","408977.914899","411282.030488","Mapping"
"Mixed","Male","done","39","F_dime.wav","space","439.429576885","412","402823.549349","409745.04541","410512.353198","411279.271578","412046.495836","412813.731211","398920.335348","399687.474573","403590.756179","404357.985545","405124.760601","405891.970737","406659.252685","407426.435778","408210.75434","408977.914899","412048.988229","Mapping"
"Mixed","Male","done","39","F_bluff.wav","None","735.152154696","412","402823.549349","409745.04541","410512.353198","411279.271578","412046.495836","412813.731211","413580.978004","399687.474573","403590.756179","404357.985545","405124.760601","405891.970737","406659.252685","407426.435778","408210.75434","408977.914899","412816.515961","Mapping"
