"Condition","Talker","Target","Trial","current_stimulus","response_response","response_time_response","subject_nr","time_Audio1","time_Audio10","time_Audio11","time_Audio12","time_Audio13","time_Audio14","time_Audio15","time_Audio16","time_Audio2","time_Audio3","time_Audio4","time_Audio5","time_Audio6","time_Audio7","time_Audio8","time_Audio9","time_response","title"
"Mixed","both","cave","21","M_romp.wav","NA","NA","307","24081.8248517","NA","NA","NA","NA","NA","NA","NA","NA","NA","NA","NA","NA","NA","NA","NA","NA","Mapping"
"Mixed","both","cave","21","M_greet.wav","None","717.555441894","307","24081.8248517","NA","NA","NA","NA","NA","NA","NA","24848.9120044","NA","NA","NA","NA","NA","NA","NA","24096.6565083","Mapping"
"Mixed","both","cave","21","F_depth.wav","None","720.787229482","307","24081.8248517","NA","NA","NA","NA","NA","NA","NA","24848.9120044","25615.1931421","NA","NA","NA","NA","NA","NA","24859.5781703","Mapping"
"Mixed","both","cave","21","F_cad.wav","None","721.751540434","307","24081.8248517","NA","NA","NA","NA","NA","NA","NA","24848.9120044","25615.1931421","26381.7868545","NA","NA","NA","NA","NA","25624.7082567","Mapping"
"Mixed","both","cave","21","M_cave.wav","None","721.807810012","307","24081.8248517","NA","NA","NA","NA","NA","NA","NA","24848.9120044","25615.1931421","26381.7868545","27148.750647","NA","NA","NA","NA","26392.0365642","Mapping"
"Mixed","both","cave","21","F_romp.wav","space","562.770352699","307","24081.8248517","NA","NA","NA","NA","NA","NA","NA","24848.9120044","25615.1931421","26381.7868545","27148.750647","27915.3180793","NA","NA","NA","27159.127736","Mapping"
"Mixed","both","cave","21","F_cave.wav","None","720.481765922","307","24081.8248517","NA","NA","NA","NA","NA","NA","NA","24848.9120044","25615.1931421","26381.7868545","27148.750647","27915.3180793","28681.9832101","NA","NA","27925.8036884","Mapping"
"Mixed","both","cave","21","M_jaw.wav","space","493.882235605","307","24081.8248517","NA","NA","NA","NA","NA","NA","NA","24848.9120044","25615.1931421","26381.7868545","27148.750647","27915.3180793","28681.9832101","29448.7608802","NA","28691.9840355","Mapping"
"Mixed","both","cave","21","M_priest.wav","None","719.672659878","307","24081.8248517","NA","NA","NA","NA","NA","NA","NA","24848.9120044","25615.1931421","26381.7868545","27148.750647","27915.3180793","28681.9832101","29448.7608802","30198.4684798","29458.7431555","Mapping"
"Mixed","both","cave","21","M_depth.wav","None","736.38903629","307","24081.8248517","30964.7762068","NA","NA","NA","NA","NA","NA","24848.9120044","25615.1931421","26381.7868545","27148.750647","27915.3180793","28681.9832101","29448.7608802","30198.4684798","30207.9835944","Mapping"
"Mixed","both","cave","21","F_bluff.wav","None","735.715966672","307","24081.8248517","30964.7762068","31731.7097001","NA","NA","NA","NA","NA","24848.9120044","25615.1931421","26381.7868545","27148.750647","27915.3180793","28681.9832101","29448.7608802","30198.4684798","30974.7587908","Mapping"
"Mixed","both","cave","21","M_cave.wav","None","735.020945314","307","24081.8248517","30964.7762068","31731.7097001","32498.6385559","NA","NA","NA","NA","24848.9120044","25615.1931421","26381.7868545","27148.750647","27915.3180793","28681.9832101","29448.7608802","30198.4684798","31741.554393","Mapping"
"Mixed","both","cave","21","F_jolt.wav","space","477.094439324","307","24081.8248517","30964.7762068","31731.7097001","32498.6385559","33265.2869918","NA","NA","NA","24848.9120044","25615.1931421","26381.7868545","27148.750647","27915.3180793","28681.9832101","29448.7608802","30198.4684798","32508.6835935","Mapping"
"Mixed","both","cave","21","F_priest.wav","None","730.957790744","307","24081.8248517","30964.7762068","31731.7097001","32498.6385559","33265.2869918","34031.4627015","NA","NA","24848.9120044","25615.1931421","26381.7868545","27148.750647","27915.3180793","28681.9832101","29448.7608802","30198.4684798","33275.1947562","Mapping"
"Mixed","both","cave","21","F_cave.wav","None","730.83906807","307","24081.8248517","30964.7762068","31731.7097001","32498.6385559","33265.2869918","34031.4627015","34798.7004216","NA","24848.9120044","25615.1931421","26381.7868545","27148.750647","27915.3180793","28681.9832101","29448.7608802","30198.4684798","34041.5238161","Mapping"
"Mixed","both","cave","21","M_priest.wav","space","465.413567144","307","24081.8248517","30964.7762068","31731.7097001","32498.6385559","33265.2869918","34031.4627015","34798.7004216","35565.6196931","24848.9120044","25615.1931421","26381.7868545","27148.750647","27915.3180793","28681.9832101","29448.7608802","30198.4684798","34808.3611564","Mapping"
"Mixed","both","done","37","F_gnash.wav","None","722.671021242","307","38715.5121164","30964.7762068","31731.7097001","32498.6385559","33265.2869918","34031.4627015","34798.7004216","35565.6196931","24848.9120044","25615.1931421","26381.7868545","27148.750647","27915.3180793","28681.9832101","29448.7608802","30198.4684798","35575.7602649","Mapping"
"Mixed","both","done","37","M_park.wav","None","723.327705171","307","38715.5121164","30964.7762068","31731.7097001","32498.6385559","33265.2869918","34031.4627015","34798.7004216","35565.6196931","39482.0909882","25615.1931421","26381.7868545","27148.750647","27915.3180793","28681.9832101","29448.7608802","30198.4684798","38725.4906814","Mapping"
"Mixed","both","done","37","F_depth.wav","None","723.231552169","307","38715.5121164","30964.7762068","31731.7097001","32498.6385559","33265.2869918","34031.4627015","34798.7004216","35565.6196931","39482.0909882","40249.027573","26381.7868545","27148.750647","27915.3180793","28681.9832101","29448.7608802","30198.4684798","39491.9313528","Mapping"
"Mixed","both","done","37","M_done.wav","None","719.679770526","307","38715.5121164","30964.7762068","31731.7097001","32498.6385559","33265.2869918","34031.4627015","34798.7004216","35565.6196931","39482.0909882","40249.027573","41015.8782084","27148.750647","27915.3180793","28681.9832101","29448.7608802","30198.4684798","40259.1443388","Mapping"
"Mixed","both","done","37","M_cad.wav","space","487.227282021","307","38715.5121164","30964.7762068","31731.7097001","32498.6385559","33265.2869918","34031.4627015","34798.7004216","35565.6196931","39482.0909882","40249.027573","41015.8782084","41782.4422396","27915.3180793","28681.9832101","29448.7608802","30198.4684798","41026.4194687","Mapping"
"Mixed","both","done","37","M_lash.wav","None","718.622089364","307","38715.5121164","30964.7762068","31731.7097001","32498.6385559","33265.2869918","34031.4627015","34798.7004216","35565.6196931","39482.0909882","40249.027573","41015.8782084","41782.4422396","42548.8207671","28681.9832101","29448.7608802","30198.4684798","41792.4999529","Mapping"
"Mixed","both","done","37","F_cling.wav","None","718.23747782","307","38715.5121164","30964.7762068","31731.7097001","32498.6385559","33265.2869918","34031.4627015","34798.7004216","35565.6196931","39482.0909882","40249.027573","41015.8782084","41782.4422396","42548.8207671","43315.3566639","29448.7608802","30198.4684798","42559.2429959","Mapping"
"Mixed","both","done","37","F_done.wav","None","718.767091632","307","38715.5121164","30964.7762068","31731.7097001","32498.6385559","33265.2869918","34031.4627015","34798.7004216","35565.6196931","39482.0909882","40249.027573","41015.8782084","41782.4422396","42548.8207671","43315.3566639","44081.8996718","30198.4684798","43326.0379797","Mapping"
"Mixed","both","done","37","M_jolt.wav","space","437.424426433","307","38715.5121164","30964.7762068","31731.7097001","32498.6385559","33265.2869918","34031.4627015","34798.7004216","35565.6196931","39482.0909882","40249.027573","41015.8782084","41782.4422396","42548.8207671","43315.3566639","44081.8996718","44848.8282184","44092.1636038","Mapping"
"Mixed","both","done","37","F_romp.wav","None","718.067123555","307","38715.5121164","45598.4662538","31731.7097001","32498.6385559","33265.2869918","34031.4627015","34798.7004216","35565.6196931","39482.0909882","40249.027573","41015.8782084","41782.4422396","42548.8207671","43315.3566639","44081.8996718","44848.8282184","44859.1712983","Mapping"
"Mixed","both","done","37","M_reek.wav","None","732.899707742","307","38715.5121164","45598.4662538","46365.0921197","32498.6385559","33265.2869918","34031.4627015","34798.7004216","35565.6196931","39482.0909882","40249.027573","41015.8782084","41782.4422396","42548.8207671","43315.3566639","44081.8996718","44848.8282184","45607.7609276","Mapping"
"Mixed","both","done","37","M_cad.wav","None","732.436566148","307","38715.5121164","45598.4662538","46365.0921197","47131.8026995","33265.2869918","34031.4627015","34798.7004216","35565.6196931","39482.0909882","40249.027573","41015.8782084","41782.4422396","42548.8207671","43315.3566639","44081.8996718","44848.8282184","46375.0611003","Mapping"
"Mixed","both","done","37","M_done.wav","None","729.239715263","307","38715.5121164","45598.4662538","46365.0921197","47131.8026995","47898.5009119","34031.4627015","34798.7004216","35565.6196931","39482.0909882","40249.027573","41015.8782084","41782.4422396","42548.8207671","43315.3566639","44081.8996718","44848.8282184","47141.5419644","Mapping"
"Mixed","both","done","37","F_lash.wav","space","501.445848495","307","38715.5121164","45598.4662538","46365.0921197","47131.8026995","47898.5009119","48665.0068192","34798.7004216","35565.6196931","39482.0909882","40249.027573","41015.8782084","41782.4422396","42548.8207671","43315.3566639","44081.8996718","44848.8282184","47908.1010493","Mapping"
"Mixed","both","done","37","F_done.wav","None","724.664261099","307","38715.5121164","45598.4662538","46365.0921197","47131.8026995","47898.5009119","48665.0068192","49431.9780315","35565.6196931","39482.0909882","40249.027573","41015.8782084","41782.4422396","42548.8207671","43315.3566639","44081.8996718","44848.8282184","48675.4234824","Mapping"
"Mixed","both","done","37","F_cad.wav","space","607.006235514","307","38715.5121164","45598.4662538","46365.0921197","47131.8026995","47898.5009119","48665.0068192","49431.9780315","50181.4738475","39482.0909882","40249.027573","41015.8782084","41782.4422396","42548.8207671","43315.3566639","44081.8996718","44848.8282184","49442.4488004","Mapping"
"Mixed","both","tile","32","M_jaw.wav","None","735.201811418","307","53315.2985396","45598.4662538","46365.0921197","47131.8026995","47898.5009119","48665.0068192","49431.9780315","50181.4738475","39482.0909882","40249.027573","41015.8782084","41782.4422396","42548.8207671","43315.3566639","44081.8996718","44848.8282184","50191.1447849","Mapping"
"Mixed","both","tile","32","F_gnash.wav","None","718.768637162","307","53315.2985396","45598.4662538","46365.0921197","47131.8026995","47898.5009119","48665.0068192","49431.9780315","50181.4738475","54081.3558358","40249.027573","41015.8782084","41782.4422396","42548.8207671","43315.3566639","44081.8996718","44848.8282184","53325.7773467","Mapping"
"Mixed","both","tile","32","M_jaw.wav","None","720.937796403","307","53315.2985396","45598.4662538","46365.0921197","47131.8026995","47898.5009119","48665.0068192","49431.9780315","50181.4738475","54081.3558358","54831.3398361","41015.8782084","41782.4422396","42548.8207671","43315.3566639","44081.8996718","44848.8282184","54090.4152291","Mapping"
"Mixed","both","tile","32","F_tile.wav","None","734.230389353","307","53315.2985396","45598.4662538","46365.0921197","47131.8026995","47898.5009119","48665.0068192","49431.9780315","50181.4738475","54081.3558358","54831.3398361","55597.9468427","41782.4422396","42548.8207671","43315.3566639","44081.8996718","44848.8282184","54840.4465327","Mapping"
"Mixed","both","tile","32","F_jolt.wav","space","513.23987823","307","53315.2985396","45598.4662538","46365.0921197","47131.8026995","47898.5009119","48665.0068192","49431.9780315","50181.4738475","54081.3558358","54831.3398361","55597.9468427","56364.897341","42548.8207671","43315.3566639","44081.8996718","44848.8282184","55608.1359549","Mapping"
"Mixed","both","tile","32","M_tile.wav","None","732.092456426","307","53315.2985396","45598.4662538","46365.0921197","47131.8026995","47898.5009119","48665.0068192","49431.9780315","50181.4738475","54081.3558358","54831.3398361","55597.9468427","56364.897341","57131.4820871","43315.3566639","44081.8996718","44848.8282184","56375.2803043","Mapping"
"Mixed","both","tile","32","F_cad.wav","space","476.120544132","307","53315.2985396","45598.4662538","46365.0921197","47131.8026995","47898.5009119","48665.0068192","49431.9780315","50181.4738475","54081.3558358","54831.3398361","55597.9468427","56364.897341","57131.4820871","57897.9317243","44081.8996718","44848.8282184","57141.232173","Mapping"
"Mixed","both","tile","32","M_tile.wav","None","729.884341359","307","53315.2985396","45598.4662538","46365.0921197","47131.8026995","47898.5009119","48665.0068192","49431.9780315","50181.4738475","54081.3558358","54831.3398361","55597.9468427","56364.897341","57131.4820871","57897.9317243","58664.8132764","44848.8282184","57907.1135498","Mapping"
"Mixed","both","tile","32","F_jaw.wav","space","398.883204907","307","53315.2985396","45598.4662538","46365.0921197","47131.8026995","47898.5009119","48665.0068192","49431.9780315","50181.4738475","54081.3558358","54831.3398361","55597.9468427","56364.897341","57131.4820871","57897.9317243","58664.8132764","59431.3831823","58674.4882334","Mapping"
"Mixed","both","tile","32","F_jaw.wav","None","725.696590263","307","53315.2985396","60198.6332689","46365.0921197","47131.8026995","47898.5009119","48665.0068192","49431.9780315","50181.4738475","54081.3558358","54831.3398361","55597.9468427","56364.897341","57131.4820871","57897.9317243","58664.8132764","59431.3831823","59440.9567304","Mapping"
"Mixed","both","tile","32","M_cling.wav","None","721.183898393","307","53315.2985396","60198.6332689","60965.2687195","47131.8026995","47898.5009119","48665.0068192","49431.9780315","50181.4738475","54081.3558358","54831.3398361","55597.9468427","56364.897341","57131.4820871","57897.9317243","58664.8132764","59431.3831823","60208.9905716","Mapping"
"Mixed","both","tile","32","M_greet.wav","None","721.392590553","307","53315.2985396","60198.6332689","60965.2687195","61731.7013526","47898.5009119","48665.0068192","49431.9780315","50181.4738475","54081.3558358","54831.3398361","55597.9468427","56364.897341","57131.4820871","57897.9317243","58664.8132764","59431.3831823","60975.2704725","Mapping"
"Mixed","both","tile","32","M_jolt.wav","None","718.837273773","307","53315.2985396","60198.6332689","60965.2687195","61731.7013526","62481.306925","48665.0068192","49431.9780315","50181.4738475","54081.3558358","54831.3398361","55597.9468427","56364.897341","57131.4820871","57897.9317243","58664.8132764","59431.3831823","61741.9127249","Mapping"
"Mixed","both","tile","32","M_greet.wav","None","733.412007336","307","53315.2985396","60198.6332689","60965.2687195","61731.7013526","62481.306925","63248.2837024","49431.9780315","50181.4738475","54081.3558358","54831.3398361","55597.9468427","56364.897341","57131.4820871","57897.9317243","58664.8132764","59431.3831823","62490.8801639","Mapping"
"Mixed","both","tile","32","F_tile.wav","None","729.521990288","307","53315.2985396","60198.6332689","60965.2687195","61731.7013526","62481.306925","63248.2837024","64014.7803342","50181.4738475","54081.3558358","54831.3398361","55597.9468427","56364.897341","57131.4820871","57897.9317243","58664.8132764","59431.3831823","63258.2536107","Mapping"
"Mixed","both","tile","32","F_greet.wav","space","416.852350812","307","53315.2985396","60198.6332689","60965.2687195","61731.7013526","62481.306925","63248.2837024","64014.7803342","64781.1468039","54081.3558358","54831.3398361","55597.9468427","56364.897341","57131.4820871","57897.9317243","58664.8132764","59431.3831823","64024.3882006","Mapping"
"Mixed","both","done","44","F_gnash.wav","None","727.140119765","307","67898.4016674","60198.6332689","60965.2687195","61731.7013526","62481.306925","63248.2837024","64014.7803342","64781.1468039","54081.3558358","54831.3398361","55597.9468427","56364.897341","57131.4820871","57897.9317243","58664.8132764","59431.3831823","64790.2630852","Mapping"
"Mixed","both","done","44","M_lash.wav","None","719.057096168","307","67898.4016674","60198.6332689","60965.2687195","61731.7013526","62481.306925","63248.2837024","64014.7803342","64781.1468039","68648.1037019","54831.3398361","55597.9468427","56364.897341","57131.4820871","57897.9317243","58664.8132764","59431.3831823","67908.1532992","Mapping"
"Mixed","both","done","44","M_done.wav","None","732.401320245","307","67898.4016674","60198.6332689","60965.2687195","61731.7013526","62481.306925","63248.2837024","64014.7803342","64781.1468039","68648.1037019","69414.6943223","55597.9468427","56364.897341","57131.4820871","57897.9317243","58664.8132764","59431.3831823","68658.2115013","Mapping"
"Mixed","both","done","44","F_reek.wav","space","504.086187575","307","67898.4016674","60198.6332689","60965.2687195","61731.7013526","62481.306925","63248.2837024","64014.7803342","64781.1468039","68648.1037019","69414.6943223","70181.1603457","56364.897341","57131.4820871","57897.9317243","58664.8132764","59431.3831823","69425.0092679","Mapping"
"Mixed","both","done","44","M_reek.wav","None","729.204160161","307","67898.4016674","60198.6332689","60965.2687195","61731.7013526","62481.306925","63248.2837024","64014.7803342","64781.1468039","68648.1037019","69414.6943223","70181.1603457","70948.0425166","57131.4820871","57897.9317243","58664.8132764","59431.3831823","70190.9129051","Mapping"
"Mixed","both","done","44","F_done.wav","None","726.002671756","307","67898.4016674","60198.6332689","60965.2687195","61731.7013526","62481.306925","63248.2837024","64014.7803342","64781.1468039","68648.1037019","69414.6943223","70181.1603457","70948.0425166","71714.9923961","57897.9317243","58664.8132764","59431.3831823","70957.5746353","Mapping"
"Mixed","both","done","44","M_romp.wav","space","404.025991447","307","67898.4016674","60198.6332689","60965.2687195","61731.7013526","62481.306925","63248.2837024","64014.7803342","64781.1468039","68648.1037019","69414.6943223","70181.1603457","70948.0425166","71714.9923961","72481.4701681","58664.8132764","59431.3831823","71725.1051422","Mapping"
"Mixed","both","done","44","M_priest.wav","None","718.779149465","307","67898.4016674","60198.6332689","60965.2687195","61731.7013526","62481.306925","63248.2837024","64014.7803342","64781.1468039","68648.1037019","69414.6943223","70181.1603457","70948.0425166","71714.9923961","72481.4701681","73231.1057304","59431.3831823","72491.5105677","Mapping"
"Mixed","both","done","44","F_cad.wav","None","732.872809749","307","67898.4016674","60198.6332689","60965.2687195","61731.7013526","62481.306925","63248.2837024","64014.7803342","64781.1468039","68648.1037019","69414.6943223","70181.1603457","70948.0425166","71714.9923961","72481.4701681","73231.1057304","73997.995012","73240.8440677","Mapping"
"Mixed","both","done","44","M_done.wav","None","730.352429673","307","67898.4016674","74764.6514862","60965.2687195","61731.7013526","62481.306925","63248.2837024","64014.7803342","64781.1468039","68648.1037019","69414.6943223","70181.1603457","70948.0425166","71714.9923961","72481.4701681","73231.1057304","73997.995012","74007.0423475","Mapping"
"Mixed","both","done","44","F_reek.wav","space","474.547161721","307","67898.4016674","74764.6514862","75531.512633","61731.7013526","62481.306925","63248.2837024","64014.7803342","64781.1468039","68648.1037019","69414.6943223","70181.1603457","70948.0425166","71714.9923961","72481.4701681","73231.1057304","73997.995012","74774.5366809","Mapping"
"Mixed","both","done","44","F_dime.wav","None","721.694034059","307","67898.4016674","74764.6514862","75531.512633","76298.2992693","62481.306925","63248.2837024","64014.7803342","64781.1468039","68648.1037019","69414.6943223","70181.1603457","70948.0425166","71714.9923961","72481.4701681","73231.1057304","73997.995012","75542.1064529","Mapping"
"Mixed","both","done","44","F_done.wav","None","721.786476672","307","67898.4016674","74764.6514862","75531.512633","76298.2992693","77064.7207717","63248.2837024","64014.7803342","64781.1468039","68648.1037019","69414.6943223","70181.1603457","70948.0425166","71714.9923961","72481.4701681","73231.1057304","73997.995012","76308.9876962","Mapping"
"Mixed","both","done","44","M_bluff.wav","space","398.300413042","307","67898.4016674","74764.6514862","75531.512633","76298.2992693","77064.7207717","77831.2826394","64014.7803342","64781.1468039","68648.1037019","69414.6943223","70181.1603457","70948.0425166","71714.9923961","72481.4701681","73231.1057304","73997.995012","77074.7107766","Mapping"
"Mixed","both","done","44","F_cling.wav","None","718.185536563","307","67898.4016674","74764.6514862","75531.512633","76298.2992693","77064.7207717","77831.2826394","78581.0137358","64781.1468039","68648.1037019","69414.6943223","70181.1603457","70948.0425166","71714.9923961","72481.4701681","73231.1057304","73997.995012","77842.2545777","Mapping"
"Mixed","both","done","44","M_dime.wav","None","738.603644073","307","67898.4016674","74764.6514862","75531.512633","76298.2992693","77064.7207717","77831.2826394","78581.0137358","79347.989277","68648.1037019","69414.6943223","70181.1603457","70948.0425166","71714.9923961","72481.4701681","73231.1057304","73997.995012","78585.4274924","Mapping"
"Mixed","both","tile","30","M_knife.wav","space","434.934036341","307","82481.3406249","74764.6514862","75531.512633","76298.2992693","77064.7207717","77831.2826394","78581.0137358","79347.989277","68648.1037019","69414.6943223","70181.1603457","70948.0425166","71714.9923961","72481.4701681","73231.1057304","73997.995012","79358.0284398","Mapping"
"Mixed","both","tile","30","M_depth.wav","None","722.224575467","307","82481.3406249","74764.6514862","75531.512633","76298.2992693","77064.7207717","77831.2826394","78581.0137358","79347.989277","83248.1318982","69414.6943223","70181.1603457","70948.0425166","71714.9923961","72481.4701681","73231.1057304","73997.995012","82491.8494215","Mapping"
"Mixed","both","tile","30","M_cling.wav","None","718.798008747","307","82481.3406249","74764.6514862","75531.512633","76298.2992693","77064.7207717","77831.2826394","78581.0137358","79347.989277","83248.1318982","83997.4722001","70181.1603457","70948.0425166","71714.9923961","72481.4701681","73231.1057304","73997.995012","83258.9195697","Mapping"
"Mixed","both","tile","30","F_tile.wav","None","734.409709461","307","82481.3406249","74764.6514862","75531.512633","76298.2992693","77064.7207717","77831.2826394","78581.0137358","79347.989277","83248.1318982","83997.4722001","84764.3611724","70948.0425166","71714.9923961","72481.4701681","73231.1057304","73997.995012","84006.8747755","Mapping"
"Mixed","both","tile","30","M_romp.wav","space","402.844331693","307","82481.3406249","74764.6514862","75531.512633","76298.2992693","77064.7207717","77831.2826394","78581.0137358","79347.989277","83248.1318982","83997.4722001","84764.3611724","85530.9904395","71714.9923961","72481.4701681","73231.1057304","73997.995012","84774.026236","Mapping"
"Mixed","both","tile","30","F_priest.wav","None","727.955409791","307","82481.3406249","74764.6514862","75531.512633","76298.2992693","77064.7207717","77831.2826394","78581.0137358","79347.989277","83248.1318982","83997.4722001","84764.3611724","85530.9904395","86297.4280193","72481.4701681","73231.1057304","73997.995012","85540.1917431","Mapping"
"Mixed","both","tile","30","M_tile.wav","None","725.379379001","307","82481.3406249","74764.6514862","75531.512633","76298.2992693","77064.7207717","77831.2826394","78581.0137358","79347.989277","83248.1318982","83997.4722001","84764.3611724","85530.9904395","86297.4280193","87064.6230732","73231.1057304","73997.995012","86306.8324495","Mapping"
"Mixed","both","tile","30","F_greet.wav","space","516.663971357","307","82481.3406249","74764.6514862","75531.512633","76298.2992693","77064.7207717","77831.2826394","78581.0137358","79347.989277","83248.1318982","83997.4722001","84764.3611724","85530.9904395","86297.4280193","87064.6230732","87814.3081032","73997.995012","87076.1672915","Mapping"
"Mixed","both","tile","30","M_tile.wav","None","734.872232657","307","82481.3406249","74764.6514862","75531.512633","76298.2992693","77064.7207717","77831.2826394","78581.0137358","79347.989277","83248.1318982","83997.4722001","84764.3611724","85530.9904395","86297.4280193","87064.6230732","87814.3081032","88580.8746079","87824.2291617","Mapping"
"Mixed","both","tile","30","F_reek.wav","space","473.990959581","307","82481.3406249","89348.1744714","75531.512633","76298.2992693","77064.7207717","77831.2826394","78581.0137358","79347.989277","83248.1318982","83997.4722001","84764.3611724","85530.9904395","86297.4280193","87064.6230732","87814.3081032","88580.8746079","88590.8074151","Mapping"
"Mixed","both","tile","30","F_reek.wav","None","727.636961266","307","82481.3406249","89348.1744714","90114.2905112","76298.2992693","77064.7207717","77831.2826394","78581.0137358","79347.989277","83248.1318982","83997.4722001","84764.3611724","85530.9904395","86297.4280193","87064.6230732","87814.3081032","88580.8746079","89358.1474717","Mapping"
"Mixed","both","tile","30","F_greet.wav","None","725.142861251","307","82481.3406249","89348.1744714","90114.2905112","90881.1841211","77064.7207717","77831.2826394","78581.0137358","79347.989277","83248.1318982","83997.4722001","84764.3611724","85530.9904395","86297.4280193","87064.6230732","87814.3081032","88580.8746079","90124.1976572","Mapping"
"Mixed","both","tile","30","F_bluff.wav","None","722.322892398","307","82481.3406249","89348.1744714","90114.2905112","90881.1841211","91648.0724756","77831.2826394","78581.0137358","79347.989277","83248.1318982","83997.4722001","84764.3611724","85530.9904395","86297.4280193","87064.6230732","87814.3081032","88580.8746079","90890.7245877","Mapping"
"Mixed","both","tile","30","F_tile.wav","None","718.144416809","307","82481.3406249","89348.1744714","90114.2905112","90881.1841211","91648.0724756","92397.7176216","78581.0137358","79347.989277","83248.1318982","83997.4722001","84764.3611724","85530.9904395","86297.4280193","87064.6230732","87814.3081032","88580.8746079","91658.6220833","Mapping"
"Mixed","both","tile","30","M_cling.wav","space","561.625175178","307","82481.3406249","89348.1744714","90114.2905112","90881.1841211","91648.0724756","92397.7176216","93164.2080699","79347.989277","83248.1318982","83997.4722001","84764.3611724","85530.9904395","86297.4280193","87064.6230732","87814.3081032","88580.8746079","92407.0750577","Mapping"
"Mixed","both","tile","30","M_depth.wav","None","729.093785863","307","82481.3406249","89348.1744714","90114.2905112","90881.1841211","91648.0724756","92397.7176216","93164.2080699","93931.0030537","83248.1318982","83997.4722001","84764.3611724","85530.9904395","86297.4280193","87064.6230732","87814.3081032","88580.8746079","93174.326072","Mapping"
"Mixed","both","ball","4","F_jolt.wav","None","726.346781943","307","97047.8213648","89348.1744714","90114.2905112","90881.1841211","91648.0724756","92397.7176216","93164.2080699","93931.0030537","83248.1318982","83997.4722001","84764.3611724","85530.9904395","86297.4280193","87064.6230732","87814.3081032","88580.8746079","93940.8121919","Mapping"
"Mixed","both","ball","4","F_reek.wav","None","719.755827449","307","97047.8213648","89348.1744714","90114.2905112","90881.1841211","91648.0724756","92397.7176216","93164.2080699","93931.0030537","97797.3957108","83997.4722001","84764.3611724","85530.9904395","86297.4280193","87064.6230732","87814.3081032","88580.8746079","97057.9572991","Mapping"
"Mixed","both","ball","4","F_ball.wav","None","734.231316485","307","97047.8213648","89348.1744714","90114.2905112","90881.1841211","91648.0724756","92397.7176216","93164.2080699","93931.0030537","97797.3957108","98564.0797014","84764.3611724","85530.9904395","86297.4280193","87064.6230732","87814.3081032","88580.8746079","97807.0459338","Mapping"
"Mixed","both","ball","4","F_lash.wav","space","442.883807234","307","97047.8213648","89348.1744714","90114.2905112","90881.1841211","91648.0724756","92397.7176216","93164.2080699","93931.0030537","97797.3957108","98564.0797014","99330.5556183","85530.9904395","86297.4280193","87064.6230732","87814.3081032","88580.8746079","98573.7667158","Mapping"
"Mixed","both","ball","4","M_bluff.wav","None","730.912033468","307","97047.8213648","89348.1744714","90114.2905112","90881.1841211","91648.0724756","92397.7176216","93164.2080699","93931.0030537","97797.3957108","98564.0797014","99330.5556183","100097.513227","86297.4280193","87064.6230732","87814.3081032","88580.8746079","99340.151736","Mapping"
"Mixed","both","ball","4","F_cad.wav","None","727.177838795","307","97047.8213648","89348.1744714","90114.2905112","90881.1841211","91648.0724756","92397.7176216","93164.2080699","93931.0030537","97797.3957108","98564.0797014","99330.5556183","100097.513227","100863.795911","87064.6230732","87814.3081032","88580.8746079","100107.485918","Mapping"
"Mixed","both","ball","4","M_ball.wav","None","724.796278402","307","97047.8213648","89348.1744714","90114.2905112","90881.1841211","91648.0724756","92397.7176216","93164.2080699","93931.0030537","97797.3957108","98564.0797014","99330.5556183","100097.513227","100863.795911","101630.556577","87814.3081032","88580.8746079","100873.538268","Mapping"
"Mixed","both","ball","4","M_reek.wav","space","424.843859859","307","97047.8213648","89348.1744714","90114.2905112","90881.1841211","91648.0724756","92397.7176216","93164.2080699","93931.0030537","97797.3957108","98564.0797014","99330.5556183","100097.513227","100863.795911","101630.556577","102397.589006","88580.8746079","101639.717379","Mapping"
"Mixed","both","ball","4","M_priest.wav","None","719.601240475","307","97047.8213648","89348.1744714","90114.2905112","90881.1841211","91648.0724756","92397.7176216","93164.2080699","93931.0030537","97797.3957108","98564.0797014","99330.5556183","100097.513227","100863.795911","101630.556577","102397.589006","103147.256722","102408.441294","Mapping"
"Mixed","both","ball","4","F_romp.wav","None","734.589030035","307","97047.8213648","103913.726146","90114.2905112","90881.1841211","91648.0724756","92397.7176216","93164.2080699","93931.0030537","97797.3957108","98564.0797014","99330.5556183","100097.513227","100863.795911","101630.556577","102397.589006","103147.256722","103157.133878","Mapping"
"Mixed","both","ball","4","F_ball.wav","None","732.497782446","307","97047.8213648","103913.726146","104680.523604","90881.1841211","91648.0724756","92397.7176216","93164.2080699","93931.0030537","97797.3957108","98564.0797014","99330.5556183","100097.513227","100863.795911","101630.556577","102397.589006","103147.256722","103922.95342","Mapping"
"Mixed","both","ball","4","M_park.wav","space","374.475835823","307","97047.8213648","103913.726146","104680.523604","105447.393407","91648.0724756","92397.7176216","93164.2080699","93931.0030537","97797.3957108","98564.0797014","99330.5556183","100097.513227","100863.795911","101630.556577","102397.589006","103147.256722","104690.032844","Mapping"
"Mixed","both","ball","4","M_knife.wav","None","725.848085713","307","97047.8213648","103913.726146","104680.523604","105447.393407","106214.318244","92397.7176216","93164.2080699","93931.0030537","97797.3957108","98564.0797014","99330.5556183","100097.513227","100863.795911","101630.556577","102397.589006","103147.256722","105456.34459","Mapping"
"Mixed","both","ball","4","M_cad.wav","None","721.338176169","307","97047.8213648","103913.726146","104680.523604","105447.393407","106214.318244","106964.328833","93164.2080699","93931.0030537","97797.3957108","98564.0797014","99330.5556183","100097.513227","100863.795911","101630.556577","102397.589006","103147.256722","106224.542601","Mapping"
"Mixed","both","ball","4","M_ball.wav","None","735.565090086","307","97047.8213648","103913.726146","104680.523604","105447.393407","106214.318244","106964.328833","107730.442708","93931.0030537","97797.3957108","98564.0797014","99330.5556183","100097.513227","100863.795911","101630.556577","102397.589006","103147.256722","106973.897744","Mapping"
"Mixed","both","ball","4","F_cling.wav","space","436.662005261","307","97047.8213648","103913.726146","104680.523604","105447.393407","106214.318244","106964.328833","107730.442708","108497.247895","97797.3957108","98564.0797014","99330.5556183","100097.513227","100863.795911","101630.556577","102397.589006","103147.256722","107739.81684","Mapping"
"Mixed","both","ball","3","M_priest.wav","None","729.287018999","307","111630.888629","103913.726146","104680.523604","105447.393407","106214.318244","106964.328833","107730.442708","108497.247895","97797.3957108","98564.0797014","99330.5556183","100097.513227","100863.795911","101630.556577","102397.589006","103147.256722","108506.97974","Mapping"
"Mixed","both","ball","3","F_ball.wav","None","719.081829768","307","111630.888629","103913.726146","104680.523604","105447.393407","106214.318244","106964.328833","107730.442708","108497.247895","112380.277471","98564.0797014","99330.5556183","100097.513227","100863.795911","101630.556577","102397.589006","103147.256722","111641.381967","Mapping"
"Mixed","both","ball","3","M_gnash.wav","space","425.987182185","307","111630.888629","103913.726146","104680.523604","105447.393407","106214.318244","106964.328833","107730.442708","108497.247895","112380.277471","113147.163042","99330.5556183","100097.513227","100863.795911","101630.556577","102397.589006","103147.256722","112390.396091","Mapping"
"Mixed","both","ball","3","M_cad.wav","None","733.646670356","307","111630.888629","103913.726146","104680.523604","105447.393407","106214.318244","106964.328833","107730.442708","108497.247895","112380.277471","113147.163042","113913.913196","100097.513227","100863.795911","101630.556577","102397.589006","103147.256722","113157.186128","Mapping"
"Mixed","both","ball","3","M_dime.wav","None","730.547518004","307","111630.888629","103913.726146","104680.523604","105447.393407","106214.318244","106964.328833","107730.442708","108497.247895","112380.277471","113147.163042","113913.913196","114680.52113","100863.795911","101630.556577","102397.589006","103147.256722","113923.88094","Mapping"
"Mixed","both","ball","3","M_ball.wav","None","727.307073772","307","111630.888629","103913.726146","104680.523604","105447.393407","106214.318244","106964.328833","107730.442708","108497.247895","112380.277471","113147.163042","113913.913196","114680.52113","115447.20543","101630.556577","102397.589006","103147.256722","114690.90193","Mapping"
"Mixed","both","ball","3","F_romp.wav","space","406.996218488","307","111630.888629","103913.726146","104680.523604","105447.393407","106214.318244","106964.328833","107730.442708","108497.247895","112380.277471","113147.163042","113913.913196","114680.52113","115447.20543","116214.177261","102397.589006","103147.256722","115457.304263","Mapping"
"Mixed","both","ball","3","F_priest.wav","None","720.051706303","307","111630.888629","103913.726146","104680.523604","105447.393407","106214.318244","106964.328833","107730.442708","108497.247895","112380.277471","113147.163042","113913.913196","114680.52113","115447.20543","116214.177261","116963.268987","103147.256722","116224.705845","Mapping"
"Mixed","both","ball","3","M_lash.wav","None","735.815210734","307","111630.888629","103913.726146","104680.523604","105447.393407","106214.318244","106964.328833","107730.442708","108497.247895","112380.277471","113147.163042","113913.913196","114680.52113","115447.20543","116214.177261","116963.268987","117730.380564","116972.760295","Mapping"
"Mixed","both","ball","3","F_ball.wav","None","732.691015583","307","111630.888629","118497.068575","104680.523604","105447.393407","106214.318244","106964.328833","107730.442708","108497.247895","112380.277471","113147.163042","113913.913196","114680.52113","115447.20543","116214.177261","116963.268987","117730.380564","117739.657307","Mapping"
"Mixed","both","ball","3","M_cad.wav","space","453.521838412","307","111630.888629","118497.068575","119263.762459","105447.393407","106214.318244","106964.328833","107730.442708","108497.247895","112380.277471","113147.163042","113913.913196","114680.52113","115447.20543","116214.177261","116963.268987","117730.380564","118506.738894","Mapping"
"Mixed","both","ball","3","F_cad.wav","None","725.121219177","307","111630.888629","118497.068575","119263.762459","120030.804163","106214.318244","106964.328833","107730.442708","108497.247895","112380.277471","113147.163042","113913.913196","114680.52113","115447.20543","116214.177261","116963.268987","117730.380564","119274.001347","Mapping"
"Mixed","both","ball","3","M_ball.wav","None","721.651368309","307","111630.888629","118497.068575","119263.762459","120030.804163","120797.517525","106964.328833","107730.442708","108497.247895","112380.277471","113147.163042","113913.913196","114680.52113","115447.20543","116214.177261","116963.268987","117730.380564","120041.187745","Mapping"
"Mixed","both","ball","3","F_gnash.wav","space","432.149931323","307","111630.888629","118497.068575","119263.762459","120030.804163","120797.517525","121546.960472","107730.442708","108497.247895","112380.277471","113147.163042","113913.913196","114680.52113","115447.20543","116214.177261","116963.268987","117730.380564","120808.109181","Mapping"
"Mixed","both","ball","3","F_cling.wav","None","732.917639427","307","111630.888629","118497.068575","119263.762459","120030.804163","120797.517525","121546.960472","122313.72021","108497.247895","112380.277471","113147.163042","113913.913196","114680.52113","115447.20543","116214.177261","116963.268987","117730.380564","121556.847213","Mapping"
"Mixed","both","ball","3","F_park.wav","None","729.190865532","307","111630.888629","118497.068575","119263.762459","120030.804163","120797.517525","121546.960472","122313.72021","123080.259817","112380.277471","113147.163042","113913.913196","114680.52113","115447.20543","116214.177261","116963.268987","117730.380564","122324.360715","Mapping"
"Mixed","both","cave","15","F_romp.wav","None","729.885578156","307","126214.09533","118497.068575","119263.762459","120030.804163","120797.517525","121546.960472","122313.72021","123080.259817","112380.277471","113147.163042","113913.913196","114680.52113","115447.20543","116214.177261","116963.268987","117730.380564","123090.60197","Mapping"
"Mixed","both","cave","15","M_romp.wav","None","719.019686338","307","126214.09533","118497.068575","119263.762459","120030.804163","120797.517525","121546.960472","122313.72021","123080.259817","126963.241471","113147.163042","113913.913196","114680.52113","115447.20543","116214.177261","116963.268987","117730.380564","126224.191381","Mapping"
"Mixed","both","cave","15","M_cave.wav","None","734.76804141","307","126214.09533","118497.068575","119263.762459","120030.804163","120797.517525","121546.960472","122313.72021","123080.259817","126963.241471","127730.038928","113913.913196","114680.52113","115447.20543","116214.177261","116963.268987","117730.380564","126972.802343","Mapping"
"Mixed","both","cave","15","M_romp.wav","space","540.997139178","307","126214.09533","118497.068575","119263.762459","120030.804163","120797.517525","121546.960472","122313.72021","123080.259817","126963.241471","127730.038928","128496.943668","114680.52113","115447.20543","116214.177261","116963.268987","117730.380564","127739.132021","Mapping"
"Mixed","both","cave","15","F_depth.wav","None","727.522876579","307","126214.09533","118497.068575","119263.762459","120030.804163","120797.517525","121546.960472","122313.72021","123080.259817","126963.241471","127730.038928","128496.943668","129263.648374","115447.20543","116214.177261","116963.268987","117730.380564","128506.821752","Mapping"
"Mixed","both","cave","15","M_reek.wav","None","724.648802541","307","126214.09533","118497.068575","119263.762459","120030.804163","120797.517525","121546.960472","122313.72021","123080.259817","126963.241471","127730.038928","128496.943668","129263.648374","130030.58836","116214.177261","116963.268987","117730.380564","129273.40217","Mapping"
"Mixed","both","cave","15","F_cave.wav","None","720.708698966","307","126214.09533","118497.068575","119263.762459","120030.804163","120797.517525","121546.960472","122313.72021","123080.259817","126963.241471","127730.038928","128496.943668","129263.648374","130030.58836","130797.39231","116963.268987","117730.380564","130041.112616","Mapping"
"Mixed","both","cave","15","M_priest.wav","space","520.419189241","307","126214.09533","118497.068575","119263.762459","120030.804163","120797.517525","121546.960472","122313.72021","123080.259817","126963.241471","127730.038928","128496.943668","129263.648374","130030.58836","130797.39231","131546.786098","117730.380564","130807.647276","Mapping"
"Mixed","both","cave","15","F_priest.wav","None","732.975455001","307","126214.09533","118497.068575","119263.762459","120030.804163","120797.517525","121546.960472","122313.72021","123080.259817","126963.241471","127730.038928","128496.943668","129263.648374","130030.58836","130797.39231","131546.786098","132313.523576","131556.521035","Mapping"
"Mixed","both","cave","15","M_reek.wav","None","729.855588172","307","126214.09533","133079.918181","119263.762459","120030.804163","120797.517525","121546.960472","122313.72021","123080.259817","126963.241471","127730.038928","128496.943668","129263.648374","130030.58836","130797.39231","131546.786098","132313.523576","132323.454529","Mapping"
"Mixed","both","cave","15","F_cave.wav","None","728.198729455","307","126214.09533","133079.918181","133846.934532","120030.804163","120797.517525","121546.960472","122313.72021","123080.259817","126963.241471","127730.038928","128496.943668","129263.648374","130030.58836","130797.39231","131546.786098","132313.523576","133089.15071","Mapping"
"Mixed","both","cave","15","M_jaw.wav","space","415.210332256","307","126214.09533","133079.918181","133846.934532","134613.823814","120797.517525","121546.960472","122313.72021","123080.259817","126963.241471","127730.038928","128496.943668","129263.648374","130030.58836","130797.39231","131546.786098","132313.523576","133856.798394","Mapping"
"Mixed","both","cave","15","F_park.wav","None","719.382036943","307","126214.09533","133079.918181","133846.934532","134613.823814","135363.364151","121546.960472","122313.72021","123080.259817","126963.241471","127730.038928","128496.943668","129263.648374","130030.58836","130797.39231","131546.786098","132313.523576","134624.693107","Mapping"
"Mixed","both","cave","15","F_dime.wav","None","735.107822809","307","126214.09533","133079.918181","133846.934532","134613.823814","135363.364151","136130.030828","122313.72021","123080.259817","126963.241471","127730.038928","128496.943668","129263.648374","130030.58836","130797.39231","131546.786098","132313.523576","135373.383527","Mapping"
"Mixed","both","cave","15","M_cave.wav","None","732.327427715","307","126214.09533","133079.918181","133846.934532","134613.823814","135363.364151","136130.030828","136896.870024","123080.259817","126963.241471","127730.038928","128496.943668","129263.648374","130030.58836","130797.39231","131546.786098","132313.523576","136139.981258","Mapping"
"Mixed","both","cave","15","F_jolt.wav","space","525.320821442","307","126214.09533","133079.918181","133846.934532","134613.823814","135363.364151","136130.030828","136896.870024","137663.183934","126963.241471","127730.038928","128496.943668","129263.648374","130030.58836","130797.39231","131546.786098","132313.523576","136906.643916","Mapping"
"Mixed","both","tile","29","M_lash.wav","None","726.214146242","307","140780.119112","133079.918181","133846.934532","134613.823814","135363.364151","136130.030828","136896.870024","137663.183934","126963.241471","127730.038928","128496.943668","129263.648374","130030.58836","130797.39231","131546.786098","132313.523576","137672.768612","Mapping"
"Mixed","both","tile","29","M_greet.wav","None","719.460257795","307","140780.119112","133079.918181","133846.934532","134613.823814","135363.364151","136130.030828","136896.870024","137663.183934","141529.847426","127730.038928","128496.943668","129263.648374","130030.58836","130797.39231","131546.786098","132313.523576","140790.561746","Mapping"
"Mixed","both","tile","29","F_jolt.wav","None","733.844231814","307","140780.119112","133079.918181","133846.934532","134613.823814","135363.364151","136130.030828","136896.870024","137663.183934","141529.847426","142296.775355","128496.943668","129263.648374","130030.58836","130797.39231","131546.786098","132313.523576","141540.199473","Mapping"
"Mixed","both","tile","29","M_tile.wav","None","731.660231948","307","140780.119112","133079.918181","133846.934532","134613.823814","135363.364151","136130.030828","136896.870024","137663.183934","141529.847426","142296.775355","143063.312179","129263.648374","130030.58836","130797.39231","131546.786098","132313.523576","142306.358487","Mapping"
"Mixed","both","tile","29","M_depth.wav","space","430.447005667","307","140780.119112","133079.918181","133846.934532","134613.823814","135363.364151","136130.030828","136896.870024","137663.183934","141529.847426","142296.775355","143063.312179","143829.901563","130030.58836","130797.39231","131546.786098","132313.523576","143073.37824","Mapping"
"Mixed","both","tile","29","M_jaw.wav","None","725.418025162","307","140780.119112","133079.918181","133846.934532","134613.823814","135363.364151","136130.030828","136896.870024","137663.183934","141529.847426","142296.775355","143063.312179","143829.901563","144597.112384","130797.39231","131546.786098","132313.523576","143839.838699","Mapping"
"Mixed","both","tile","29","F_cad.wav","None","721.833471209","307","140780.119112","133079.918181","133846.934532","134613.823814","135363.364151","136130.030828","136896.870024","137663.183934","141529.847426","142296.775355","143063.312179","143829.901563","144597.112384","145363.451338","131546.786098","132313.523576","144607.311081","Mapping"
"Mixed","both","tile","29","F_tile.wav","None","719.204262365","307","140780.119112","133079.918181","133846.934532","134613.823814","135363.364151","136130.030828","136896.870024","137663.183934","141529.847426","142296.775355","143063.312179","143829.901563","144597.112384","145363.451338","146113.161101","132313.523576","145374.341036","Mapping"
"Mixed","both","tile","29","M_bluff.wav","space","484.557571355","307","140780.119112","133079.918181","133846.934532","134613.823814","135363.364151","136130.030828","136896.870024","137663.183934","141529.847426","142296.775355","143063.312179","143829.901563","144597.112384","145363.451338","146113.161101","146879.810465","146123.240457","Mapping"
"Mixed","both","tile","29","F_tile.wav","None","730.984379537","307","140780.119112","147646.551343","133846.934532","134613.823814","135363.364151","136130.030828","136896.870024","137663.183934","141529.847426","142296.775355","143063.312179","143829.901563","144597.112384","145363.451338","146113.161101","146879.810465","146889.727195","Mapping"
"Mixed","both","tile","29","F_jaw.wav","space","527.433401439","307","140780.119112","147646.551343","148413.253884","134613.823814","135363.364151","136130.030828","136896.870024","137663.183934","141529.847426","142296.775355","143063.312179","143829.901563","144597.112384","145363.451338","146113.161101","146879.810465","147656.294937","Mapping"
"Mixed","both","tile","29","F_bluff.wav","None","724.666734692","307","140780.119112","147646.551343","148413.253884","149179.56563","135363.364151","136130.030828","136896.870024","137663.183934","141529.847426","142296.775355","143063.312179","143829.901563","144597.112384","145363.451338","146113.161101","146879.810465","148423.127021","Mapping"
"Mixed","both","tile","29","M_tile.wav","None","726.058941334","307","140780.119112","147646.551343","148413.253884","149179.56563","149947.002149","136130.030828","136896.870024","137663.183934","141529.847426","142296.775355","143063.312179","143829.901563","144597.112384","145363.451338","146113.161101","146879.810465","149188.671399","Mapping"
"Mixed","both","tile","29","M_cling.wav","space","434.666292276","307","140780.119112","147646.551343","148413.253884","149179.56563","149947.002149","150696.677285","136896.870024","137663.183934","141529.847426","142296.775355","143063.312179","143829.901563","144597.112384","145363.451338","146113.161101","146879.810465","149957.041621","Mapping"
"Mixed","both","tile","29","F_knife.wav","None","735.545611475","307","140780.119112","147646.551343","148413.253884","149179.56563","149947.002149","150696.677285","151480.160511","137663.183934","141529.847426","142296.775355","143063.312179","143829.901563","144597.112384","145363.451338","146113.161101","146879.810465","150706.299373","Mapping"
"Mixed","both","tile","29","F_cling.wav","None","718.672175426","307","140780.119112","147646.551343","148413.253884","149179.56563","149947.002149","150696.677285","151480.160511","152229.724963","141529.847426","142296.775355","143063.312179","143829.901563","144597.112384","145363.451338","146113.161101","146879.810465","151490.149278","Mapping"
"Mixed","both","ball","9","M_gnash.wav","None","732.445841189","307","155363.424749","147646.551343","148413.253884","149179.56563","149947.002149","150696.677285","151480.160511","152229.724963","141529.847426","142296.775355","143063.312179","143829.901563","144597.112384","145363.451338","146113.161101","146879.810465","152240.258803","Mapping"
"Mixed","both","ball","9","F_jolt.wav","None","724.71001884","307","155363.424749","147646.551343","148413.253884","149179.56563","149947.002149","150696.677285","151480.160511","152229.724963","156112.642309","142296.775355","143063.312179","143829.901563","144597.112384","145363.451338","146113.161101","146879.810465","155367.994638","Mapping"
"Mixed","both","ball","9","M_priest.wav","None","734.629531391","307","155363.424749","147646.551343","148413.253884","149179.56563","149947.002149","150696.677285","151480.160511","152229.724963","156112.642309","156879.694525","143063.312179","143829.901563","144597.112384","145363.451338","146113.161101","146879.810465","156122.074874","Mapping"
"Mixed","both","ball","9","F_ball.wav","None","731.707535684","307","155363.424749","147646.551343","148413.253884","149179.56563","149947.002149","150696.677285","151480.160511","152229.724963","156112.642309","156879.694525","157646.42922","143829.901563","144597.112384","145363.451338","146113.161101","146879.810465","156889.054125","Mapping"
"Mixed","both","ball","9","F_dime.wav","space","375.715310685","307","155363.424749","147646.551343","148413.253884","149179.56563","149947.002149","150696.677285","151480.160511","152229.724963","156112.642309","156879.694525","157646.42922","158412.987068","144597.112384","145363.451338","146113.161101","146879.810465","157655.825612","Mapping"
"Mixed","both","ball","9","M_cling.wav","None","725.053819362","307","155363.424749","147646.551343","148413.253884","149179.56563","149947.002149","150696.677285","151480.160511","152229.724963","156112.642309","156879.694525","157646.42922","158412.987068","159179.897991","145363.451338","146113.161101","146879.810465","158422.614721","Mapping"
"Mixed","both","ball","9","M_ball.wav","None","720.005948562","307","155363.424749","147646.551343","148413.253884","149179.56563","149947.002149","150696.677285","151480.160511","152229.724963","156112.642309","156879.694525","157646.42922","158412.987068","159179.897991","159946.825611","146113.161101","146879.810465","159191.562169","Mapping"
"Mixed","both","ball","9","F_cad.wav","space","449.902656488","307","155363.424749","147646.551343","148413.253884","149179.56563","149947.002149","150696.677285","151480.160511","152229.724963","156112.642309","156879.694525","157646.42922","158412.987068","159179.897991","159946.825611","160696.019674","146879.810465","159957.605244","Mapping"
"Mixed","both","ball","9","F_greet.wav","None","733.263604343","307","155363.424749","147646.551343","148413.253884","149179.56563","149947.002149","150696.677285","151480.160511","152229.724963","156112.642309","156879.694525","157646.42922","158412.987068","159179.897991","159946.825611","160696.019674","161463.06787","160705.373399","Mapping"
"Mixed","both","ball","9","F_romp.wav","None","729.810449295","307","155363.424749","162229.544097","148413.253884","149179.56563","149947.002149","150696.677285","151480.160511","152229.724963","156112.642309","156879.694525","157646.42922","158412.987068","159179.897991","159946.825611","160696.019674","161463.06787","161472.86866","Mapping"
"Mixed","both","ball","9","F_ball.wav","None","727.263480425","307","155363.424749","162229.544097","162996.233652","149179.56563","149947.002149","150696.677285","151480.160511","152229.724963","156112.642309","156879.694525","157646.42922","158412.987068","159179.897991","159946.825611","160696.019674","161463.06787","162239.398374","Mapping"
"Mixed","both","ball","9","M_knife.wav","space","384.619807824","307","155363.424749","162229.544097","162996.233652","163763.292361","149947.002149","150696.677285","151480.160511","152229.724963","156112.642309","156879.694525","157646.42922","158412.987068","159179.897991","159946.825611","160696.019674","161463.06787","163006.843549","Mapping"
"Mixed","both","ball","9","M_knife.wav","None","720.684583299","307","155363.424749","162229.544097","162996.233652","163763.292361","164512.552587","150696.677285","151480.160511","152229.724963","156112.642309","156879.694525","157646.42922","158412.987068","159179.897991","159946.825611","160696.019674","161463.06787","163773.049249","Mapping"
"Mixed","both","ball","9","F_priest.wav","None","735.462443903","307","155363.424749","162229.544097","162996.233652","163763.292361","164512.552587","165279.338604","151480.160511","152229.724963","156112.642309","156879.694525","157646.42922","158412.987068","159179.897991","159946.825611","160696.019674","161463.06787","164522.276393","Mapping"
"Mixed","both","ball","9","M_ball.wav","None","733.312762808","307","155363.424749","162229.544097","162996.233652","163763.292361","164512.552587","165279.338604","166046.382782","152229.724963","156112.642309","156879.694525","157646.42922","158412.987068","159179.897991","159946.825611","160696.019674","161463.06787","165288.443446","Mapping"
"Mixed","both","ball","9","M_cling.wav","space","567.28273537","307","155363.424749","162229.544097","162996.233652","163763.292361","164512.552587","165279.338604","166046.382782","166812.934137","156112.642309","156879.694525","157646.42922","158412.987068","159179.897991","159946.825611","160696.019674","161463.06787","166056.130704","Mapping"
"Mixed","both","ball","6","F_romp.wav","None","726.332868915","307","169929.757395","162229.544097","162996.233652","163763.292361","164512.552587","165279.338604","166046.382782","166812.934137","156112.642309","156879.694525","157646.42922","158412.987068","159179.897991","159946.825611","160696.019674","161463.06787","166822.428228","Mapping"
"Mixed","both","ball","6","M_bluff.wav","None","719.958644826","307","169929.757395","162229.544097","162996.233652","163763.292361","164512.552587","165279.338604","166046.382782","166812.934137","170679.256612","156879.694525","157646.42922","158412.987068","159179.897991","159946.825611","160696.019674","161463.06787","169939.447192","Mapping"
"Mixed","both","ball","6","F_jolt.wav","None","735.06484786","307","169929.757395","162229.544097","162996.233652","163763.292361","164512.552587","165279.338604","166046.382782","166812.934137","170679.256612","171446.251322","157646.42922","158412.987068","159179.897991","159946.825611","160696.019674","161463.06787","170688.465335","Mapping"
"Mixed","both","ball","6","M_ball.wav","None","731.455559377","307","169929.757395","162229.544097","162996.233652","163763.292361","164512.552587","165279.338604","166046.382782","166812.934137","170679.256612","171446.251322","172212.821845","158412.987068","159179.897991","159946.825611","160696.019674","161463.06787","171456.214737","Mapping"
"Mixed","both","ball","6","F_cad.wav","space","320.84541535","307","169929.757395","162229.544097","162996.233652","163763.292361","164512.552587","165279.338604","166046.382782","166812.934137","170679.256612","171446.251322","172212.821845","172979.357124","159179.897991","159946.825611","160696.019674","161463.06787","172222.44919","Mapping"
"Mixed","both","ball","6","M_ball.wav","None","725.268694572","307","169929.757395","162229.544097","162996.233652","163763.292361","164512.552587","165279.338604","166046.382782","166812.934137","170679.256612","171446.251322","172212.821845","172979.357124","173746.262174","159946.825611","160696.019674","161463.06787","172989.291168","Mapping"
"Mixed","both","ball","6","F_cad.wav","space","467.708868906","307","169929.757395","162229.544097","162996.233652","163763.292361","164512.552587","165279.338604","166046.382782","166812.934137","170679.256612","171446.251322","172212.821845","172979.357124","173746.262174","174513.192266","160696.019674","161463.06787","173755.595803","Mapping"
"Mixed","both","ball","6","F_reek.wav","None","718.180280644","307","169929.757395","162229.544097","162996.233652","163763.292361","164512.552587","165279.338604","166046.382782","166812.934137","170679.256612","171446.251322","172212.821845","172979.357124","173746.262174","174513.192266","175262.34119","161463.06787","174523.588833","Mapping"
"Mixed","both","ball","6","M_bluff.wav","None","735.223762225","307","169929.757395","162229.544097","162996.233652","163763.292361","164512.552587","165279.338604","166046.382782","166812.934137","170679.256612","171446.251322","172212.821845","172979.357124","173746.262174","174513.192266","175262.34119","176029.243457","175270.686083","Mapping"
"Mixed","both","ball","6","F_ball.wav","None","731.203892734","307","169929.757395","176796.099657","162996.233652","163763.292361","164512.552587","165279.338604","166046.382782","166812.934137","170679.256612","171446.251322","172212.821845","172979.357124","173746.262174","174513.192266","175262.34119","176029.243457","176038.746513","Mapping"
"Mixed","both","ball","6","M_cling.wav","space","416.955924127","307","169929.757395","176796.099657","177562.733561","163763.292361","164512.552587","165279.338604","166046.382782","166812.934137","170679.256612","171446.251322","172212.821845","172979.357124","173746.262174","174513.192266","175262.34119","176029.243457","176806.249813","Mapping"
"Mixed","both","ball","6","M_park.wav","None","725.156155415","307","169929.757395","176796.099657","177562.733561","178329.479077","164512.552587","165279.338604","166046.382782","166812.934137","170679.256612","171446.251322","172212.821845","172979.357124","173746.262174","174513.192266","175262.34119","176029.243457","177572.524458","Mapping"
"Mixed","both","ball","6","M_cad.wav","None","721.453497186","307","169929.757395","176796.099657","177562.733561","178329.479077","179096.455237","165279.338604","166046.382782","166812.934137","170679.256612","171446.251322","172212.821845","172979.357124","173746.262174","174513.192266","175262.34119","176029.243457","178340.322091","Mapping"
"Mixed","both","ball","6","F_ball.wav","None","718.942701817","307","169929.757395","176796.099657","177562.733561","178329.479077","179096.455237","179845.883962","166046.382782","166812.934137","170679.256612","171446.251322","172212.821845","172979.357124","173746.262174","174513.192266","175262.34119","176029.243457","179106.911784","Mapping"
"Mixed","both","ball","6","M_cad.wav","space","367.067118175","307","169929.757395","176796.099657","177562.733561","178329.479077","179096.455237","179845.883962","180612.846208","166812.934137","170679.256612","171446.251322","172212.821845","172979.357124","173746.262174","174513.192266","175262.34119","176029.243457","179856.076784","Mapping"
"Mixed","both","ball","6","F_dime.wav","None","729.987914674","307","169929.757395","176796.099657","177562.733561","178329.479077","179096.455237","179845.883962","180612.846208","181379.264619","170679.256612","171446.251322","172212.821845","172979.357124","173746.262174","174513.192266","175262.34119","176029.243457","180623.137657","Mapping"
"Mixed","both","tile","33","F_bluff.wav","None","728.205221705","307","184513.039225","176796.099657","177562.733561","178329.479077","179096.455237","179845.883962","180612.846208","181379.264619","170679.256612","171446.251322","172212.821845","172979.357124","173746.262174","174513.192266","175262.34119","176029.243457","181389.0617","Mapping"
"Mixed","both","tile","33","F_tile.wav","None","719.292067457","307","184513.039225","176796.099657","177562.733561","178329.479077","179096.455237","179845.883962","180612.846208","181379.264619","185262.510616","171446.251322","172212.821845","172979.357124","173746.262174","174513.192266","175262.34119","176029.243457","184523.093229","Mapping"
"Mixed","both","tile","33","M_jolt.wav","space","572.935349308","307","184513.039225","176796.099657","177562.733561","178329.479077","179096.455237","179845.883962","180612.846208","181379.264619","185262.510616","186029.351667","172212.821845","172979.357124","173746.262174","174513.192266","175262.34119","176029.243457","185274.113887","Mapping"
"Mixed","both","tile","33","M_priest.wav","None","730.388293974","307","184513.039225","176796.099657","177562.733561","178329.479077","179096.455237","179845.883962","180612.846208","181379.264619","185262.510616","186029.351667","186795.867776","172979.357124","173746.262174","174513.192266","175262.34119","176029.243457","186039.219548","Mapping"
"Mixed","both","tile","33","F_dime.wav","None","728.156681638","307","184513.039225","176796.099657","177562.733561","178329.479077","179096.455237","179845.883962","180612.846208","181379.264619","185262.510616","186029.351667","186795.867776","187562.339675","173746.262174","174513.192266","175262.34119","176029.243457","186805.684644","Mapping"
"Mixed","both","tile","33","M_tile.wav","None","726.703876629","307","184513.039225","176796.099657","177562.733561","178329.479077","179096.455237","179845.883962","180612.846208","181379.264619","185262.510616","186029.351667","186795.867776","187562.339675","188329.296047","174513.192266","175262.34119","176029.243457","187571.756472","Mapping"
"Mixed","both","tile","33","F_depth.wav","space","459.15775653","307","184513.039225","176796.099657","177562.733561","178329.479077","179096.455237","179845.883962","180612.846208","181379.264619","185262.510616","186029.351667","186795.867776","187562.339675","188329.296047","189096.134006","175262.34119","176029.243457","188339.845655","Mapping"
"Mixed","both","tile","33","F_tile.wav","None","719.577434007","307","184513.039225","176796.099657","177562.733561","178329.479077","179096.455237","179845.883962","180612.846208","181379.264619","185262.510616","186029.351667","186795.867776","187562.339675","188329.296047","189096.134006","189845.685782","176029.243457","189106.290964","Mapping"
"Mixed","both","tile","33","F_dime.wav","space","719.199006446","307","184513.039225","176796.099657","177562.733561","178329.479077","179096.455237","179845.883962","180612.846208","181379.264619","185262.510616","186029.351667","186795.867776","187562.339675","188329.296047","189096.134006","189845.685782","190612.489423","189855.741331","Mapping"
"Mixed","both","tile","33","M_depth.wav","None","729.716151021","307","184513.039225","191378.999349","177562.733561","178329.479077","179096.455237","179845.883962","180612.846208","181379.264619","185262.510616","186029.351667","186795.867776","187562.339675","188329.296047","189096.134006","189845.685782","190612.489423","190623.440337","Mapping"
"Mixed","both","tile","33","M_tile.wav","None","728.511303198","307","184513.039225","191378.999349","192145.871626","178329.479077","179096.455237","179845.883962","180612.846208","181379.264619","185262.510616","186029.351667","186795.867776","187562.339675","188329.296047","189096.134006","189845.685782","190612.489423","191388.873413","Mapping"
"Mixed","both","tile","33","F_cad.wav","space","443.15402396","307","184513.039225","191378.999349","192145.871626","192912.77111","179096.455237","179845.883962","180612.846208","181379.264619","185262.510616","186029.351667","186795.867776","187562.339675","188329.296047","189096.134006","189845.685782","190612.489423","192155.782173","Mapping"
"Mixed","both","tile","33","M_reek.wav","None","721.779984422","307","184513.039225","191378.999349","192145.871626","192912.77111","193679.297732","179845.883962","180612.846208","181379.264619","185262.510616","186029.351667","186795.867776","187562.339675","188329.296047","189096.134006","189845.685782","190612.489423","192922.911991","Mapping"
"Mixed","both","tile","33","M_jaw.wav","None","718.948266935","307","184513.039225","191378.999349","192145.871626","192912.77111","193679.297732","194428.868677","180612.846208","181379.264619","185262.510616","186029.351667","186795.867776","187562.339675","188329.296047","189096.134006","189845.685782","190612.489423","193689.936073","Mapping"
"Mixed","both","tile","33","F_knife.wav","None","734.844097868","307","184513.039225","191378.999349","192145.871626","192912.77111","193679.297732","194428.868677","195195.328826","181379.264619","185262.510616","186029.351667","186795.867776","187562.339675","188329.296047","189096.134006","189845.685782","190612.489423","194438.323193","Mapping"
"Mixed","both","tile","33","M_knife.wav","None","732.811902184","307","184513.039225","191378.999349","192145.871626","192912.77111","193679.297732","194428.868677","195195.328826","195962.361255","185262.510616","186029.351667","186795.867776","187562.339675","188329.296047","189096.134006","189845.685782","190612.489423","195204.630302","Mapping"
"Mixed","both","cave","14","F_knife.wav","None","729.788497556","307","199096.220265","191378.999349","192145.871626","192912.77111","193679.297732","194428.868677","195195.328826","195962.361255","185262.510616","186029.351667","186795.867776","187562.339675","188329.296047","189096.134006","189845.685782","190612.489423","195971.932639","Mapping"
"Mixed","both","cave","14","F_cad.wav","None","718.407522887","307","199096.220265","191378.999349","192145.871626","192912.77111","193679.297732","194428.868677","195195.328826","195962.361255","199845.665686","186029.351667","186795.867776","187562.339675","188329.296047","189096.134006","189845.685782","190612.489423","199106.311678","Mapping"
"Mixed","both","cave","14","M_jaw.wav","None","733.613279182","307","199096.220265","191378.999349","192145.871626","192912.77111","193679.297732","194428.868677","195195.328826","195962.361255","199845.665686","200612.392342","186795.867776","187562.339675","188329.296047","189096.134006","189845.685782","190612.489423","199855.283136","Mapping"
"Mixed","both","cave","14","M_cave.wav","None","730.627903249","307","199096.220265","191378.999349","192145.871626","192912.77111","193679.297732","194428.868677","195195.328826","195962.361255","199845.665686","200612.392342","201378.822502","187562.339675","188329.296047","189096.134006","189845.685782","190612.489423","200622.425631","Mapping"
"Mixed","both","cave","14","F_jolt.wav","space","442.416337319","307","199096.220265","191378.999349","192145.871626","192912.77111","193679.297732","194428.868677","195195.328826","195962.361255","199845.665686","200612.392342","201378.822502","202145.693542","188329.296047","189096.134006","189845.685782","190612.489423","201388.348746","Mapping"
"Mixed","both","cave","14","M_bluff.wav","None","724.73444324","307","199096.220265","191378.999349","192145.871626","192912.77111","193679.297732","194428.868677","195195.328826","195962.361255","199845.665686","200612.392342","201378.822502","202145.693542","202912.293129","189096.134006","189845.685782","190612.489423","202155.531124","Mapping"
"Mixed","both","cave","14","M_cave.wav","None","722.504376899","307","199096.220265","191378.999349","192145.871626","192912.77111","193679.297732","194428.868677","195195.328826","195962.361255","199845.665686","200612.392342","201378.822502","202145.693542","202912.293129","203679.142527","189845.685782","190612.489423","202921.921091","Mapping"
"Mixed","both","cave","14","M_romp.wav","space","501.499335747","307","199096.220265","191378.999349","192145.871626","192912.77111","193679.297732","194428.868677","195195.328826","195962.361255","199845.665686","200612.392342","201378.822502","202145.693542","202912.293129","203679.142527","204428.763248","190612.489423","203689.233012","Mapping"
"Mixed","both","cave","14","F_jolt.wav","None","733.187547885","307","199096.220265","191378.999349","192145.871626","192912.77111","193679.297732","194428.868677","195195.328826","195962.361255","199845.665686","200612.392342","201378.822502","202145.693542","202912.293129","203679.142527","204428.763248","205195.639545","204438.56373","Mapping"
"Mixed","both","cave","14","F_cave.wav","None","730.870604049","307","199096.220265","205962.235421","192145.871626","192912.77111","193679.297732","194428.868677","195195.328826","195962.361255","199845.665686","200612.392342","201378.822502","202145.693542","202912.293129","203679.142527","204428.763248","205195.639545","205205.274619","Mapping"
"Mixed","both","cave","14","M_jolt.wav","space","466.470939573","307","199096.220265","205962.235421","206728.448541","192912.77111","193679.297732","194428.868677","195195.328826","195962.361255","199845.665686","200612.392342","201378.822502","202145.693542","202912.293129","203679.142527","204428.763248","205195.639545","205972.22017","Mapping"
"Mixed","both","cave","14","M_jaw.wav","None","725.851176772","307","199096.220265","205962.235421","206728.448541","207495.688425","193679.297732","194428.868677","195195.328826","195962.361255","199845.665686","200612.392342","201378.822502","202145.693542","202912.293129","203679.142527","204428.763248","205195.639545","206737.676434","Mapping"
"Mixed","both","cave","14","F_cave.wav","None","721.41794255","307","199096.220265","205962.235421","206728.448541","207495.688425","208262.761665","194428.868677","195195.328826","195962.361255","199845.665686","200612.392342","201378.822502","202145.693542","202912.293129","203679.142527","204428.763248","205195.639545","207506.324602","Mapping"
"Mixed","both","cave","14","M_jaw.wav","space","446.042011026","307","199096.220265","205962.235421","206728.448541","207495.688425","208262.761665","209012.115879","195195.328826","195962.361255","199845.665686","200612.392342","201378.822502","202145.693542","202912.293129","203679.142527","204428.763248","205195.639545","208272.589972","Mapping"
"Mixed","both","cave","14","F_depth.wav","None","733.396548778","307","199096.220265","205962.235421","206728.448541","207495.688425","208262.761665","209012.115879","209778.644665","195962.361255","199845.665686","200612.392342","201378.822502","202145.693542","202912.293129","203679.142527","204428.763248","205195.639545","209022.01406","Mapping"
"Mixed","both","cave","14","F_romp.wav","None","731.421241537","307","199096.220265","205962.235421","206728.448541","207495.688425","208262.761665","209012.115879","209778.644665","210545.526218","199845.665686","200612.392342","201378.822502","202145.693542","202912.293129","203679.142527","204428.763248","205195.639545","209788.242329","Mapping"
"Mixed","both","ball","11","F_jolt.wav","None","728.790486697","307","213678.776775","205962.235421","206728.448541","207495.688425","208262.761665","209012.115879","209778.644665","210545.526218","199845.665686","200612.392342","201378.822502","202145.693542","202912.293129","203679.142527","204428.763248","205195.639545","210555.133775","Mapping"
"Mixed","both","ball","11","M_ball.wav","None","719.551154878","307","213678.776775","205962.235421","206728.448541","207495.688425","208262.761665","209012.115879","209778.644665","210545.526218","214428.489012","200612.392342","201378.822502","202145.693542","202912.293129","203679.142527","204428.763248","205195.639545","213689.159738","Mapping"
"Mixed","both","ball","11","M_greet.wav","space","376.470002346","307","213678.776775","205962.235421","206728.448541","207495.688425","208262.761665","209012.115879","209778.644665","210545.526218","214428.489012","215195.427452","201378.822502","202145.693542","202912.293129","203679.142527","204428.763248","205195.639545","214438.063797","Mapping"
"Mixed","both","ball","11","F_park.wav","None","731.253978796","307","213678.776775","205962.235421","206728.448541","207495.688425","208262.761665","209012.115879","209778.644665","210545.526218","214428.489012","215195.427452","215962.036623","202145.693542","202912.293129","203679.142527","204428.763248","205195.639545","215205.091279","Mapping"
"Mixed","both","ball","11","F_ball.wav","None","728.801926132","307","213678.776775","205962.235421","206728.448541","207495.688425","208262.761665","209012.115879","209778.644665","210545.526218","214428.489012","215195.427452","215962.036623","216728.570356","202912.293129","203679.142527","204428.763248","205195.639545","215971.836486","Mapping"
"Mixed","both","ball","11","F_bluff.wav","None","727.180003189","307","213678.776775","205962.235421","206728.448541","207495.688425","208262.761665","209012.115879","209778.644665","210545.526218","214428.489012","215195.427452","215962.036623","216728.570356","217495.04349","203679.142527","204428.763248","205195.639545","216737.915425","Mapping"
"Mixed","both","ball","11","M_reek.wav","space","38.1869096309","307","213678.776775","205962.235421","206728.448541","207495.688425","208262.761665","209012.115879","209778.644665","210545.526218","214428.489012","215195.427452","215962.036623","216728.570356","217495.04349","218262.017794","204428.763248","205195.639545","217504.293643","Mapping"
"Mixed","both","ball","11","M_ball.wav","None","720.777644776","307","213678.776775","205962.235421","206728.448541","207495.688425","208262.761665","209012.115879","209778.644665","210545.526218","214428.489012","215195.427452","215962.036623","216728.570356","217495.04349","218262.017794","219012.306639","205195.639545","218272.000688","Mapping"
"Mixed","both","ball","11","F_depth.wav","space","384.517780971","307","213678.776775","205962.235421","206728.448541","207495.688425","208262.761665","209012.115879","209778.644665","210545.526218","214428.489012","215195.427452","215962.036623","216728.570356","217495.04349","218262.017794","219012.306639","219778.510175","219021.903685","Mapping"
"Mixed","both","ball","11","M_priest.wav","None","731.988574378","307","213678.776775","220545.394819","206728.448541","207495.688425","208262.761665","209012.115879","209778.644665","210545.526218","214428.489012","215195.427452","215962.036623","216728.570356","217495.04349","218262.017794","219012.306639","219778.510175","219788.345902","Mapping"
"Mixed","both","ball","11","M_dime.wav","None","729.78076851","307","213678.776775","220545.394819","221311.890523","207495.688425","208262.761665","209012.115879","209778.644665","210545.526218","214428.489012","215195.427452","215962.036623","216728.570356","217495.04349","218262.017794","219012.306639","219778.510175","220554.964039","Mapping"
"Mixed","both","ball","11","M_knife.wav","None","727.213394362","307","213678.776775","220545.394819","221311.890523","222078.351291","208262.761665","209012.115879","209778.644665","210545.526218","214428.489012","215195.427452","215962.036623","216728.570356","217495.04349","218262.017794","219012.306639","219778.510175","221321.771699","Mapping"
"Mixed","both","ball","11","F_gnash.wav","None","730.599149596","307","213678.776775","220545.394819","221311.890523","222078.351291","222845.730921","209012.115879","209778.644665","210545.526218","214428.489012","215195.427452","215962.036623","216728.570356","217495.04349","218262.017794","219012.306639","219778.510175","222082.79411","Mapping"
"Mixed","both","ball","11","F_ball.wav","None","721.730516758","307","213678.776775","220545.394819","221311.890523","222078.351291","222845.730921","223612.194781","209778.644665","210545.526218","214428.489012","215195.427452","215962.036623","216728.570356","217495.04349","218262.017794","219012.306639","219778.510175","222856.077093","Mapping"
"Mixed","both","ball","11","F_romp.wav","space","399.896674324","307","213678.776775","220545.394819","221311.890523","222078.351291","222845.730921","223612.194781","224361.755523","210545.526218","214428.489012","215195.427452","215962.036623","216728.570356","217495.04349","218262.017794","219012.306639","219778.510175","223622.476026","Mapping"
"Mixed","both","ball","11","M_park.wav","None","734.542653896","307","213678.776775","220545.394819","221311.890523","222078.351291","222845.730921","223612.194781","224361.755523","225128.130031","214428.489012","215195.427452","215962.036623","216728.570356","217495.04349","218262.017794","219012.306639","219778.510175","224371.290115","Mapping"
"Mixed","both","done","40","M_dime.wav","None","732.548177242","307","228262.13528","220545.394819","221311.890523","222078.351291","222845.730921","223612.194781","224361.755523","225128.130031","214428.489012","215195.427452","215962.036623","216728.570356","217495.04349","218262.017794","219012.306639","219778.510175","225137.659058","Mapping"
"Mixed","both","done","40","F_done.wav","None","718.971763737","307","228262.13528","220545.394819","221311.890523","222078.351291","222845.730921","223612.194781","224361.755523","225128.130031","229011.29688","215195.427452","215962.036623","216728.570356","217495.04349","218262.017794","219012.306639","219778.510175","228272.466303","Mapping"
"Mixed","both","done","40","M_romp.wav","None","735.259626992","307","228262.13528","220545.394819","221311.890523","222078.351291","222845.730921","223612.194781","224361.755523","225128.130031","229011.29688","229778.551913","215962.036623","216728.570356","217495.04349","218262.017794","219012.306639","219778.510175","229020.698527","Mapping"
"Mixed","both","done","40","F_reek.wav","space","0.034318305552","307","228262.13528","220545.394819","221311.890523","222078.351291","222845.730921","223612.194781","224361.755523","225128.130031","229011.29688","229778.551913","230545.155828","216728.570356","217495.04349","218262.017794","219012.306639","219778.510175","229788.24542","Mapping"
"Mixed","both","done","40","F_done.wav","None","728.559534065","307","228262.13528","220545.394819","221311.890523","222078.351291","222845.730921","223612.194781","224361.755523","225128.130031","229011.29688","229778.551913","230545.155828","231311.708729","217495.04349","218262.017794","219012.306639","219778.510175","230555.128519","Mapping"
"Mixed","both","done","40","F_park.wav","space","396.395287942","307","228262.13528","220545.394819","221311.890523","222078.351291","222845.730921","223612.194781","224361.755523","225128.130031","229011.29688","229778.551913","230545.155828","231311.708729","232078.699729","218262.017794","219012.306639","219778.510175","231321.839098","Mapping"
"Mixed","both","done","40","F_jolt.wav","None","722.806748468","307","228262.13528","220545.394819","221311.890523","222078.351291","222845.730921","223612.194781","224361.755523","225128.130031","229011.29688","229778.551913","230545.155828","231311.708729","232078.699729","232845.362387","219012.306639","219778.510175","232088.78465","Mapping"
"Mixed","both","done","40","M_done.wav","None","720.395816024","307","228262.13528","220545.394819","221311.890523","222078.351291","222845.730921","223612.194781","224361.755523","225128.130031","229011.29688","229778.551913","230545.155828","231311.708729","232078.699729","232845.362387","233595.273422","219778.510175","232855.665584","Mapping"
"Mixed","both","done","40","M_bluff.wav","space","425.695013721","307","228262.13528","220545.394819","221311.890523","222078.351291","222845.730921","223612.194781","224361.755523","225128.130031","229011.29688","229778.551913","230545.155828","231311.708729","232078.699729","232845.362387","233595.273422","234361.666172","233604.490184","Mapping"
"Mixed","both","done","40","F_cad.wav","None","733.014720026","307","228262.13528","235128.243807","221311.890523","222078.351291","222845.730921","223612.194781","224361.755523","225128.130031","229011.29688","229778.551913","230545.155828","231311.708729","232078.699729","232845.362387","233595.273422","234361.666172","234371.178813","Mapping"
"Mixed","both","done","40","M_lash.wav","None","730.519691948","307","228262.13528","235128.243807","235894.582142","222078.351291","222845.730921","223612.194781","224361.755523","225128.130031","229011.29688","229778.551913","230545.155828","231311.708729","232078.699729","232845.362387","233595.273422","234361.666172","235138.075515","Mapping"
"Mixed","both","done","40","M_done.wav","None","729.504985735","307","228262.13528","235128.243807","235894.582142","236661.638995","222845.730921","223612.194781","224361.755523","225128.130031","229011.29688","229778.551913","230545.155828","231311.708729","232078.699729","232845.362387","233595.273422","234361.666172","235903.39296","Mapping"
"Mixed","both","done","40","M_reek.wav","space","454.310848378","307","228262.13528","235128.243807","235894.582142","236661.638995","237428.660912","223612.194781","224361.755523","225128.130031","229011.29688","229778.551913","230545.155828","231311.708729","232078.699729","232845.362387","233595.273422","234361.666172","236671.792552","Mapping"
"Mixed","both","done","40","F_gnash.wav","None","721.626325045","307","228262.13528","235128.243807","235894.582142","236661.638995","237428.660912","238195.321097","224361.755523","225128.130031","229011.29688","229778.551913","230545.155828","231311.708729","232078.699729","232845.362387","233595.273422","234361.666172","237438.874758","Mapping"
"Mixed","both","done","40","M_bluff.wav","None","719.314637128","307","228262.13528","235128.243807","235894.582142","236661.638995","237428.660912","238195.321097","238944.837009","225128.130031","229011.29688","229778.551913","230545.155828","231311.708729","232078.699729","232845.362387","233595.273422","234361.666172","238205.664486","Mapping"
"Mixed","both","done","40","F_bluff.wav","None","734.359932598","307","228262.13528","235128.243807","235894.582142","236661.638995","237428.660912","238195.321097","238944.837009","239711.560264","229011.29688","229778.551913","230545.155828","231311.708729","232078.699729","232845.362387","233595.273422","234361.666172","238955.006024","Mapping"
"Mixed","both","ball","1","F_depth.wav","None","732.471811585","307","242845.244901","235128.243807","235894.582142","236661.638995","237428.660912","238195.321097","238944.837009","239711.560264","229011.29688","229778.551913","230545.155828","231311.708729","232078.699729","232845.362387","233595.273422","234361.666172","239721.382697","Mapping"
"Mixed","both","ball","1","M_ball.wav","None","718.380315695","307","242845.244901","235128.243807","235894.582142","236661.638995","237428.660912","238195.321097","238944.837009","239711.560264","243594.755248","229778.551913","230545.155828","231311.708729","232078.699729","232845.362387","233595.273422","234361.666172","242855.817388","Mapping"
"Mixed","both","ball","1","F_reek.wav","space","409.369122703","307","242845.244901","235128.243807","235894.582142","236661.638995","237428.660912","238195.321097","238944.837009","239711.560264","243594.755248","244361.192828","230545.155828","231311.708729","232078.699729","232845.362387","233595.273422","234361.666172","243604.614472","Mapping"
"Mixed","both","ball","1","F_ball.wav","None","731.543055736","307","242845.244901","235128.243807","235894.582142","236661.638995","237428.660912","238195.321097","238944.837009","239711.560264","243594.755248","244361.192828","245128.139616","231311.708729","232078.699729","232845.362387","233595.273422","234361.666172","244370.792655","Mapping"
"Mixed","both","ball","1","M_jolt.wav","space","412.18630923","307","242845.244901","235128.243807","235894.582142","236661.638995","237428.660912","238195.321097","238944.837009","239711.560264","243594.755248","244361.192828","245128.139616","245894.8369","232078.699729","232845.362387","233595.273422","234361.666172","245137.804988","Mapping"
"Mixed","both","ball","1","M_depth.wav","None","725.067113992","307","242845.244901","235128.243807","235894.582142","236661.638995","237428.660912","238195.321097","238944.837009","239711.560264","243594.755248","244361.192828","245128.139616","245894.8369","246661.864383","232845.362387","233595.273422","234361.666172","245904.80248","Mapping"
"Mixed","both","ball","1","F_ball.wav","None","722.355974372","307","242845.244901","235128.243807","235894.582142","236661.638995","237428.660912","238195.321097","238944.837009","239711.560264","243594.755248","244361.192828","245128.139616","245894.8369","246661.864383","247428.271045","233595.273422","234361.666172","246672.080392","Mapping"
"Mixed","both","ball","1","F_jolt.wav","space","431.161504705","307","242845.244901","235128.243807","235894.582142","236661.638995","237428.660912","238195.321097","238944.837009","239711.560264","243594.755248","244361.192828","245128.139616","245894.8369","246661.864383","247428.271045","248178.085","234361.666172","247438.785407","Mapping"
"Mixed","both","ball","1","F_jaw.wav","None","734.073947649","307","242845.244901","235128.243807","235894.582142","236661.638995","237428.660912","238195.321097","238944.837009","239711.560264","243594.755248","244361.192828","245128.139616","245894.8369","246661.864383","247428.271045","248178.085","248944.786923","248188.063874","Mapping"
"Mixed","both","ball","1","M_reek.wav","None","732.20437672","307","242845.244901","249711.403205","235894.582142","236661.638995","237428.660912","238195.321097","238944.837009","239711.560264","243594.755248","244361.192828","245128.139616","245894.8369","246661.864383","247428.271045","248178.085","248944.786923","248954.475483","Mapping"
"Mixed","both","ball","1","M_bluff.wav","None","729.895471595","307","242845.244901","249711.403205","250477.936628","236661.638995","237428.660912","238195.321097","238944.837009","239711.560264","243594.755248","244361.192828","245128.139616","245894.8369","246661.864383","247428.271045","248178.085","248944.786923","249721.40403","Mapping"
"Mixed","both","ball","1","F_lash.wav","None","728.493989445","307","242845.244901","249711.403205","250477.936628","251244.650299","237428.660912","238195.321097","238944.837009","239711.560264","243594.755248","244361.192828","245128.139616","245894.8369","246661.864383","247428.271045","248178.085","248944.786923","250487.844083","Mapping"
"Mixed","both","ball","1","F_gnash.wav","None","726.463340223","307","242845.244901","249711.403205","250477.936628","251244.650299","252011.36397","238195.321097","238944.837009","239711.560264","243594.755248","244361.192828","245128.139616","245894.8369","246661.864383","247428.271045","248178.085","248944.786923","251254.399148","Mapping"
"Mixed","both","ball","1","M_park.wav","None","724.167728797","307","242845.244901","249711.403205","250477.936628","251244.650299","252011.36397","252778.283551","238944.837009","239711.560264","243594.755248","244361.192828","245128.139616","245894.8369","246661.864383","247428.271045","248178.085","248944.786923","252021.219794","Mapping"
"Mixed","both","ball","1","M_ball.wav","None","721.109696664","307","242845.244901","249711.403205","250477.936628","251244.650299","252011.36397","252778.283551","253545.17376","239711.560264","243594.755248","244361.192828","245128.139616","245894.8369","246661.864383","247428.271045","248178.085","248944.786923","252788.766068","Mapping"
"Mixed","both","ball","1","M_priest.wav","space","410.4138189","307","242845.244901","249711.403205","250477.936628","251244.650299","252011.36397","252778.283551","253545.17376","254294.76542","243594.755248","244361.192828","245128.139616","245894.8369","246661.864383","247428.271045","248178.085","248944.786923","253555.429035","Mapping"
"Mixed","both","cave","17","F_bluff.wav","None","732.77541995","307","257428.337826","249711.403205","250477.936628","251244.650299","252011.36397","252778.283551","253545.17376","254294.76542","243594.755248","244361.192828","245128.139616","245894.8369","246661.864383","247428.271045","248178.085","248944.786923","254304.817568","Mapping"
"Mixed","both","cave","17","F_cave.wav","None","719.091723207","307","257428.337826","249711.403205","250477.936628","251244.650299","252011.36397","252778.283551","253545.17376","254294.76542","258177.590013","244361.192828","245128.139616","245894.8369","246661.864383","247428.271045","248178.085","248944.786923","257438.552291","Mapping"
"Mixed","both","cave","17","F_cling.wav","space","514.117621351","307","257428.337826","249711.403205","250477.936628","251244.650299","252011.36397","252778.283551","253545.17376","254294.76542","258177.590013","258944.667891","245128.139616","245894.8369","246661.864383","247428.271045","248178.085","248944.786923","258187.638761","Mapping"
"Mixed","both","cave","17","M_reek.wav","None","731.069711503","307","257428.337826","249711.403205","250477.936628","251244.650299","252011.36397","252778.283551","253545.17376","254294.76542","258177.590013","258944.667891","259711.200696","245894.8369","246661.864383","247428.271045","248178.085","248944.786923","258954.246386","Mapping"
"Mixed","both","cave","17","M_cave.wav","None","728.759260383","307","257428.337826","249711.403205","250477.936628","251244.650299","252011.36397","252778.283551","253545.17376","254294.76542","258177.590013","258944.667891","259711.200696","260477.799664","246661.864383","247428.271045","248178.085","248944.786923","259721.152054","Mapping"
"Mixed","both","cave","17","M_gnash.wav","space","509.94625641","307","257428.337826","249711.403205","250477.936628","251244.650299","252011.36397","252778.283551","253545.17376","254294.76542","258177.590013","258944.667891","259711.200696","260477.799664","261244.959781","247428.271045","248178.085","248944.786923","260487.797398","Mapping"
"Mixed","both","cave","17","F_lash.wav","None","722.004444338","307","257428.337826","249711.403205","250477.936628","251244.650299","252011.36397","252778.283551","253545.17376","254294.76542","258177.590013","258944.667891","259711.200696","260477.799664","261244.959781","262011.533397","248178.085","248944.786923","261255.327905","Mapping"
"Mixed","both","cave","17","M_depth.wav","None","720.208457205","307","257428.337826","249711.403205","250477.936628","251244.650299","252011.36397","252778.283551","253545.17376","254294.76542","258177.590013","258944.667891","259711.200696","260477.799664","261244.959781","262011.533397","262761.095685","248944.786923","262021.744151","Mapping"
"Mixed","both","cave","17","F_romp.wav","None","735.352996737","307","257428.337826","249711.403205","250477.936628","251244.650299","252011.36397","252778.283551","253545.17376","254294.76542","258177.590013","258944.667891","259711.200696","260477.799664","261244.959781","262011.533397","262761.095685","263527.824815","262771.20163","Mapping"
"Mixed","both","cave","17","F_cave.wav","None","733.288647607","307","257428.337826","264294.536941","250477.936628","251244.650299","252011.36397","252778.283551","253545.17376","254294.76542","258177.590013","258944.667891","259711.200696","260477.799664","261244.959781","262011.533397","262761.095685","263527.824815","263537.785139","Mapping"
"Mixed","both","cave","17","F_cling.wav","space","405.407686718","307","257428.337826","264294.536941","265061.161879","251244.650299","252011.36397","252778.283551","253545.17376","254294.76542","258177.590013","258944.667891","259711.200696","260477.799664","261244.959781","262011.533397","262761.095685","263527.824815","264304.242196","Mapping"
"Mixed","both","cave","17","M_dime.wav","None","727.924801409","307","257428.337826","264294.536941","265061.161879","265827.791146","252011.36397","252778.283551","253545.17376","254294.76542","258177.590013","258944.667891","259711.200696","260477.799664","261244.959781","262011.533397","262761.095685","263527.824815","265071.414372","Mapping"
"Mixed","both","cave","17","M_cave.wav","None","726.262995508","307","257428.337826","264294.536941","265061.161879","265827.791146","266594.119588","252778.283551","253545.17376","254294.76542","258177.590013","258944.667891","259711.200696","260477.799664","261244.959781","262011.533397","262761.095685","263527.824815","265837.786098","Mapping"
"Mixed","both","cave","17","M_lash.wav","space","689.831881318","307","257428.337826","264294.536941","265061.161879","265827.791146","266594.119588","267361.294236","253545.17376","254294.76542","258177.590013","258944.667891","259711.200696","260477.799664","261244.959781","262011.533397","262761.095685","263527.824815","266603.783723","Mapping"
"Mixed","both","cave","17","F_romp.wav","None","720.539581496","307","257428.337826","264294.536941","265061.161879","265827.791146","266594.119588","267361.294236","268111.207436","254294.76542","258177.590013","258944.667891","259711.200696","260477.799664","261244.959781","262011.533397","262761.095685","263527.824815","267371.113886","Mapping"
"Mixed","both","cave","17","M_dime.wav","None","735.371856485","307","257428.337826","264294.536941","265061.161879","265827.791146","266594.119588","267361.294236","268111.207436","268877.596475","258177.590013","258944.667891","259711.200696","260477.799664","261244.959781","262011.533397","262761.095685","263527.824815","268120.904344","Mapping"
"Mixed","both","done","43","M_jaw.wav","None","733.163123019","307","272011.402308","264294.536941","265061.161879","265827.791146","266594.119588","267361.294236","268111.207436","268877.596475","258177.590013","258944.667891","259711.200696","260477.799664","261244.959781","262011.533397","262761.095685","263527.824815","268887.701801","Mapping"
"Mixed","both","done","43","F_done.wav","None","719.071627129","307","272011.402308","264294.536941","265061.161879","265827.791146","266594.119588","267361.294236","268111.207436","268877.596475","272760.853293","258944.667891","259711.200696","260477.799664","261244.959781","262011.533397","262761.095685","263527.824815","272021.506706","Mapping"
"Mixed","both","done","43","F_jaw.wav","space","435.010093264","307","272011.402308","264294.536941","265061.161879","265827.791146","266594.119588","267361.294236","268111.207436","268877.596475","272760.853293","273527.670538","259711.200696","260477.799664","261244.959781","262011.533397","262761.095685","263527.824815","272770.476618","Mapping"
"Mixed","both","done","43","M_done.wav","None","730.556174647","307","272011.402308","264294.536941","265061.161879","265827.791146","266594.119588","267361.294236","268111.207436","268877.596475","272760.853293","273527.670538","274294.392248","260477.799664","261244.959781","262011.533397","262761.095685","263527.824815","273537.597162","Mapping"
"Mixed","both","done","43","F_jolt.wav","space","493.372717872","307","272011.402308","264294.536941","265061.161879","265827.791146","266594.119588","267361.294236","268111.207436","268877.596475","272760.853293","273527.670538","274294.392248","275060.63072","261244.959781","262011.533397","262761.095685","263527.824815","274304.078026","Mapping"
"Mixed","both","done","43","M_park.wav","None","726.341525558","307","272011.402308","264294.536941","265061.161879","265827.791146","266594.119588","267361.294236","268111.207436","268877.596475","272760.853293","273527.670538","274294.392248","275060.63072","275827.877715","262011.533397","262761.095685","263527.824815","275070.021237","Mapping"
"Mixed","both","done","43","M_bluff.wav","None","722.903829068","307","272011.402308","264294.536941","265061.161879","265827.791146","266594.119588","267361.294236","268111.207436","268877.596475","272760.853293","273527.670538","274294.392248","275060.63072","275827.877715","276594.377438","262761.095685","263527.824815","275838.134536","Mapping"
"Mixed","both","done","43","M_priest.wav","None","721.621996723","307","272011.402308","264294.536941","265061.161879","265827.791146","266594.119588","267361.294236","268111.207436","268877.596475","272760.853293","273527.670538","274294.392248","275060.63072","275827.877715","276594.377438","277361.207977","263527.824815","276604.160606","Mapping"
"Mixed","both","done","43","F_gnash.wav","None","723.085004371","307","272011.402308","264294.536941","265061.161879","265827.791146","266594.119588","267361.294236","268111.207436","268877.596475","272760.853293","273527.670538","274294.392248","275060.63072","275827.877715","276594.377438","277361.207977","278110.76841","277367.462551","Mapping"
"Mixed","both","done","43","M_priest.wav","None","734.750727657","307","272011.402308","278877.494139","265061.161879","265827.791146","266594.119588","267361.294236","268111.207436","268877.596475","272760.853293","273527.670538","274294.392248","275060.63072","275827.877715","276594.377438","277361.207977","278110.76841","278120.499946","Mapping"
"Mixed","both","done","43","F_dime.wav","None","732.830762397","307","272011.402308","278877.494139","279644.317876","265827.791146","266594.119588","267361.294236","268111.207436","268877.596475","272760.853293","273527.670538","274294.392248","275060.63072","275827.877715","276594.377438","277361.207977","278110.76841","278887.05903","Mapping"
"Mixed","both","done","43","F_done.wav","space","503.367978148","307","272011.402308","278877.494139","279644.317876","280410.52203","266594.119588","267361.294236","268111.207436","268877.596475","272760.853293","273527.670538","274294.392248","275060.63072","275827.877715","276594.377438","277361.207977","278110.76841","279654.030552","Mapping"
"Mixed","both","done","43","F_priest.wav","space","585.143362172","307","272011.402308","278877.494139","279644.317876","280410.52203","281177.620931","267361.294236","268111.207436","268877.596475","272760.853293","273527.670538","274294.392248","275060.63072","275827.877715","276594.377438","277361.207977","278110.76841","280420.208117","Mapping"
"Mixed","both","done","43","M_done.wav","None","722.646596842","307","272011.402308","278877.494139","279644.317876","280410.52203","281177.620931","281944.785068","268111.207436","268877.596475","272760.853293","273527.670538","274294.392248","275060.63072","275827.877715","276594.377438","277361.207977","278110.76841","281188.311522","Mapping"
"Mixed","both","done","43","F_knife.wav","space","594.520894345","307","272011.402308","278877.494139","279644.317876","280410.52203","281177.620931","281944.785068","282693.956252","268877.596475","272760.853293","273527.670538","274294.392248","275060.63072","275827.877715","276594.377438","277361.207977","278110.76841","281954.793004","Mapping"
"Mixed","both","done","43","M_park.wav","None","734.78751909","307","272011.402308","278877.494139","279644.317876","280410.52203","281177.620931","281944.785068","282693.956252","283460.923445","272760.853293","273527.670538","274294.392248","275060.63072","275827.877715","276594.377438","277361.207977","278110.76841","282704.013965","Mapping"
