"Condition","Talker","Target","Trial","current_stimulus","response_response","response_time_response","subject_nr","time_Audio1","time_Audio10","time_Audio11","time_Audio12","time_Audio13","time_Audio14","time_Audio15","time_Audio16","time_Audio2","time_Audio3","time_Audio4","time_Audio5","time_Audio6","time_Audio7","time_Audio8","time_Audio9","time_response","title"
"Mixed","both","ball","12","M_reek.wav","NA","NA","339","220078.819379","NA","NA","NA","NA","NA","NA","NA","NA","NA","NA","NA","NA","NA","NA","NA","NA","Mapping"
"Mixed","both","ball","12","F_ball.wav","None","720.628314186","339","220078.819379","NA","NA","NA","NA","NA","NA","NA","220845.430714","NA","NA","NA","NA","NA","NA","NA","220093.986488","Mapping"
"Mixed","both","ball","12","F_gnash.wav","space","605.991529301","339","220078.819379","NA","NA","NA","NA","NA","NA","NA","220845.430714","221611.840159","NA","NA","NA","NA","NA","NA","220855.289938","Mapping"
"Mixed","both","ball","12","M_romp.wav","None","729.900109116","339","220078.819379","NA","NA","NA","NA","NA","NA","NA","220845.430714","221611.840159","222378.729749","NA","NA","NA","NA","NA","221621.316317","Mapping"
"Mixed","both","ball","12","F_ball.wav","None","730.430032127","339","220078.819379","NA","NA","NA","NA","NA","NA","NA","220845.430714","221611.840159","222378.729749","223145.338611","NA","NA","NA","NA","222388.935557","Mapping"
"Mixed","both","ball","12","M_dime.wav","space","457.732468378","339","220078.819379","NA","NA","NA","NA","NA","NA","NA","220845.430714","221611.840159","222378.729749","223145.338611","223912.207797","NA","NA","NA","223155.511955","Mapping"
"Mixed","both","ball","12","M_cling.wav","None","730.048203375","339","220078.819379","NA","NA","NA","NA","NA","NA","NA","220845.430714","221611.840159","222378.729749","223145.338611","223912.207797","224678.795634","NA","NA","223922.579011","Mapping"
"Mixed","both","ball","12","F_reek.wav","None","732.004032936","339","220078.819379","NA","NA","NA","NA","NA","NA","NA","220845.430714","221611.840159","222378.729749","223145.338611","223912.207797","224678.795634","225445.597729","NA","224688.697215","Mapping"
"Mixed","both","ball","12","F_depth.wav","None","733.734784182","339","220078.819379","NA","NA","NA","NA","NA","NA","NA","220845.430714","221611.840159","222378.729749","223145.338611","223912.207797","224678.795634","225445.597729","226212.080448","225455.351525","Mapping"
"Mixed","both","ball","12","M_knife.wav","None","734.996829648","339","220078.819379","226996.095452","NA","NA","NA","NA","NA","NA","220845.430714","221611.840159","222378.729749","223145.338611","223912.207797","224678.795634","225445.597729","226212.080448","226222.249773","Mapping"
"Mixed","both","ball","12","F_knife.wav","None","718.391136732","339","220078.819379","226996.095452","227762.839731","NA","NA","NA","NA","NA","220845.430714","221611.840159","222378.729749","223145.338611","223912.207797","224678.795634","225445.597729","226212.080448","227007.050076","Mapping"
"Mixed","both","ball","12","F_gnash.wav","None","720.415912103","339","220078.819379","226996.095452","227762.839731","228529.323068","NA","NA","NA","NA","220845.430714","221611.840159","222378.729749","223145.338611","223912.207797","224678.795634","225445.597729","226212.080448","227773.159624","Mapping"
"Mixed","both","ball","12","M_ball.wav","None","718.79708115","339","220078.819379","226996.095452","227762.839731","228529.323068","229296.252233","NA","NA","NA","220845.430714","221611.840159","222378.729749","223145.338611","223912.207797","224678.795634","225445.597729","226212.080448","228539.964501","Mapping"
"Mixed","both","ball","12","F_jaw.wav","space","378.994092345","339","220078.819379","226996.095452","227762.839731","228529.323068","229296.252233","230062.293144","NA","NA","220845.430714","221611.840159","222378.729749","223145.338611","223912.207797","224678.795634","225445.597729","226212.080448","229306.167109","Mapping"
"Mixed","both","ball","12","M_ball.wav","None","723.143747542","339","220078.819379","226996.095452","227762.839731","228529.323068","229296.252233","230062.293144","230829.011453","NA","220845.430714","221611.840159","222378.729749","223145.338611","223912.207797","224678.795634","225445.597729","226212.080448","230071.925435","Mapping"
"Mixed","both","ball","12","M_priest.wav","space","478.815298062","339","220078.819379","226996.095452","227762.839731","228529.323068","229296.252233","230062.293144","230829.011453","231596.335432","220845.430714","221611.840159","222378.729749","223145.338611","223912.207797","224678.795634","225445.597729","226212.080448","230838.304581","Mapping"
"Mixed","both","tile","26","M_cad.wav","None","721.661880147","339","234812.312699","226996.095452","227762.839731","228529.323068","229296.252233","230062.293144","230829.011453","231596.335432","220845.430714","221611.840159","222378.729749","223145.338611","223912.207797","224678.795634","225445.597729","226212.080448","231606.659034","Mapping"
"Mixed","both","tile","26","M_tile.wav","None","725.465947296","339","234812.312699","226996.095452","227762.839731","228529.323068","229296.252233","230062.293144","230829.011453","231596.335432","235578.968555","221611.840159","222378.729749","223145.338611","223912.207797","224678.795634","225445.597729","226212.080448","234822.02352","Mapping"
"Mixed","both","tile","26","M_park.wav","space","520.262748003","339","234812.312699","226996.095452","227762.839731","228529.323068","229296.252233","230062.293144","230829.011453","231596.335432","235578.968555","236345.391294","222378.729749","223145.338611","223912.207797","224678.795634","225445.597729","226212.080448","235588.75636","Mapping"
"Mixed","both","tile","26","M_bluff.wav","None","729.48859958","339","234812.312699","226996.095452","227762.839731","228529.323068","229296.252233","230062.293144","230829.011453","231596.335432","235578.968555","236345.391294","237112.93355","223145.338611","223912.207797","224678.795634","225445.597729","226212.080448","236354.662471","Mapping"
"Mixed","both","tile","26","F_tile.wav","None","730.303580407","339","234812.312699","226996.095452","227762.839731","228529.323068","229296.252233","230062.293144","230829.011453","231596.335432","235578.968555","236345.391294","237112.93355","237878.927466","223912.207797","224678.795634","225445.597729","226212.080448","237122.716099","Mapping"
"Mixed","both","tile","26","M_cling.wav","space","460.385483224","339","234812.312699","226996.095452","227762.839731","228529.323068","229296.252233","230062.293144","230829.011453","231596.335432","235578.968555","236345.391294","237112.93355","237878.927466","238645.648248","224678.795634","225445.597729","226212.080448","237888.602732","Mapping"
"Mixed","both","tile","26","F_cad.wav","None","731.44473834","339","234812.312699","226996.095452","227762.839731","228529.323068","229296.252233","230062.293144","230829.011453","231596.335432","235578.968555","236345.391294","237112.93355","237878.927466","238645.648248","239412.326983","225445.597729","226212.080448","238655.181913","Mapping"
"Mixed","both","tile","26","M_jolt.wav","None","733.100360725","339","234812.312699","226996.095452","227762.839731","228529.323068","229296.252233","230062.293144","230829.011453","231596.335432","235578.968555","236345.391294","237112.93355","237878.927466","238645.648248","239412.326983","240178.736737","226212.080448","239421.976897","Mapping"
"Mixed","both","tile","26","M_tile.wav","None","734.819363803","339","234812.312699","226996.095452","227762.839731","228529.323068","229296.252233","230062.293144","230829.011453","231596.335432","235578.968555","236345.391294","237112.93355","237878.927466","238645.648248","239412.326983","240178.736737","240945.579952","240188.612038","Mapping"
"Mixed","both","tile","26","M_bluff.wav","space","529.507954139","339","234812.312699","241711.998053","227762.839731","228529.323068","229296.252233","230062.293144","230829.011453","231596.335432","235578.968555","236345.391294","237112.93355","237878.927466","238645.648248","239412.326983","240178.736737","240945.579952","240955.426809","Mapping"
"Mixed","both","tile","26","F_tile.wav","None","732.829525135","339","234812.312699","241711.998053","242478.825192","228529.323068","229296.252233","230062.293144","230829.011453","231596.335432","235578.968555","236345.391294","237112.93355","237878.927466","238645.648248","239412.326983","240178.736737","240945.579952","241721.247897","Mapping"
"Mixed","both","tile","26","F_dime.wav","space","692.07431376","339","234812.312699","241711.998053","242478.825192","243245.555249","229296.252233","230062.293144","230829.011453","231596.335432","235578.968555","236345.391294","237112.93355","237878.927466","238645.648248","239412.326983","240178.736737","240945.579952","242488.805612","Mapping"
"Mixed","both","tile","26","F_jaw.wav","None","731.961367186","339","234812.312699","241711.998053","242478.825192","243245.555249","244012.264282","230062.293144","230829.011453","231596.335432","235578.968555","236345.391294","237112.93355","237878.927466","238645.648248","239412.326983","240178.736737","240945.579952","243255.602759","Mapping"
"Mixed","both","tile","26","F_park.wav","None","731.521722395","339","234812.312699","241711.998053","242478.825192","243245.555249","244012.264282","244778.555623","230829.011453","231596.335432","235578.968555","236345.391294","237112.93355","237878.927466","238645.648248","239412.326983","240178.736737","240945.579952","244021.619245","Mapping"
"Mixed","both","tile","26","F_lash.wav","None","731.805543881","339","234812.312699","241711.998053","242478.825192","243245.555249","244012.264282","244778.555623","245545.419553","231596.335432","235578.968555","236345.391294","237112.93355","237878.927466","238645.648248","239412.326983","240178.736737","240945.579952","244789.914028","Mapping"
"Mixed","both","tile","26","F_greet.wav","None","734.807615168","339","234812.312699","241711.998053","242478.825192","243245.555249","244012.264282","244778.555623","245545.419553","246329.170522","235578.968555","236345.391294","237112.93355","237878.927466","238645.648248","239412.326983","240178.736737","240945.579952","245555.337829","Mapping"
"Mixed","both","cave","18","F_cad.wav","None","719.366269186","339","249445.662037","241711.998053","242478.825192","243245.555249","244012.264282","244778.555623","245545.419553","246329.170522","235578.968555","236345.391294","237112.93355","237878.927466","238645.648248","239412.326983","240178.736737","240945.579952","246339.775782","Mapping"
"Mixed","both","cave","18","M_greet.wav","None","716.722838115","339","249445.662037","241711.998053","242478.825192","243245.555249","244012.264282","244778.555623","245545.419553","246329.170522","250212.495668","236345.391294","237112.93355","237878.927466","238645.648248","239412.326983","240178.736737","240945.579952","249459.873493","Mapping"
"Mixed","both","cave","18","M_bluff.wav","None","722.006917465","339","249445.662037","241711.998053","242478.825192","243245.555249","244012.264282","244778.555623","245545.419553","246329.170522","250212.495668","250978.694875","237112.93355","237878.927466","238645.648248","239412.326983","240178.736737","240945.579952","250222.932118","Mapping"
"Mixed","both","cave","18","M_cave.wav","None","705.630012788","339","249445.662037","241711.998053","242478.825192","243245.555249","244012.264282","244778.555623","245545.419553","246329.170522","250212.495668","250978.694875","251745.748637","237878.927466","238645.648248","239412.326983","240178.736737","240945.579952","251004.545155","Mapping"
"Mixed","both","cave","18","M_knife.wav","space","592.314325273","339","249445.662037","241711.998053","242478.825192","243245.555249","244012.264282","244778.555623","245545.419553","246329.170522","250212.495668","250978.694875","251745.748637","252512.2969","238645.648248","239412.326983","240178.736737","240945.579952","251756.405219","Mapping"
"Mixed","both","cave","18","F_bluff.wav","None","721.199357416","339","249445.662037","241711.998053","242478.825192","243245.555249","244012.264282","244778.555623","245545.419553","246329.170522","250212.495668","250978.694875","251745.748637","252512.2969","253278.633071","239412.326983","240178.736737","240945.579952","252522.610609","Mapping"
"Mixed","both","cave","18","F_cave.wav","None","723.573807161","339","249445.662037","241711.998053","242478.825192","243245.555249","244012.264282","244778.555623","245545.419553","246329.170522","250212.495668","250978.694875","251745.748637","252512.2969","253278.633071","254045.45248","240178.736737","240945.579952","253288.686147","Mapping"
"Mixed","both","cave","18","F_greet.wav","space","429.391797632","339","249445.662037","241711.998053","242478.825192","243245.555249","244012.264282","244778.555623","245545.419553","246329.170522","250212.495668","250978.694875","251745.748637","252512.2969","253278.633071","254045.45248","254812.02053","240945.579952","254055.289134","Mapping"
"Mixed","both","cave","18","M_cave.wav","None","723.216403276","339","249445.662037","241711.998053","242478.825192","243245.555249","244012.264282","244778.555623","245545.419553","246329.170522","250212.495668","250978.694875","251745.748637","252512.2969","253278.633071","254045.45248","254812.02053","255578.967628","254822.320635","Mapping"
"Mixed","both","cave","18","F_knife.wav","space","519.197646063","339","249445.662037","256345.880406","242478.825192","243245.555249","244012.264282","244778.555623","245545.419553","246329.170522","250212.495668","250978.694875","251745.748637","252512.2969","253278.633071","254045.45248","254812.02053","255578.967628","255589.464367","Mapping"
"Mixed","both","cave","18","F_cave.wav","None","719.775614329","339","249445.662037","256345.880406","257111.968311","243245.555249","244012.264282","244778.555623","245545.419553","246329.170522","250212.495668","250978.694875","251745.748637","252512.2969","253278.633071","254045.45248","254812.02053","255578.967628","256356.08776","Mapping"
"Mixed","both","cave","18","M_depth.wav","space","386.873062234","339","249445.662037","256345.880406","257111.968311","257878.427224","244012.264282","244778.555623","245545.419553","246329.170522","250212.495668","250978.694875","251745.748637","252512.2969","253278.633071","254045.45248","254812.02053","255578.967628","257121.76601","Mapping"
"Mixed","both","cave","18","M_reek.wav","None","721.565418411","339","249445.662037","256345.880406","257111.968311","257878.427224","258645.574047","244778.555623","245545.419553","246329.170522","250212.495668","250978.694875","251745.748637","252512.2969","253278.633071","254045.45248","254812.02053","255578.967628","257887.625126","Mapping"
"Mixed","both","cave","18","F_romp.wav","None","717.789485585","339","249445.662037","256345.880406","257111.968311","257878.427224","258645.574047","259412.280298","245545.419553","246329.170522","250212.495668","250978.694875","251745.748637","252512.2969","253278.633071","254045.45248","254812.02053","255578.967628","258656.77601","Mapping"
"Mixed","both","cave","18","F_park.wav","None","720.605126116","339","249445.662037","256345.880406","257111.968311","257878.427224","258645.574047","259412.280298","260178.86288","246329.170522","250212.495668","250978.694875","251745.748637","252512.2969","253278.633071","254045.45248","254812.02053","255578.967628","259422.475593","Mapping"
"Mixed","both","cave","18","M_knife.wav","None","719.454383478","339","249445.662037","256345.880406","257111.968311","257878.427224","258645.574047","259412.280298","260178.86288","260928.980133","250212.495668","250978.694875","251745.748637","252512.2969","253278.633071","254045.45248","254812.02053","255578.967628","260188.944399","Mapping"
"Mixed","both","cave","17","F_jaw.wav","None","735.624141991","339","264062.351268","256345.880406","257111.968311","257878.427224","258645.574047","259412.280298","260178.86288","260928.980133","250212.495668","250978.694875","251745.748637","252512.2969","253278.633071","254045.45248","254812.02053","255578.967628","260938.236779","Mapping"
"Mixed","both","cave","17","F_greet.wav","None","721.156072803","339","264062.351268","256345.880406","257111.968311","257878.427224","258645.574047","259412.280298","260178.86288","260928.980133","264828.90788","250978.694875","251745.748637","252512.2969","253278.633071","254045.45248","254812.02053","255578.967628","264072.39847","Mapping"
"Mixed","both","cave","17","M_jolt.wav","None","720.030682161","339","264062.351268","256345.880406","257111.968311","257878.427224","258645.574047","259412.280298","260178.86288","260928.980133","264828.90788","265595.522306","251745.748637","252512.2969","253278.633071","254045.45248","254812.02053","255578.967628","264838.823683","Mapping"
"Mixed","both","cave","17","M_jolt.wav","None","718.188937288","339","264062.351268","256345.880406","257111.968311","257878.427224","258645.574047","259412.280298","260178.86288","260928.980133","264828.90788","265595.522306","266345.087068","252512.2969","253278.633071","254045.45248","254812.02053","255578.967628","265605.994003","Mapping"
"Mixed","both","cave","17","M_cave.wav","None","733.798783273","339","264062.351268","256345.880406","257111.968311","257878.427224","258645.574047","259412.280298","260178.86288","260928.980133","264828.90788","265595.522306","266345.087068","267111.588646","253278.633071","254045.45248","254812.02053","255578.967628","266356.0015","Mapping"
"Mixed","both","cave","17","M_bluff.wav","space","451.146769803","339","264062.351268","256345.880406","257111.968311","257878.427224","258645.574047","259412.280298","260178.86288","260928.980133","264828.90788","265595.522306","266345.087068","267111.588646","267878.269545","254045.45248","254812.02053","255578.967628","267121.314308","Mapping"
"Mixed","both","cave","17","F_cave.wav","None","732.76243452","339","264062.351268","256345.880406","257111.968311","257878.427224","258645.574047","259412.280298","260178.86288","260928.980133","264828.90788","265595.522306","266345.087068","267111.588646","267878.269545","268644.740825","254812.02053","255578.967628","267887.232476","Mapping"
"Mixed","both","cave","17","F_cling.wav","space","574.472867418","339","264062.351268","256345.880406","257111.968311","257878.427224","258645.574047","259412.280298","260178.86288","260928.980133","264828.90788","265595.522306","266345.087068","267111.588646","267878.269545","268644.740825","269411.339793","255578.967628","268653.967481","Mapping"
"Mixed","both","cave","17","F_priest.wav","None","733.550517354","339","264062.351268","256345.880406","257111.968311","257878.427224","258645.574047","259412.280298","260178.86288","260928.980133","264828.90788","265595.522306","266345.087068","267111.588646","267878.269545","268644.740825","269411.339793","270178.160438","269421.00733","Mapping"
"Mixed","both","cave","17","M_romp.wav","None","735.022181645","339","264062.351268","270945.040136","257111.968311","257878.427224","258645.574047","259412.280298","260178.86288","260928.980133","264828.90788","265595.522306","266345.087068","267111.588646","267878.269545","268644.740825","269411.339793","270178.160438","270188.046869","Mapping"
"Mixed","both","cave","17","M_cave.wav","None","733.107162639","339","264062.351268","270945.040136","271711.350645","257878.427224","258645.574047","259412.280298","260178.86288","260928.980133","264828.90788","265595.522306","266345.087068","267111.588646","267878.269545","268644.740825","269411.339793","270178.160438","270955.335603","Mapping"
"Mixed","both","cave","17","F_greet.wav","space","515.691003762","339","264062.351268","270945.040136","271711.350645","272478.093997","258645.574047","259412.280298","260178.86288","260928.980133","264828.90788","265595.522306","266345.087068","267111.588646","267878.269545","268644.740825","269411.339793","270178.160438","271720.706535","Mapping"
"Mixed","both","cave","17","M_romp.wav","None","731.444738805","339","264062.351268","270945.040136","271711.350645","272478.093997","273244.693583","259412.280298","260178.86288","260928.980133","264828.90788","265595.522306","266345.087068","267111.588646","267878.269545","268644.740825","269411.339793","270178.160438","272487.539238","Mapping"
"Mixed","both","cave","17","F_knife.wav","None","731.081150938","339","264062.351268","270945.040136","271711.350645","272478.093997","273244.693583","274011.26318","260178.86288","260928.980133","264828.90788","265595.522306","266345.087068","267111.588646","267878.269545","268644.740825","269411.339793","270178.160438","273253.924876","Mapping"
"Mixed","both","cave","17","F_cave.wav","None","729.911239352","339","264062.351268","270945.040136","271711.350645","272478.093997","273244.693583","274011.26318","274778.319724","260928.980133","264828.90788","265595.522306","266345.087068","267111.588646","267878.269545","268644.740825","269411.339793","270178.160438","274020.627418","Mapping"
"Mixed","both","cave","17","M_bluff.wav","space","592.165613081","339","264062.351268","270945.040136","271711.350645","272478.093997","273244.693583","274011.26318","274778.319724","275544.622504","264828.90788","265595.522306","266345.087068","267111.588646","267878.269545","268644.740825","269411.339793","270178.160438","274788.16689","Mapping"
"Mixed","both","tile","30","M_cling.wav","None","727.43878141","339","278695.281677","270945.040136","271711.350645","272478.093997","273244.693583","274011.26318","274778.319724","275544.622504","264828.90788","265595.522306","266345.087068","267111.588646","267878.269545","268644.740825","269411.339793","270178.160438","275553.848542","Mapping"
"Mixed","both","tile","30","F_tile.wav","None","720.83546035","339","278695.281677","270945.040136","271711.350645","272478.093997","273244.693583","274011.26318","274778.319724","275544.622504","279461.993184","265595.522306","266345.087068","267111.588646","267878.269545","268644.740825","269411.339793","270178.160438","278705.33197","Mapping"
"Mixed","both","tile","30","M_greet.wav","space","602.906599175","339","278695.281677","270945.040136","271711.350645","272478.093997","273244.693583","274011.26318","274778.319724","275544.622504","279461.993184","280211.221565","266345.087068","267111.588646","267878.269545","268644.740825","269411.339793","270178.160438","279473.360246","Mapping"
"Mixed","both","tile","30","F_greet.wav","None","735.942280851","339","278695.281677","270945.040136","271711.350645","272478.093997","273244.693583","274011.26318","274778.319724","275544.622504","279461.993184","280211.221565","280978.047466","267111.588646","267878.269545","268644.740825","269411.339793","270178.160438","280220.790785","Mapping"
"Mixed","both","tile","30","F_depth.wav","None","734.751655255","339","278695.281677","270945.040136","271711.350645","272478.093997","273244.693583","274011.26318","274778.319724","275544.622504","279461.993184","280211.221565","280978.047466","281744.80133","267878.269545","268644.740825","269411.339793","270178.160438","280987.628434","Mapping"
"Mixed","both","tile","30","M_tile.wav","None","733.577414881","339","278695.281677","270945.040136","271711.350645","272478.093997","273244.693583","274011.26318","274778.319724","275544.622504","279461.993184","280211.221565","280978.047466","281744.80133","282511.538189","268644.740825","269411.339793","270178.160438","281754.278725","Mapping"
"Mixed","both","tile","30","F_cad.wav","space","450.803896412","339","278695.281677","270945.040136","271711.350645","272478.093997","273244.693583","274011.26318","274778.319724","275544.622504","279461.993184","280211.221565","280978.047466","281744.80133","282511.538189","283278.168384","269411.339793","270178.160438","282521.358767","Mapping"
"Mixed","both","tile","30","F_park.wav","None","730.697466992","339","278695.281677","270945.040136","271711.350645","272478.093997","273244.693583","274011.26318","274778.319724","275544.622504","279461.993184","280211.221565","280978.047466","281744.80133","282511.538189","283278.168384","284044.860722","270178.160438","283287.971647","Mapping"
"Mixed","both","tile","30","M_bluff.wav","None","729.031641968","339","278695.281677","270945.040136","271711.350645","272478.093997","273244.693583","274011.26318","274778.319724","275544.622504","279461.993184","280211.221565","280978.047466","281744.80133","282511.538189","283278.168384","284044.860722","284811.473912","284055.263782","Mapping"
"Mixed","both","tile","30","M_jolt.wav","None","728.462453932","339","278695.281677","285578.079373","271711.350645","272478.093997","273244.693583","274011.26318","274778.319724","275544.622504","279461.993184","280211.221565","280978.047466","281744.80133","282511.538189","283278.168384","284044.860722","284811.473912","284821.455878","Mapping"
"Mixed","both","tile","30","F_tile.wav","None","727.981689852","339","278695.281677","285578.079373","286344.529629","272478.093997","273244.693583","274011.26318","274778.319724","275544.622504","279461.993184","280211.221565","280978.047466","281744.80133","282511.538189","283278.168384","284044.860722","284811.473912","285587.625714","Mapping"
"Mixed","both","tile","30","M_park.wav","space","418.097391259","339","278695.281677","285578.079373","286344.529629","287111.072018","273244.693583","274011.26318","274778.319724","275544.622504","279461.993184","280211.221565","280978.047466","281744.80133","282511.538189","283278.168384","284044.860722","284811.473912","286354.054637","Mapping"
"Mixed","both","tile","30","M_tile.wav","None","726.116756909","339","278695.281677","285578.079373","286344.529629","287111.072018","287878.071056","274011.26318","274778.319724","275544.622504","279461.993184","280211.221565","280978.047466","281744.80133","282511.538189","283278.168384","284044.860722","284811.473912","287120.185207","Mapping"
"Mixed","both","tile","30","M_romp.wav","space","524.359911215","339","278695.281677","285578.079373","286344.529629","287111.072018","287878.071056","288644.73526","274778.319724","275544.622504","279461.993184","280211.221565","280978.047466","281744.80133","282511.538189","283278.168384","284044.860722","284811.473912","287887.730554","Mapping"
"Mixed","both","tile","30","F_depth.wav","None","722.905374598","339","278695.281677","285578.079373","286344.529629","287111.072018","287878.071056","288644.73526","289411.700907","275544.622504","279461.993184","280211.221565","280978.047466","281744.80133","282511.538189","283278.168384","284044.860722","284811.473912","288654.211418","Mapping"
"Mixed","both","tile","30","F_depth.wav","None","720.45455873","339","278695.281677","285578.079373","286344.529629","287111.072018","287878.071056","288644.73526","289411.700907","290178.342541","279461.993184","280211.221565","280978.047466","281744.80133","282511.538189","283278.168384","284044.860722","284811.473912","289422.321007","Mapping"
"Mixed","both","cave","14","F_jaw.wav","None","719.731093384","339","293294.860336","285578.079373","286344.529629","287111.072018","287878.071056","288644.73526","289411.700907","290178.342541","279461.993184","280211.221565","280978.047466","281744.80133","282511.538189","283278.168384","284044.860722","284811.473912","290188.628734","Mapping"
"Mixed","both","cave","14","F_cave.wav","None","720.669743139","339","293294.860336","285578.079373","286344.529629","287111.072018","287878.071056","288644.73526","289411.700907","290178.342541","294061.727666","280211.221565","280978.047466","281744.80133","282511.538189","283278.168384","284044.860722","284811.473912","293305.098297","Mapping"
"Mixed","both","cave","14","F_cling.wav","space","635.887341108","339","293294.860336","285578.079373","286344.529629","287111.072018","287878.071056","288644.73526","289411.700907","290178.342541","294061.727666","294810.916473","280978.047466","281744.80133","282511.538189","283278.168384","284044.860722","284811.473912","294072.066727","Mapping"
"Mixed","both","cave","14","F_reek.wav","None","735.879519023","339","293294.860336","285578.079373","286344.529629","287111.072018","287878.071056","288644.73526","289411.700907","290178.342541","294061.727666","294810.916473","295577.512658","281744.80133","282511.538189","283278.168384","284044.860722","284811.473912","294820.439008","Mapping"
"Mixed","both","cave","14","F_priest.wav","None","735.003940295","339","293294.860336","285578.079373","286344.529629","287111.072018","287878.071056","288644.73526","289411.700907","290178.342541","294061.727666","294810.916473","295577.512658","296344.190775","282511.538189","283278.168384","284044.860722","284811.473912","295586.93904","Mapping"
"Mixed","both","cave","14","M_reek.wav","None","734.487930313","339","293294.860336","285578.079373","286344.529629","287111.072018","287878.071056","288644.73526","289411.700907","290178.342541","294061.727666","294810.916473","295577.512658","296344.190775","297111.258759","283278.168384","284044.860722","284811.473912","296353.119697","Mapping"
"Mixed","both","cave","14","M_cave.wav","None","732.268994208","339","293294.860336","285578.079373","286344.529629","287111.072018","287878.071056","288644.73526","289411.700907","290178.342541","294061.727666","294810.916473","295577.512658","296344.190775","297111.258759","297877.661093","284044.860722","284811.473912","297121.004207","Mapping"
"Mixed","both","cave","14","M_park.wav","space","532.800957561","339","293294.860336","285578.079373","286344.529629","287111.072018","287878.071056","288644.73526","289411.700907","290178.342541","294061.727666","294810.916473","295577.512658","296344.190775","297111.258759","297877.661093","298644.30891","284811.473912","297887.106643","Mapping"
"Mixed","both","cave","14","M_jaw.wav","None","730.61924614","339","293294.860336","285578.079373","286344.529629","287111.072018","287878.071056","288644.73526","289411.700907","290178.342541","294061.727666","294810.916473","295577.512658","296344.190775","297111.258759","297877.661093","298644.30891","299411.274248","298653.360883","Mapping"
"Mixed","both","cave","14","F_priest.wav","None","731.928285211","339","293294.860336","300177.812618","286344.529629","287111.072018","287878.071056","288644.73526","289411.700907","290178.342541","294061.727666","294810.916473","295577.512658","296344.190775","297111.258759","297877.661093","298644.30891","299411.274248","299420.82028","Mapping"
"Mixed","both","cave","14","M_cave.wav","None","730.463113636","339","293294.860336","300177.812618","300944.56339","287111.072018","287878.071056","288644.73526","289411.700907","290178.342541","294061.727666","294810.916473","295577.512658","296344.190775","297111.258759","297877.661093","298644.30891","299411.274248","300187.761194","Mapping"
"Mixed","both","cave","14","M_cling.wav","space","537.895204499","339","293294.860336","300177.812618","300944.56339","301710.766308","287878.071056","288644.73526","289411.700907","290178.342541","294061.727666","294810.916473","295577.512658","296344.190775","297111.258759","297877.661093","298644.30891","299411.274248","300953.96411","Mapping"
"Mixed","both","cave","14","M_reek.wav","None","729.34267018","339","293294.860336","300177.812618","300944.56339","301710.766308","302477.523263","288644.73526","289411.700907","290178.342541","294061.727666","294810.916473","295577.512658","296344.190775","297111.258759","297877.661093","298644.30891","299411.274248","301719.816425","Mapping"
"Mixed","both","cave","14","F_dime.wav","None","727.65860334","339","293294.860336","300177.812618","300944.56339","301710.766308","302477.523263","303244.506224","289411.700907","290178.342541","294061.727666","294810.916473","295577.512658","296344.190775","297111.258759","297877.661093","298644.30891","299411.274248","302487.191727","Mapping"
"Mixed","both","cave","14","F_cave.wav","None","725.559626706","339","293294.860336","300177.812618","300944.56339","301710.766308","302477.523263","303244.506224","304011.171665","290178.342541","294061.727666","294810.916473","295577.512658","296344.190775","297111.258759","297877.661093","298644.30891","299411.274248","303254.790253","Mapping"
"Mixed","both","cave","14","M_bluff.wav","space","383.397646714","339","293294.860336","300177.812618","300944.56339","301710.766308","302477.523263","303244.506224","304011.171665","304777.632123","294061.727666","294810.916473","295577.512658","296344.190775","297111.258759","297877.661093","298644.30891","299411.274248","304020.449952","Mapping"
"Mixed","both","cave","24","M_romp.wav","None","724.521114025","339","307910.4789","300177.812618","300944.56339","301710.766308","302477.523263","303244.506224","304011.171665","304777.632123","294061.727666","294810.916473","295577.512658","296344.190775","297111.258759","297877.661093","298644.30891","299411.274248","304786.717487","Mapping"
"Mixed","both","cave","24","M_cling.wav","None","728.487805929","339","307910.4789","300177.812618","300944.56339","301710.766308","302477.523263","303244.506224","304011.171665","304777.632123","308677.801333","294810.916473","295577.512658","296344.190775","297111.258759","297877.661093","298644.30891","299411.274248","307919.598273","Mapping"
"Mixed","both","cave","24","F_romp.wav","None","726.244445425","339","307910.4789","300177.812618","300944.56339","301710.766308","302477.523263","303244.506224","304011.171665","304777.632123","308677.801333","309444.450079","295577.512658","296344.190775","297111.258759","297877.661093","298644.30891","299411.274248","308687.498242","Mapping"
"Mixed","both","cave","24","F_cave.wav","None","724.840490147","339","307910.4789","300177.812618","300944.56339","301710.766308","302477.523263","303244.506224","304011.171665","304777.632123","308677.801333","309444.450079","310211.760454","296344.190775","297111.258759","297877.661093","298644.30891","299411.274248","309454.475947","Mapping"
"Mixed","both","cave","24","F_dime.wav","space","493.712808471","339","307910.4789","300177.812618","300944.56339","301710.766308","302477.523263","303244.506224","304011.171665","304777.632123","308677.801333","309444.450079","310211.760454","310977.560209","297111.258759","297877.661093","298644.30891","299411.274248","310221.984812","Mapping"
"Mixed","both","cave","24","F_jolt.wav","None","723.34471019","339","307910.4789","300177.812618","300944.56339","301710.766308","302477.523263","303244.506224","304011.171665","304777.632123","308677.801333","309444.450079","310211.760454","310977.560209","311744.365705","297877.661093","298644.30891","299411.274248","310986.628259","Mapping"
"Mixed","both","cave","24","M_cave.wav","None","725.329601672","339","307910.4789","300177.812618","300944.56339","301710.766308","302477.523263","303244.506224","304011.171665","304777.632123","308677.801333","309444.450079","310211.760454","310977.560209","311744.365705","312511.340318","298644.30891","299411.274248","311753.682949","Mapping"
"Mixed","both","cave","24","M_greet.wav","space","463.171133772","339","307910.4789","300177.812618","300944.56339","301710.766308","302477.523263","303244.506224","304011.171665","304777.632123","308677.801333","309444.450079","310211.760454","310977.560209","311744.365705","312511.340318","313277.920427","299411.274248","312516.471666","Mapping"
"Mixed","both","cave","24","F_cave.wav","None","721.383933444","339","307910.4789","300177.812618","300944.56339","301710.766308","302477.523263","303244.506224","304011.171665","304777.632123","308677.801333","309444.450079","310211.760454","310977.560209","311744.365705","312511.340318","313277.920427","314044.284114","313288.40078","Mapping"
"Mixed","both","cave","24","M_priest.wav","None","721.873663832","339","307910.4789","314811.424444","300944.56339","301710.766308","302477.523263","303244.506224","304011.171665","304777.632123","308677.801333","309444.450079","310211.760454","310977.560209","311744.365705","312511.340318","313277.920427","314044.284114","314053.647425","Mapping"
"Mixed","both","cave","24","M_knife.wav","space","22.0505418256","339","307910.4789","314811.424444","315561.162961","301710.766308","302477.523263","303244.506224","304011.171665","304777.632123","308677.801333","309444.450079","310211.760454","310977.560209","311744.365705","312511.340318","313277.920427","314044.284114","314821.592533","Mapping"
"Mixed","both","cave","24","M_cave.wav","None","735.212323256","339","307910.4789","314811.424444","315561.162961","316327.082367","302477.523263","303244.506224","304011.171665","304777.632123","308677.801333","309444.450079","310211.760454","310977.560209","311744.365705","312511.340318","313277.920427","314044.284114","315571.191921","Mapping"
"Mixed","both","cave","24","F_knife.wav","space","459.021101706","339","307910.4789","314811.424444","315561.162961","316327.082367","317093.803149","303244.506224","304011.171665","304777.632123","308677.801333","309444.450079","310211.760454","310977.560209","311744.365705","312511.340318","313277.920427","314044.284114","316336.595317","Mapping"
"Mixed","both","cave","24","F_jolt.wav","None","734.221423045","339","307910.4789","314811.424444","315561.162961","316327.082367","317093.803149","317861.076424","304011.171665","304777.632123","308677.801333","309444.450079","310211.760454","310977.560209","311744.365705","312511.340318","313277.920427","314044.284114","317103.055466","Mapping"
"Mixed","both","cave","24","F_jaw.wav","None","732.358654495","339","307910.4789","314811.424444","315561.162961","316327.082367","317093.803149","317861.076424","318627.497308","304777.632123","308677.801333","309444.450079","310211.760454","310977.560209","311744.365705","312511.340318","313277.920427","314044.284114","317870.787554","Mapping"
"Mixed","both","cave","24","M_depth.wav","None","731.94034351","339","307910.4789","314811.424444","315561.162961","316327.082367","317093.803149","317861.076424","318627.497308","319394.17357","308677.801333","309444.450079","310211.760454","310977.560209","311744.365705","312511.340318","313277.920427","314044.284114","318636.896791","Mapping"
"Mixed","both","done","39","M_knife.wav","None","730.849579908","339","322527.862534","314811.424444","315561.162961","316327.082367","317093.803149","317861.076424","318627.497308","319394.17357","308677.801333","309444.450079","310211.760454","310977.560209","311744.365705","312511.340318","313277.920427","314044.284114","319403.744953","Mapping"
"Mixed","both","done","39","M_done.wav","None","721.225945745","339","322527.862534","314811.424444","315561.162961","316327.082367","317093.803149","317861.076424","318627.497308","319394.17357","323293.781939","309444.450079","310211.760454","310977.560209","311744.365705","312511.340318","313277.920427","314044.284114","322538.407505","Mapping"
"Mixed","both","done","39","M_knife.wav","space","524.238715414","339","322527.862534","314811.424444","315561.162961","316327.082367","317093.803149","317861.076424","318627.497308","319394.17357","323293.781939","324061.151058","310211.760454","310977.560209","311744.365705","312511.340318","313277.920427","314044.284114","323303.217287","Mapping"
"Mixed","both","done","39","F_jolt.wav","None","721.979401074","339","322527.862534","314811.424444","315561.162961","316327.082367","317093.803149","317861.076424","318627.497308","319394.17357","323293.781939","324061.151058","324827.733331","310977.560209","311744.365705","312511.340318","313277.920427","314044.284114","324071.764974","Mapping"
"Mixed","both","done","39","M_knife.wav","None","722.010009456","339","322527.862534","314811.424444","315561.162961","316327.082367","317093.803149","317861.076424","318627.497308","319394.17357","323293.781939","324061.151058","324827.733331","325594.505436","311744.365705","312511.340318","313277.920427","314044.284114","324837.549889","Mapping"
"Mixed","both","done","39","F_cad.wav","None","720.444356091","339","322527.862534","314811.424444","315561.162961","316327.082367","317093.803149","317861.076424","318627.497308","319394.17357","323293.781939","324061.151058","324827.733331","325594.505436","326360.765241","312511.340318","313277.920427","314044.284114","325605.034329","Mapping"
"Mixed","both","done","39","F_done.wav","None","721.294891555","339","322527.862534","314811.424444","315561.162961","316327.082367","317093.803149","317861.076424","318627.497308","319394.17357","323293.781939","324061.151058","324827.733331","325594.505436","326360.765241","327127.67802","313277.920427","314044.284114","326370.158232","Mapping"
"Mixed","both","done","39","F_lash.wav","space","625.470058993","339","322527.862534","314811.424444","315561.162961","316327.082367","317093.803149","317861.076424","318627.497308","319394.17357","323293.781939","324061.151058","324827.733331","325594.505436","326360.765241","327127.67802","327894.437139","314044.284114","327137.896194","Mapping"
"Mixed","both","done","39","M_romp.wav","None","719.396567903","339","322527.862534","314811.424444","315561.162961","316327.082367","317093.803149","317861.076424","318627.497308","319394.17357","323293.781939","324061.151058","324827.733331","325594.505436","326360.765241","327127.67802","327894.437139","328661.254693","327905.964044","Mapping"
"Mixed","both","done","39","F_done.wav","None","719.573106151","339","322527.862534","329427.227276","315561.162961","316327.082367","317093.803149","317861.076424","318627.497308","319394.17357","323293.781939","324061.151058","324827.733331","325594.505436","326360.765241","327127.67802","327894.437139","328661.254693","328671.530064","Mapping"
"Mixed","both","done","39","M_park.wav","space","382.18785217","339","322527.862534","329427.227276","330177.103066","316327.082367","317093.803149","317861.076424","318627.497308","319394.17357","323293.781939","324061.151058","324827.733331","325594.505436","326360.765241","327127.67802","327894.437139","328661.254693","329437.145552","Mapping"
"Mixed","both","done","39","F_depth.wav","None","734.899439849","339","322527.862534","329427.227276","330177.103066","330943.92031","317093.803149","317861.076424","318627.497308","319394.17357","323293.781939","324061.151058","324827.733331","325594.505436","326360.765241","327127.67802","327894.437139","328661.254693","330186.935083","Mapping"
"Mixed","both","done","39","M_jaw.wav","None","733.73416625","339","322527.862534","329427.227276","330177.103066","330943.92031","331710.6009","317861.076424","318627.497308","319394.17357","323293.781939","324061.151058","324827.733331","325594.505436","326360.765241","327127.67802","327894.437139","328661.254693","330953.888672","Mapping"
"Mixed","both","done","39","F_park.wav","None","733.293903526","339","322527.862534","329427.227276","330177.103066","330943.92031","331710.6009","332476.960568","318627.497308","319394.17357","323293.781939","324061.151058","324827.733331","325594.505436","326360.765241","327127.67802","327894.437139","328661.254693","331720.165482","Mapping"
"Mixed","both","done","39","M_done.wav","None","732.830143534","339","322527.862534","329427.227276","330177.103066","330943.92031","331710.6009","332476.960568","333243.600037","319394.17357","323293.781939","324061.151058","324827.733331","325594.505436","326360.765241","327127.67802","327894.437139","328661.254693","332486.435181","Mapping"
"Mixed","both","done","39","F_priest.wav","None","732.118426822","339","322527.862534","329427.227276","330177.103066","330943.92031","331710.6009","332476.960568","333243.600037","334010.614534","323293.781939","324061.151058","324827.733331","325594.505436","326360.765241","327127.67802","327894.437139","328661.254693","333252.986845","Mapping"
"Mixed","both","tile","32","M_depth.wav","space","12.360744644","339","337144.314629","329427.227276","330177.103066","330943.92031","331710.6009","332476.960568","333243.600037","334010.614534","323293.781939","324061.151058","324827.733331","325594.505436","326360.765241","327127.67802","327894.437139","328661.254693","334014.929665","Mapping"
"Mixed","both","tile","32","M_tile.wav","None","720.656448975","339","337144.314629","329427.227276","330177.103066","330943.92031","331710.6009","332476.960568","333243.600037","334010.614534","337911.14084","324061.151058","324827.733331","325594.505436","326360.765241","327127.67802","327894.437139","328661.254693","337154.59402","Mapping"
"Mixed","both","tile","32","F_reek.wav","space","537.848209962","339","337144.314629","329427.227276","330177.103066","330943.92031","331710.6009","332476.960568","333243.600037","334010.614534","337911.14084","338677.003048","324827.733331","325594.505436","326360.765241","327127.67802","327894.437139","328661.254693","337921.386531","Mapping"
"Mixed","both","tile","32","M_tile.wav","None","720.195780508","339","337144.314629","329427.227276","330177.103066","330943.92031","331710.6009","332476.960568","333243.600037","334010.614534","337911.14084","338677.003048","339427.195122","325594.505436","326360.765241","327127.67802","327894.437139","328661.254693","338686.194459","Mapping"
"Mixed","both","tile","32","M_dime.wav","space","405.590098817","339","337144.314629","329427.227276","330177.103066","330943.92031","331710.6009","332476.960568","333243.600037","334010.614534","337911.14084","338677.003048","339427.195122","340193.439777","326360.765241","327127.67802","327894.437139","328661.254693","339437.515633","Mapping"
"Mixed","both","tile","32","F_jaw.wav","None","734.902222641","339","337144.314629","329427.227276","330177.103066","330943.92031","331710.6009","332476.960568","333243.600037","334010.614534","337911.14084","338677.003048","339427.195122","340193.439777","340960.573306","327127.67802","327894.437139","328661.254693","340202.659632","Mapping"
"Mixed","both","tile","32","F_tile.wav","None","733.306579757","339","337144.314629","329427.227276","330177.103066","330943.92031","331710.6009","332476.960568","333243.600037","334010.614534","337911.14084","338677.003048","339427.195122","340193.439777","340960.573306","341726.763547","327894.437139","328661.254693","340970.244244","Mapping"
"Mixed","both","tile","32","M_cling.wav","space","498.990085442","339","337144.314629","329427.227276","330177.103066","330943.92031","331710.6009","332476.960568","333243.600037","334010.614534","337911.14084","338677.003048","339427.195122","340193.439777","340960.573306","341726.763547","342493.832767","328661.254693","341736.119747","Mapping"
"Mixed","both","tile","32","M_greet.wav","None","731.64817458","339","337144.314629","329427.227276","330177.103066","330943.92031","331710.6009","332476.960568","333243.600037","334010.614534","337911.14084","338677.003048","339427.195122","340193.439777","340960.573306","341726.763547","342493.832767","343260.427407","342503.075191","Mapping"
"Mixed","both","tile","32","F_lash.wav","None","730.617390946","339","337144.314629","344027.039979","330177.103066","330943.92031","331710.6009","332476.960568","333243.600037","334010.614534","337911.14084","338677.003048","339427.195122","340193.439777","340960.573306","341726.763547","342493.832767","343260.427407","343270.206556","Mapping"
"Mixed","both","tile","32","F_jaw.wav","None","730.253493879","339","337144.314629","344027.039979","344793.799717","330943.92031","331710.6009","332476.960568","333243.600037","334010.614534","337911.14084","338677.003048","339427.195122","340193.439777","340960.573306","341726.763547","342493.832767","343260.427407","344036.858083","Mapping"
"Mixed","both","tile","32","F_tile.wav","None","729.332776275","339","337144.314629","344027.039979","344793.799717","345560.343652","331710.6009","332476.960568","333243.600037","334010.614534","337911.14084","338677.003048","339427.195122","340193.439777","340960.573306","341726.763547","342493.832767","343260.427407","344803.607309","Mapping"
"Mixed","both","tile","32","M_bluff.wav","space","480.887995102","339","337144.314629","344027.039979","344793.799717","345560.343652","346327.06629","332476.960568","333243.600037","334010.614534","337911.14084","338677.003048","339427.195122","340193.439777","340960.573306","341726.763547","342493.832767","343260.427407","345570.147534","Mapping"
"Mixed","both","tile","32","M_depth.wav","None","726.734175812","339","337144.314629","344027.039979","344793.799717","345560.343652","346327.06629","347093.680098","333243.600037","334010.614534","337911.14084","338677.003048","339427.195122","340193.439777","340960.573306","341726.763547","342493.832767","343260.427407","346337.064642","Mapping"
"Mixed","both","tile","32","F_park.wav","None","726.571241394","339","337144.314629","344027.039979","344793.799717","345560.343652","346327.06629","347093.680098","347859.94485","334010.614534","337911.14084","338677.003048","339427.195122","340193.439777","340960.573306","341726.763547","342493.832767","343260.427407","347103.160585","Mapping"
"Mixed","both","tile","32","F_park.wav","None","726.79075459","339","337144.314629","344027.039979","344793.799717","345560.343652","346327.06629","347093.680098","347859.94485","348626.972332","337911.14084","338677.003048","339427.195122","340193.439777","340960.573306","341726.763547","342493.832767","343260.427407","347869.228703","Mapping"
"Mixed","both","cave","20","F_jaw.wav","None","725.408440921","339","351760.676446","344027.039979","344793.799717","345560.343652","346327.06629","347093.680098","347859.94485","348626.972332","337911.14084","338677.003048","339427.195122","340193.439777","340960.573306","341726.763547","342493.832767","343260.427407","348636.681298","Mapping"
"Mixed","both","cave","20","M_greet.wav","None","721.319934819","339","351760.676446","344027.039979","344793.799717","345560.343652","346327.06629","347093.680098","347859.94485","348626.972332","352527.12732","338677.003048","339427.195122","340193.439777","340960.573306","341726.763547","342493.832767","343260.427407","351770.693349","Mapping"
"Mixed","both","cave","20","M_lash.wav","None","721.883557271","339","351760.676446","344027.039979","344793.799717","345560.343652","346327.06629","347093.680098","347859.94485","348626.972332","352527.12732","353293.440612","339427.195122","340193.439777","340960.573306","341726.763547","342493.832767","343260.427407","352536.156415","Mapping"
"Mixed","both","cave","20","F_cave.wav","None","724.291088991","339","351760.676446","344027.039979","344793.799717","345560.343652","346327.06629","347093.680098","347859.94485","348626.972332","352527.12732","353293.440612","354060.654835","340193.439777","340960.573306","341726.763547","342493.832767","343260.427407","353302.696949","Mapping"
"Mixed","both","cave","20","F_knife.wav","space","412.062021438","339","351760.676446","344027.039979","344793.799717","345560.343652","346327.06629","347093.680098","347859.94485","348626.972332","352527.12732","353293.440612","354060.654835","354826.74645","340960.573306","341726.763547","342493.832767","343260.427407","354070.847966","Mapping"
"Mixed","both","cave","20","M_cling.wav","None","721.531718038","339","351760.676446","344027.039979","344793.799717","345560.343652","346327.06629","347093.680098","347859.94485","348626.972332","352527.12732","353293.440612","354060.654835","354826.74645","355593.263487","341726.763547","342493.832767","343260.427407","354836.495609","Mapping"
"Mixed","both","cave","20","M_cave.wav","None","721.444840543","339","351760.676446","344027.039979","344793.799717","345560.343652","346327.06629","347093.680098","347859.94485","348626.972332","352527.12732","353293.440612","354060.654835","354826.74645","355593.263487","356360.667542","342493.832767","343260.427407","355602.665135","Mapping"
"Mixed","both","cave","20","M_knife.wav","space","584.153698757","339","351760.676446","344027.039979","344793.799717","345560.343652","346327.06629","347093.680098","347859.94485","348626.972332","352527.12732","353293.440612","354060.654835","354826.74645","355593.263487","356360.667542","357109.759268","343260.427407","356370.726183","Mapping"
"Mixed","both","cave","20","F_gnash.wav","None","736.081718467","339","351760.676446","344027.039979","344793.799717","345560.343652","346327.06629","347093.680098","347859.94485","348626.972332","352527.12732","353293.440612","354060.654835","354826.74645","355593.263487","356360.667542","357109.759268","357876.605884","357119.151641","Mapping"
"Mixed","both","cave","20","F_cave.wav","None","735.177695751","339","351760.676446","358643.408597","344793.799717","345560.343652","346327.06629","347093.680098","347859.94485","348626.972332","352527.12732","353293.440612","354060.654835","354826.74645","355593.263487","356360.667542","357109.759268","357876.605884","357886.110487","Mapping"
"Mixed","both","cave","20","F_cling.wav","space","469.980983064","339","351760.676446","358643.408597","359410.139892","345560.343652","346327.06629","347093.680098","347859.94485","348626.972332","352527.12732","353293.440612","354060.654835","354826.74645","355593.263487","356360.667542","357109.759268","357876.605884","358652.83096","Mapping"
"Mixed","both","cave","20","M_cave.wav","None","732.414614875","339","351760.676446","358643.408597","359410.139892","360176.80224","346327.06629","347093.680098","347859.94485","348626.972332","352527.12732","353293.440612","354060.654835","354826.74645","355593.263487","356360.667542","357109.759268","357876.605884","359419.798463","Mapping"
"Mixed","both","cave","20","F_jaw.wav","None","731.752984226","339","351760.676446","358643.408597","359410.139892","360176.80224","360943.387914","347093.680098","347859.94485","348626.972332","352527.12732","353293.440612","354060.654835","354826.74645","355593.263487","356360.667542","357109.759268","357876.605884","360186.54707","Mapping"
"Mixed","both","cave","20","F_knife.wav","space","89.8921075277","339","351760.676446","358643.408597","359410.139892","360176.80224","360943.387914","361709.801378","347859.94485","348626.972332","352527.12732","353293.440612","354060.654835","354826.74645","355593.263487","356360.667542","357109.759268","357876.605884","360952.928381","Mapping"
"Mixed","both","cave","20","M_lash.wav","None","730.00059044","339","351760.676446","358643.408597","359410.139892","360176.80224","360943.387914","361709.801378","362476.755277","348626.972332","352527.12732","353293.440612","354060.654835","354826.74645","355593.263487","356360.667542","357109.759268","357876.605884","361719.254348","Mapping"
"Mixed","both","cave","20","M_park.wav","space","492.499613203","339","351760.676446","358643.408597","359410.139892","360176.80224","360943.387914","361709.801378","362476.755277","363243.370631","352527.12732","353293.440612","354060.654835","354826.74645","355593.263487","356360.667542","357109.759268","357876.605884","362486.221542","Mapping"
"Mixed","both","cave","21","M_knife.wav","None","727.458568756","339","366376.972718","358643.408597","359410.139892","360176.80224","360943.387914","361709.801378","362476.755277","363243.370631","352527.12732","353293.440612","354060.654835","354826.74645","355593.263487","356360.667542","357109.759268","357876.605884","363252.774443","Mapping"
"Mixed","both","cave","21","M_depth.wav","None","721.922822297","339","366376.972718","358643.408597","359410.139892","360176.80224","360943.387914","361709.801378","362476.755277","363243.370631","367143.691645","353293.440612","354060.654835","354826.74645","355593.263487","356360.667542","357109.759268","357876.605884","366387.001679","Mapping"
"Mixed","both","cave","21","M_cave.wav","None","720.570808277","339","366376.972718","358643.408597","359410.139892","360176.80224","360943.387914","361709.801378","362476.755277","363243.370631","367143.691645","367909.843858","354060.654835","354826.74645","355593.263487","356360.667542","357109.759268","357876.605884","367154.232287","Mapping"
"Mixed","both","cave","21","F_dime.wav","space","435.482200701","339","366376.972718","358643.408597","359410.139892","360176.80224","360943.387914","361709.801378","362476.755277","363243.370631","367143.691645","367909.843858","368676.985735","354826.74645","355593.263487","356360.667542","357109.759268","357876.605884","367919.172232","Mapping"
"Mixed","both","cave","21","F_greet.wav","None","718.290655874","339","366376.972718","358643.408597","359410.139892","360176.80224","360943.387914","361709.801378","362476.755277","363243.370631","367143.691645","367909.843858","368676.985735","369426.521743","355593.263487","356360.667542","357109.759268","357876.605884","368687.33438","Mapping"
"Mixed","both","cave","21","F_cave.wav","None","735.761414748","339","366376.972718","358643.408597","359410.139892","360176.80224","360943.387914","361709.801378","362476.755277","363243.370631","367143.691645","367909.843858","368676.985735","369426.521743","370193.086084","356360.667542","357109.759268","357876.605884","369435.954927","Mapping"
"Mixed","both","cave","21","F_park.wav","space","528.026395943","339","366376.972718","358643.408597","359410.139892","360176.80224","360943.387914","361709.801378","362476.755277","363243.370631","367143.691645","367909.843858","368676.985735","369426.521743","370193.086084","370959.973201","357109.759268","357876.605884","370202.618511","Mapping"
"Mixed","both","cave","21","F_cling.wav","None","733.488682657","339","366376.972718","358643.408597","359410.139892","360176.80224","360943.387914","361709.801378","362476.755277","363243.370631","367143.691645","367909.843858","368676.985735","369426.521743","370193.086084","370959.973201","371726.471688","357876.605884","370969.239431","Mapping"
"Mixed","both","cave","21","F_jolt.wav","None","735.090818256","339","366376.972718","358643.408597","359410.139892","360176.80224","360943.387914","361709.801378","362476.755277","363243.370631","367143.691645","367909.843858","368676.985735","369426.521743","370193.086084","370959.973201","371726.471688","372492.887625","371735.790786","Mapping"
"Mixed","both","cave","21","M_cave.wav","None","734.661376569","339","366376.972718","373259.859456","359410.139892","360176.80224","360943.387914","361709.801378","362476.755277","363243.370631","367143.691645","367909.843858","368676.985735","369426.521743","370193.086084","370959.973201","371726.471688","372492.887625","372502.228984","Mapping"
"Mixed","both","cave","21","F_jolt.wav","space","645.002694335","339","366376.972718","373259.859456","374026.114624","360176.80224","360943.387914","361709.801378","362476.755277","363243.370631","367143.691645","367909.843858","368676.985735","369426.521743","370193.086084","370959.973201","371726.471688","372492.887625","373269.56564","Mapping"
"Mixed","both","cave","21","F_cave.wav","None","732.780676335","339","366376.972718","373259.859456","374026.114624","374793.223109","360943.387914","361709.801378","362476.755277","363243.370631","367143.691645","367909.843858","368676.985735","369426.521743","370193.086084","370959.973201","371726.471688","372492.887625","374035.291811","Mapping"
"Mixed","both","cave","21","M_bluff.wav","space","630.977979861","339","366376.972718","373259.859456","374026.114624","374793.223109","375559.824551","361709.801378","362476.755277","363243.370631","367143.691645","367909.843858","368676.985735","369426.521743","370193.086084","370959.973201","371726.471688","372492.887625","374803.540219","Mapping"
"Mixed","both","cave","21","M_cad.wav","None","729.983585887","339","366376.972718","373259.859456","374026.114624","374793.223109","375559.824551","376326.081882","362476.755277","363243.370631","367143.691645","367909.843858","368676.985735","369426.521743","370193.086084","370959.973201","371726.471688","372492.887625","375569.487759","Mapping"
"Mixed","both","cave","21","M_jaw.wav","None","730.407153256","339","366376.972718","373259.859456","374026.114624","374793.223109","375559.824551","376326.081882","377092.742994","363243.370631","367143.691645","367909.843858","368676.985735","369426.521743","370193.086084","370959.973201","371726.471688","372492.887625","376335.086861","Mapping"
"Mixed","both","cave","21","M_jaw.wav","None","729.48365286","339","366376.972718","373259.859456","374026.114624","374793.223109","375559.824551","376326.081882","377092.742994","377859.830147","367143.691645","367909.843858","368676.985735","369426.521743","370193.086084","370959.973201","371726.471688","372492.887625","377102.1264","Mapping"
"Mixed","both","done","44","F_romp.wav","None","728.53851039","339","380993.335772","373259.859456","374026.114624","374793.223109","375559.824551","376326.081882","377092.742994","377859.830147","367143.691645","367909.843858","368676.985735","369426.521743","370193.086084","370959.973201","371726.471688","372492.887625","377869.421009","Mapping"
"Mixed","both","done","44","M_dime.wav","None","720.712100156","339","380993.335772","373259.859456","374026.114624","374793.223109","375559.824551","376326.081882","377092.742994","377859.830147","381759.76655","367909.843858","368676.985735","369426.521743","370193.086084","370959.973201","371726.471688","372492.887625","381003.730484","Mapping"
"Mixed","both","done","44","M_priest.wav","None","721.52615292","339","380993.335772","373259.859456","374026.114624","374793.223109","375559.824551","376326.081882","377092.742994","377859.830147","381759.76655","382526.765279","368676.985735","369426.521743","370193.086084","370959.973201","371726.471688","372492.887625","381769.111619","Mapping"
"Mixed","both","done","44","F_cling.wav","None","725.116890855","339","380993.335772","373259.859456","374026.114624","374793.223109","375559.824551","376326.081882","377092.742994","377859.830147","381759.76655","382526.765279","383293.349097","369426.521743","370193.086084","370959.973201","371726.471688","372492.887625","382531.807584","Mapping"
"Mixed","both","done","44","F_done.wav","None","719.817662146","339","380993.335772","373259.859456","374026.114624","374793.223109","375559.824551","376326.081882","377092.742994","377859.830147","381759.76655","382526.765279","383293.349097","384060.132333","370193.086084","370959.973201","371726.471688","372492.887625","383303.336628","Mapping"
"Mixed","both","done","44","F_cad.wav","space","452.063777484","339","380993.335772","373259.859456","374026.114624","374793.223109","375559.824551","376326.081882","377092.742994","377859.830147","381759.76655","382526.765279","383293.349097","384060.132333","384809.440171","370959.973201","371726.471688","372492.887625","384070.289291","Mapping"
"Mixed","both","done","44","M_priest.wav","None","735.527988989","339","380993.335772","373259.859456","374026.114624","374793.223109","375559.824551","376326.081882","377092.742994","377859.830147","381759.76655","382526.765279","383293.349097","384060.132333","384809.440171","385576.037284","371726.471688","372492.887625","384819.009391","Mapping"
"Mixed","both","done","44","M_knife.wav","None","734.648391139","339","380993.335772","373259.859456","374026.114624","374793.223109","375559.824551","376326.081882","377092.742994","377859.830147","381759.76655","382526.765279","383293.349097","384060.132333","384809.440171","385576.037284","386342.942333","372492.887625","385586.092524","Mapping"
"Mixed","both","done","44","M_jaw.wav","None","734.231934883","339","380993.335772","373259.859456","374026.114624","374793.223109","375559.824551","376326.081882","377092.742994","377859.830147","381759.76655","382526.765279","383293.349097","384060.132333","384809.440171","385576.037284","386342.942333","387109.298291","386352.628111","Mapping"
"Mixed","both","done","44","F_jaw.wav","None","733.735403046","339","380993.335772","387876.208906","374026.114624","374793.223109","375559.824551","376326.081882","377092.742994","377859.830147","381759.76655","382526.765279","383293.349097","384060.132333","384809.440171","385576.037284","386342.942333","387109.298291","387119.327561","Mapping"
"Mixed","both","done","44","M_done.wav","None","733.447253704","339","380993.335772","387876.208906","388642.86909","374793.223109","375559.824551","376326.081882","377092.742994","377859.830147","381759.76655","382526.765279","383293.349097","384060.132333","384809.440171","385576.037284","386342.942333","387109.298291","387885.879534","Mapping"
"Mixed","both","done","44","M_knife.wav","space","516.950575169","339","380993.335772","387876.208906","388642.86909","389409.587399","375559.824551","376326.081882","377092.742994","377859.830147","381759.76655","382526.765279","383293.349097","384060.132333","384809.440171","385576.037284","386342.942333","387109.298291","388653.329966","Mapping"
"Mixed","both","done","44","M_done.wav","None","730.775997043","339","380993.335772","387876.208906","388642.86909","389409.587399","390175.900382","376326.081882","377092.742994","377859.830147","381759.76655","382526.765279","383293.349097","384060.132333","384809.440171","385576.037284","386342.942333","387109.298291","389419.599046","Mapping"
"Mixed","both","done","44","F_knife.wav","space","561.217376031","339","380993.335772","387876.208906","388642.86909","389409.587399","390175.900382","390942.933429","377092.742994","377859.830147","381759.76655","382526.765279","383293.349097","384060.132333","384809.440171","385576.037284","386342.942333","387109.298291","390185.04387","Mapping"
"Mixed","both","done","44","F_done.wav","None","728.731743991","339","380993.335772","387876.208906","388642.86909","389409.587399","390175.900382","390942.933429","391709.007421","377859.830147","381759.76655","382526.765279","383293.349097","384060.132333","384809.440171","385576.037284","386342.942333","387109.298291","390952.808421","Mapping"
"Mixed","both","done","44","F_romp.wav","space","508.026599884","339","380993.335772","387876.208906","388642.86909","389409.587399","390175.900382","390942.933429","391709.007421","392475.806734","381759.76655","382526.765279","383293.349097","384060.132333","384809.440171","385576.037284","386342.942333","387109.298291","391718.145035","Mapping"
"Mixed","both","ball","10","M_jaw.wav","None","727.515765466","339","395609.55135","387876.208906","388642.86909","389409.587399","390175.900382","390942.933429","391709.007421","392475.806734","381759.76655","382526.765279","383293.349097","384060.132333","384809.440171","385576.037284","386342.942333","387109.298291","392485.185193","Mapping"
"Mixed","both","ball","10","M_reek.wav","None","393.351478036","339","395609.55135","387876.208906","388642.86909","389409.587399","390175.900382","390942.933429","391709.007421","392475.806734","396376.463819","382526.765279","383293.349097","384060.132333","384809.440171","385576.037284","386342.942333","387109.298291","395948.232658","Mapping"
"Mixed","both","ball","10","M_gnash.wav","None","718.545105308","339","395609.55135","387876.208906","388642.86909","389409.587399","390175.900382","390942.933429","391709.007421","392475.806734","396376.463819","397143.090613","383293.349097","384060.132333","384809.440171","385576.037284","386342.942333","387109.298291","396389.192789","Mapping"
"Mixed","both","ball","10","F_depth.wav","None","724.604590796","339","395609.55135","387876.208906","388642.86909","389409.587399","390175.900382","390942.933429","391709.007421","392475.806734","396376.463819","397143.090613","397909.05794","384060.132333","384809.440171","385576.037284","386342.942333","387109.298291","397152.736507","Mapping"
"Mixed","both","ball","10","F_cling.wav","None","725.258491933","339","395609.55135","387876.208906","388642.86909","389409.587399","390175.900382","390942.933429","391709.007421","392475.806734","396376.463819","397143.090613","397909.05794","398676.386866","384809.440171","385576.037284","386342.942333","387109.298291","397918.333754","Mapping"
"Mixed","both","ball","10","M_ball.wav","None","723.206818569","339","395609.55135","387876.208906","388642.86909","389409.587399","390175.900382","390942.933429","391709.007421","392475.806734","396376.463819","397143.090613","397909.05794","398676.386866","399443.20782","385576.037284","386342.942333","387109.298291","398686.658218","Mapping"
"Mixed","both","ball","10","M_jaw.wav","space","484.937855043","339","395609.55135","387876.208906","388642.86909","389409.587399","390175.900382","390942.933429","391709.007421","392475.806734","396376.463819","397143.090613","397909.05794","398676.386866","399443.20782","400209.717438","386342.942333","387109.298291","399453.163506","Mapping"
"Mixed","both","ball","10","M_jaw.wav","None","721.341576893","339","395609.55135","387876.208906","388642.86909","389409.587399","390175.900382","390942.933429","391709.007421","392475.806734","396376.463819","397143.090613","397909.05794","398676.386866","399443.20782","400209.717438","400975.809361","387109.298291","400220.111531","Mapping"
"Mixed","both","ball","10","F_greet.wav","None","722.127185669","339","395609.55135","387876.208906","388642.86909","389409.587399","390175.900382","390942.933429","391709.007421","392475.806734","396376.463819","397143.090613","397909.05794","398676.386866","399443.20782","400209.717438","400975.809361","401742.466454","400985.540279","Mapping"
"Mixed","both","ball","10","M_ball.wav","None","722.096886951","339","395609.55135","402509.675112","388642.86909","389409.587399","390175.900382","390942.933429","391709.007421","392475.806734","396376.463819","397143.090613","397909.05794","398676.386866","399443.20782","400209.717438","400975.809361","401742.466454","401751.685071","Mapping"
"Mixed","both","ball","10","F_cad.wav","space","450.024161488","339","395609.55135","402509.675112","403275.736427","389409.587399","390175.900382","390942.933429","391709.007421","392475.806734","396376.463819","397143.090613","397909.05794","398676.386866","399443.20782","400209.717438","400975.809361","401742.466454","402520.007371","Mapping"
"Mixed","both","ball","10","F_dime.wav","None","724.165564403","339","395609.55135","402509.675112","403275.736427","404043.099981","390175.900382","390942.933429","391709.007421","392475.806734","396376.463819","397143.090613","397909.05794","398676.386866","399443.20782","400209.717438","400975.809361","401742.466454","403284.878988","Mapping"
"Mixed","both","ball","10","F_ball.wav","None","722.009700257","339","395609.55135","402509.675112","403275.736427","404043.099981","404809.737905","390942.933429","391709.007421","392475.806734","396376.463819","397143.090613","397909.05794","398676.386866","399443.20782","400209.717438","400975.809361","401742.466454","404053.32372","Mapping"
"Mixed","both","ball","10","M_greet.wav","space","381.025051698","339","395609.55135","402509.675112","403275.736427","404043.099981","404809.737905","405576.293898","391709.007421","392475.806734","396376.463819","397143.090613","397909.05794","398676.386866","399443.20782","400209.717438","400975.809361","401742.466454","404837.003271","Mapping"
"Mixed","both","ball","10","F_ball.wav","None","720.186815131","339","395609.55135","402509.675112","403275.736427","404043.099981","404809.737905","405576.293898","406342.458477","392475.806734","396376.463819","397143.090613","397909.05794","398676.386866","399443.20782","400209.717438","400975.809361","401742.466454","405586.46415","Mapping"
"Mixed","both","ball","10","F_reek.wav","space","386.16567431","339","395609.55135","402509.675112","403275.736427","404043.099981","404809.737905","405576.293898","406342.458477","407109.645802","396376.463819","397143.090613","397909.05794","398676.386866","399443.20782","400209.717438","400975.809361","401742.466454","406351.784687","Mapping"
"Mixed","both","tile","28","F_cad.wav","None","718.511096202","339","410226.31942","402509.675112","403275.736427","404043.099981","404809.737905","405576.293898","406342.458477","407109.645802","396376.463819","397143.090613","397909.05794","398676.386866","399443.20782","400209.717438","400975.809361","401742.466454","407119.756693","Mapping"
"Mixed","both","tile","28","M_jolt.wav","None","721.663426142","339","410226.31942","402509.675112","403275.736427","404043.099981","404809.737905","405576.293898","406342.458477","407109.645802","410992.294167","397143.090613","397909.05794","398676.386866","399443.20782","400209.717438","400975.809361","401742.466454","410236.300767","Mapping"
"Mixed","both","tile","28","F_tile.wav","None","723.021314479","339","410226.31942","402509.675112","403275.736427","404043.099981","404809.737905","405576.293898","406342.458477","407109.645802","410992.294167","411759.837969","397909.05794","398676.386866","399443.20782","400209.717438","400975.809361","401742.466454","411001.485577","Mapping"
"Mixed","both","tile","28","F_dime.wav","None","720.373555552","339","410226.31942","402509.675112","403275.736427","404043.099981","404809.737905","405576.293898","406342.458477","407109.645802","410992.294167","411759.837969","412526.227008","398676.386866","399443.20782","400209.717438","400975.809361","401742.466454","411770.536289","Mapping"
"Mixed","both","tile","28","M_reek.wav","None","720.872870181","339","410226.31942","402509.675112","403275.736427","404043.099981","404809.737905","405576.293898","406342.458477","407109.645802","410992.294167","411759.837969","412526.227008","413292.814846","399443.20782","400209.717438","400975.809361","401742.466454","412536.33759","Mapping"
"Mixed","both","tile","28","M_tile.wav","None","720.396125223","339","410226.31942","402509.675112","403275.736427","404043.099981","404809.737905","405576.293898","406342.458477","407109.645802","410992.294167","411759.837969","412526.227008","413292.814846","414059.48245","400209.717438","400975.809361","401742.466454","413303.203065","Mapping"
"Mixed","both","tile","28","F_cling.wav","space","644.001900684","339","410226.31942","402509.675112","403275.736427","404043.099981","404809.737905","405576.293898","406342.458477","407109.645802","410992.294167","411759.837969","412526.227008","413292.814846","414059.48245","414826.217764","400975.809361","401742.466454","414069.838825","Mapping"
"Mixed","both","tile","28","M_cad.wav","None","723.96985814","339","410226.31942","402509.675112","403275.736427","404043.099981","404809.737905","405576.293898","406342.458477","407109.645802","410992.294167","411759.837969","412526.227008","413292.814846","414059.48245","414826.217764","415592.847031","401742.466454","414831.547601","Mapping"
"Mixed","both","tile","28","F_bluff.wav","None","718.702474143","339","410226.31942","402509.675112","403275.736427","404043.099981","404809.737905","405576.293898","406342.458477","407109.645802","410992.294167","411759.837969","412526.227008","413292.814846","414059.48245","414826.217764","415592.847031","416359.605841","415603.206497","Mapping"
"Mixed","both","tile","28","M_romp.wav","None","718.650842551","339","410226.31942","417125.614289","403275.736427","404043.099981","404809.737905","405576.293898","406342.458477","407109.645802","410992.294167","411759.837969","412526.227008","413292.814846","414059.48245","414826.217764","415592.847031","416359.605841","416369.712713","Mapping"
"Mixed","both","tile","28","M_jaw.wav","None","719.847033732","339","410226.31942","417125.614289","417893.025764","404043.099981","404809.737905","405576.293898","406342.458477","407109.645802","410992.294167","411759.837969","412526.227008","413292.814846","414059.48245","414826.217764","415592.847031","416359.605841","417135.033868","Mapping"
"Mixed","both","tile","28","M_tile.wav","None","718.286636751","339","410226.31942","417125.614289","417893.025764","418642.448924","404809.737905","405576.293898","406342.458477","407109.645802","410992.294167","411759.837969","412526.227008","413292.814846","414059.48245","414826.217764","415592.847031","416359.605841","417903.042048","Mapping"
"Mixed","both","tile","28","F_gnash.wav","space","373.293557204","339","410226.31942","417125.614289","417893.025764","418642.448924","419408.914329","405576.293898","406342.458477","407109.645802","410992.294167","411759.837969","412526.227008","413292.814846","414059.48245","414826.217764","415592.847031","416359.605841","418652.451605","Mapping"
"Mixed","both","tile","28","F_tile.wav","None","735.658150632","339","410226.31942","417125.614289","417893.025764","418642.448924","419408.914329","420175.480834","406342.458477","407109.645802","410992.294167","411759.837969","412526.227008","413292.814846","414059.48245","414826.217764","415592.847031","416359.605841","419418.39729","Mapping"
"Mixed","both","tile","28","F_lash.wav","space","592.374305241","339","410226.31942","417125.614289","417893.025764","418642.448924","419408.914329","420175.480834","420941.873583","407109.645802","410992.294167","411759.837969","412526.227008","413292.814846","414059.48245","414826.217764","415592.847031","416359.605841","420185.372212","Mapping"
"Mixed","both","tile","28","M_knife.wav","None","734.514210373","339","410226.31942","417125.614289","417893.025764","418642.448924","419408.914329","420175.480834","420941.873583","421708.530367","410992.294167","411759.837969","412526.227008","413292.814846","414059.48245","414826.217764","415592.847031","416359.605841","420951.211851","Mapping"
"Mixed","both","tile","33","F_bluff.wav","None","734.452375211","339","424842.562205","417125.614289","417893.025764","418642.448924","419408.914329","420175.480834","420941.873583","421708.530367","410992.294167","411759.837969","412526.227008","413292.814846","414059.48245","414826.217764","415592.847031","416359.605841","421717.745893","Mapping"
"Mixed","both","tile","33","M_reek.wav","None","721.084653866","339","424842.562205","417125.614289","417893.025764","418642.448924","419408.914329","420175.480834","420941.873583","421708.530367","425608.671443","411759.837969","412526.227008","413292.814846","414059.48245","414826.217764","415592.847031","416359.605841","424852.611261","Mapping"
"Mixed","both","tile","33","M_cling.wav","None","722.002898343","339","424842.562205","417125.614289","417893.025764","418642.448924","419408.914329","420175.480834","420941.873583","421708.530367","425608.671443","426375.336574","412526.227008","413292.814846","414059.48245","414826.217764","415592.847031","416359.605841","425618.062888","Mapping"
"Mixed","both","tile","33","F_tile.wav","None","722.056075931","339","424842.562205","417125.614289","417893.025764","418642.448924","419408.914329","420175.480834","420941.873583","421708.530367","425608.671443","426375.336574","427142.639529","413292.814846","414059.48245","414826.217764","415592.847031","416359.605841","426384.430285","Mapping"
"Mixed","both","tile","33","F_cling.wav","space","488.260538783","339","424842.562205","417125.614289","417893.025764","418642.448924","419408.914329","420175.480834","420941.873583","421708.530367","425608.671443","426375.336574","427142.639529","427909.377934","414059.48245","414826.217764","415592.847031","416359.605841","427153.306623","Mapping"
"Mixed","both","tile","33","M_reek.wav","None","718.260974623","339","424842.562205","417125.614289","417893.025764","418642.448924","419408.914329","420175.480834","420941.873583","421708.530367","425608.671443","426375.336574","427142.639529","427909.377934","428675.333513","414826.217764","415592.847031","416359.605841","427919.798308","Mapping"
"Mixed","both","tile","33","M_tile.wav","None","719.823536463","339","424842.562205","417125.614289","417893.025764","418642.448924","419408.914329","420175.480834","420941.873583","421708.530367","425608.671443","426375.336574","427142.639529","427909.377934","428675.333513","429425.104802","415592.847031","416359.605841","428684.800396","Mapping"
"Mixed","both","tile","33","F_jaw.wav","space","670.897495467","339","424842.562205","417125.614289","417893.025764","418642.448924","419408.914329","420175.480834","420941.873583","421708.530367","425608.671443","426375.336574","427142.639529","427909.377934","428675.333513","429425.104802","430192.083435","416359.605841","429434.641868","Mapping"
"Mixed","both","tile","33","F_lash.wav","None","734.4560856","339","424842.562205","417125.614289","417893.025764","418642.448924","419408.914329","420175.480834","420941.873583","421708.530367","425608.671443","426375.336574","427142.639529","427909.377934","428675.333513","429425.104802","430192.083435","430958.791541","430201.582782","Mapping"
"Mixed","both","tile","33","F_dime.wav","None","734.133617487","339","424842.562205","431725.475222","417893.025764","418642.448924","419408.914329","420175.480834","420941.873583","421708.530367","425608.671443","426375.336574","427142.639529","427909.377934","428675.333513","429425.104802","430192.083435","430958.791541","430968.412702","Mapping"
"Mixed","both","tile","33","M_tile.wav","None","733.919360675","339","424842.562205","431725.475222","432491.71184","418642.448924","419408.914329","420175.480834","420941.873583","421708.530367","425608.671443","426375.336574","427142.639529","427909.377934","428675.333513","429425.104802","430192.083435","430958.791541","431735.202121","Mapping"
"Mixed","both","tile","33","F_knife.wav","space","460.812451318","339","424842.562205","431725.475222","432491.71184","433258.349454","419408.914329","420175.480834","420941.873583","421708.530367","425608.671443","426375.336574","427142.639529","427909.377934","428675.333513","429425.104802","430192.083435","430958.791541","432500.691775","Mapping"
"Mixed","both","tile","33","M_cling.wav","None","733.344298787","339","424842.562205","431725.475222","432491.71184","433258.349454","434025.009329","420175.480834","420941.873583","421708.530367","425608.671443","426375.336574","427142.639529","427909.377934","428675.333513","429425.104802","430192.083435","430958.791541","433267.658041","Mapping"
"Mixed","both","tile","33","M_cling.wav","None","733.489609789","339","424842.562205","431725.475222","432491.71184","433258.349454","434025.009329","434791.730111","420941.873583","421708.530367","425608.671443","426375.336574","427142.639529","427909.377934","428675.333513","429425.104802","430192.083435","430958.791541","434034.09593","Mapping"
"Mixed","both","tile","33","F_tile.wav","None","732.758724596","339","424842.562205","431725.475222","432491.71184","433258.349454","434025.009329","434791.730111","435558.772125","421708.530367","425608.671443","426375.336574","427142.639529","427909.377934","428675.333513","429425.104802","430192.083435","430958.791541","434801.458247","Mapping"
"Mixed","both","tile","33","M_romp.wav","space","281.034728512","339","424842.562205","431725.475222","432491.71184","433258.349454","434025.009329","434791.730111","435558.772125","436325.393972","425608.671443","426375.336574","427142.639529","427909.377934","428675.333513","429425.104802","430192.083435","430958.791541","435568.406271","Mapping"
"Mixed","both","done","46","F_park.wav","None","731.510592625","339","439459.315744","431725.475222","432491.71184","433258.349454","434025.009329","434791.730111","435558.772125","436325.393972","425608.671443","426375.336574","427142.639529","427909.377934","428675.333513","429425.104802","430192.083435","430958.791541","436334.512726","Mapping"
"Mixed","both","done","46","M_done.wav","None","720.623058267","339","439459.315744","431725.475222","432491.71184","433258.349454","434025.009329","434791.730111","435558.772125","436325.393972","440225.942538","426375.336574","427142.639529","427909.377934","428675.333513","429425.104802","430192.083435","430958.791541","439469.957486","Mapping"
"Mixed","both","done","46","M_knife.wav","space","533.255442511","339","439459.315744","431725.475222","432491.71184","433258.349454","434025.009329","434791.730111","435558.772125","436325.393972","440225.942538","440992.462976","427142.639529","427909.377934","428675.333513","429425.104802","430192.083435","430958.791541","440236.117119","Mapping"
"Mixed","both","done","46","F_done.wav","None","719.642360695","339","439459.315744","431725.475222","432491.71184","433258.349454","434025.009329","434791.730111","435558.772125","436325.393972","440225.942538","440992.462976","441759.049886","427909.377934","428675.333513","429425.104802","430192.083435","430958.791541","441002.692899","Mapping"
"Mixed","both","done","46","F_reek.wav","space","616.225780919","339","439459.315744","431725.475222","432491.71184","433258.349454","434025.009329","434791.730111","435558.772125","436325.393972","440225.942538","440992.462976","441759.049886","442508.681429","428675.333513","429425.104802","430192.083435","430958.791541","441769.102343","Mapping"
"Mixed","both","done","46","M_knife.wav","None","735.562925693","339","439459.315744","431725.475222","432491.71184","433258.349454","434025.009329","434791.730111","435558.772125","436325.393972","440225.942538","440992.462976","441759.049886","442508.681429","443274.963185","429425.104802","430192.083435","430958.791541","442518.331652","Mapping"
"Mixed","both","done","46","F_dime.wav","None","736.056056805","339","439459.315744","431725.475222","432491.71184","433258.349454","434025.009329","434791.730111","435558.772125","436325.393972","440225.942538","440992.462976","441759.049886","442508.681429","443274.963185","444041.957586","430192.083435","430958.791541","443284.460677","Mapping"
"Mixed","both","done","46","F_reek.wav","space","421.994210221","339","439459.315744","431725.475222","432491.71184","433258.349454","434025.009329","434791.730111","435558.772125","436325.393972","440225.942538","440992.462976","441759.049886","442508.681429","443274.963185","444041.957586","444808.387745","430958.791541","444051.312239","Mapping"
"Mixed","both","done","46","F_lash.wav","None","734.098681249","339","439459.315744","431725.475222","432491.71184","433258.349454","434025.009329","434791.730111","435558.772125","436325.393972","440225.942538","440992.462976","441759.049886","442508.681429","443274.963185","444041.957586","444808.387745","445575.071427","444817.890493","Mapping"
"Mixed","both","done","46","M_park.wav","None","733.266387135","339","439459.315744","446341.472833","432491.71184","433258.349454","434025.009329","434791.730111","435558.772125","436325.393972","440225.942538","440992.462976","441759.049886","442508.681429","443274.963185","444041.957586","444808.387745","445575.071427","445585.265486","Mapping"
"Mixed","both","done","46","M_done.wav","None","734.676216729","339","439459.315744","446341.472833","447108.480837","433258.349454","434025.009329","434791.730111","435558.772125","436325.393972","440225.942538","440992.462976","441759.049886","442508.681429","443274.963185","444041.957586","444808.387745","445575.071427","446350.499763","Mapping"
"Mixed","both","done","46","M_cling.wav","space","506.944803055","339","439459.315744","446341.472833","447108.480837","447874.853491","434025.009329","434791.730111","435558.772125","436325.393972","440225.942538","440992.462976","441759.049886","442508.681429","443274.963185","444041.957586","444808.387745","445575.071427","447118.277608","Mapping"
"Mixed","both","done","46","F_done.wav","None","733.022140339","339","439459.315744","446341.472833","447108.480837","447874.853491","448641.842945","434791.730111","435558.772125","436325.393972","440225.942538","440992.462976","441759.049886","442508.681429","443274.963185","444041.957586","444808.387745","445575.071427","447884.201033","Mapping"
"Mixed","both","done","46","M_reek.wav","space","582.036171574","339","439459.315744","446341.472833","447108.480837","447874.853491","448641.842945","449408.126247","435558.772125","436325.393972","440225.942538","440992.462976","441759.049886","442508.681429","443274.963185","444041.957586","444808.387745","445575.071427","448651.214912","Mapping"
"Mixed","both","done","46","F_romp.wav","None","731.567171402","339","439459.315744","446341.472833","447108.480837","447874.853491","448641.842945","449408.126247","450174.746548","436325.393972","440225.942538","440992.462976","441759.049886","442508.681429","443274.963185","444041.957586","444808.387745","445575.071427","449417.309309","Mapping"
"Mixed","both","done","46","M_romp.wav","None","731.115159579","339","439459.315744","446341.472833","447108.480837","447874.853491","448641.842945","449408.126247","450174.746548","450941.798145","440225.942538","440992.462976","441759.049886","442508.681429","443274.963185","444041.957586","444808.387745","445575.071427","450184.287324","Mapping"
"Mixed","both","cave","22","F_greet.wav","None","730.549372733","339","454075.503187","446341.472833","447108.480837","447874.853491","448641.842945","449408.126247","450174.746548","450941.798145","440225.942538","440992.462976","441759.049886","442508.681429","443274.963185","444041.957586","444808.387745","445575.071427","450951.336448","Mapping"
"Mixed","both","cave","22","F_cave.wav","None","721.946319565","339","454075.503187","446341.472833","447108.480837","447874.853491","448641.842945","449408.126247","450174.746548","450941.798145","454842.151005","440992.462976","441759.049886","442508.681429","443274.963185","444041.957586","444808.387745","445575.071427","454085.55348","Mapping"
"Mixed","both","cave","22","M_lash.wav","space","516.712821089","339","454075.503187","446341.472833","447108.480837","447874.853491","448641.842945","449408.126247","450174.746548","450941.798145","454842.151005","455608.39566","441759.049886","442508.681429","443274.963185","444041.957586","444808.387745","445575.071427","454852.396386","Mapping"
"Mixed","both","cave","22","M_dime.wav","None","721.227183007","339","454075.503187","446341.472833","447108.480837","447874.853491","448641.842945","449408.126247","450174.746548","450941.798145","454842.151005","455608.39566","456375.501363","442508.681429","443274.963185","444041.957586","444808.387745","445575.071427","455617.8712","Mapping"
"Mixed","both","cave","22","M_cling.wav","None","719.272898976","339","454075.503187","446341.472833","447108.480837","447874.853491","448641.842945","449408.126247","450174.746548","450941.798145","454842.151005","455608.39566","456375.501363","457142.002014","443274.963185","444041.957586","444808.387745","445575.071427","456386.336647","Mapping"
"Mixed","both","cave","22","F_cave.wav","None","719.668640289","339","454075.503187","446341.472833","447108.480837","447874.853491","448641.842945","449408.126247","450174.746548","450941.798145","454842.151005","455608.39566","456375.501363","457142.002014","457908.773501","444041.957586","444808.387745","445575.071427","457152.523178","Mapping"
"Mixed","both","cave","22","F_priest.wav","space","577.938698698","339","454075.503187","446341.472833","447108.480837","447874.853491","448641.842945","449408.126247","450174.746548","450941.798145","454842.151005","455608.39566","456375.501363","457142.002014","457908.773501","458658.661967","444808.387745","445575.071427","457919.053201","Mapping"
"Mixed","both","cave","22","M_cave.wav","None","735.480376054","339","454075.503187","446341.472833","447108.480837","447874.853491","448641.842945","449408.126247","450174.746548","450941.798145","454842.151005","455608.39566","456375.501363","457142.002014","457908.773501","458658.661967","459424.999992","445575.071427","458668.224075","Mapping"
"Mixed","both","cave","22","F_lash.wav","space","653.824642301","339","454075.503187","446341.472833","447108.480837","447874.853491","448641.842945","449408.126247","450174.746548","450941.798145","454842.151005","455608.39566","456375.501363","457142.002014","457908.773501","458658.661967","459424.999992","460191.614728","459435.197143","Mapping"
"Mixed","both","cave","22","F_knife.wav","None","734.098990448","339","454075.503187","460958.195146","447108.480837","447874.853491","448641.842945","449408.126247","450174.746548","450941.798145","454842.151005","455608.39566","456375.501363","457142.002014","457908.773501","458658.661967","459424.999992","460191.614728","460201.020395","Mapping"
"Mixed","both","cave","22","M_gnash.wav","None","733.600294217","339","454075.503187","460958.195146","461724.562234","447874.853491","448641.842945","449408.126247","450174.746548","450941.798145","454842.151005","455608.39566","456375.501363","457142.002014","457908.773501","458658.661967","459424.999992","460191.614728","460968.002738","Mapping"
"Mixed","both","cave","22","M_knife.wav","None","734.514519107","339","454075.503187","460958.195146","461724.562234","462491.55447","448641.842945","449408.126247","450174.746548","450941.798145","454842.151005","455608.39566","456375.501363","457142.002014","457908.773501","458658.661967","459424.999992","460191.614728","461733.974085","Mapping"
"Mixed","both","cave","22","F_knife.wav","None","734.110738616","339","454075.503187","460958.195146","461724.562234","462491.55447","463258.187448","449408.126247","450174.746548","450941.798145","454842.151005","455608.39566","456375.501363","457142.002014","457908.773501","458658.661967","459424.999992","460191.614728","462500.976524","Mapping"
"Mixed","both","cave","22","M_cave.wav","None","733.746533282","339","454075.503187","460958.195146","461724.562234","462491.55447","463258.187448","464024.498885","450174.746548","450941.798145","454842.151005","455608.39566","456375.501363","457142.002014","457908.773501","458658.661967","459424.999992","460191.614728","463268.051927","Mapping"
"Mixed","both","cave","22","M_gnash.wav","space","703.182906844","339","454075.503187","460958.195146","461724.562234","462491.55447","463258.187448","464024.498885","464791.546463","450941.798145","454842.151005","455608.39566","456375.501363","457142.002014","457908.773501","458658.661967","459424.999992","460191.614728","464033.734197","Mapping"
"Mixed","both","cave","22","F_priest.wav","None","732.30454931","339","454075.503187","460958.195146","461724.562234","462491.55447","463258.187448","464024.498885","464791.546463","465558.167691","454842.151005","455608.39566","456375.501363","457142.002014","457908.773501","458658.661967","459424.999992","460191.614728","464801.088166","Mapping"
"Mixed","both","done","48","F_greet.wav","None","731.994139496","339","468691.813372","460958.195146","461724.562234","462491.55447","463258.187448","464024.498885","464791.546463","465558.167691","454842.151005","455608.39566","456375.501363","457142.002014","457908.773501","458658.661967","459424.999992","460191.614728","465567.952714","Mapping"
"Mixed","both","done","48","F_park.wav","None","720.890801866","339","468691.813372","460958.195146","461724.562234","462491.55447","463258.187448","464024.498885","464791.546463","465558.167691","469458.532299","455608.39566","456375.501363","457142.002014","457908.773501","458658.661967","459424.999992","460191.614728","468701.939722","Mapping"
"Mixed","both","done","48","M_cad.wav","None","720.210930333","339","468691.813372","460958.195146","461724.562234","462491.55447","463258.187448","464024.498885","464791.546463","465558.167691","469458.532299","470225.198358","456375.501363","457142.002014","457908.773501","458658.661967","459424.999992","460191.614728","469469.176514","Mapping"
"Mixed","both","done","48","F_jolt.wav","None","719.493339304","339","468691.813372","460958.195146","461724.562234","462491.55447","463258.187448","464024.498885","464791.546463","465558.167691","469458.532299","470225.198358","470991.396019","457142.002014","457908.773501","458658.661967","459424.999992","460191.614728","470236.519971","Mapping"
"Mixed","both","done","48","F_done.wav","None","722.106780391","339","468691.813372","460958.195146","461724.562234","462491.55447","463258.187448","464024.498885","464791.546463","465558.167691","469458.532299","470225.198358","470991.396019","471758.646724","457908.773501","458658.661967","459424.999992","460191.614728","471000.648954","Mapping"
"Mixed","both","done","48","M_knife.wav","space","504.051250871","339","468691.813372","460958.195146","461724.562234","462491.55447","463258.187448","464024.498885","464791.546463","465558.167691","469458.532299","470225.198358","470991.396019","471758.646724","472525.12295","458658.661967","459424.999992","460191.614728","471768.744321","Mapping"
"Mixed","both","done","48","M_done.wav","None","719.305671286","339","468691.813372","460958.195146","461724.562234","462491.55447","463258.187448","464024.498885","464791.546463","465558.167691","469458.532299","470225.198358","470991.396019","471758.646724","472525.12295","473291.943287","459424.999992","460191.614728","472535.442533","Mapping"
"Mixed","both","done","48","M_reek.wav","space","706.408201717","339","468691.813372","460958.195146","461724.562234","462491.55447","463258.187448","464024.498885","464791.546463","465558.167691","469458.532299","470225.198358","470991.396019","471758.646724","472525.12295","473291.943287","474040.817974","460191.614728","473302.354076","Mapping"
"Mixed","both","done","48","M_jaw.wav","None","736.344824545","339","468691.813372","460958.195146","461724.562234","462491.55447","463258.187448","464024.498885","464791.546463","465558.167691","469458.532299","470225.198358","470991.396019","471758.646724","472525.12295","473291.943287","474040.817974","474807.962323","474050.050504","Mapping"
"Mixed","both","done","48","M_done.wav","None","735.172130633","339","468691.813372","475574.194921","461724.562234","462491.55447","463258.187448","464024.498885","464791.546463","465558.167691","469458.532299","470225.198358","470991.396019","471758.646724","472525.12295","473291.943287","474040.817974","474807.962323","474817.856484","Mapping"
"Mixed","both","done","48","M_priest.wav","space","544.933223166","339","468691.813372","475574.194921","476340.937036","462491.55447","463258.187448","464024.498885","464791.546463","465558.167691","469458.532299","470225.198358","470991.396019","471758.646724","472525.12295","473291.943287","474040.817974","474807.962323","475583.779908","Mapping"
"Mixed","both","done","48","F_lash.wav","None","734.891710337","339","468691.813372","475574.194921","476340.937036","477107.585163","463258.187448","464024.498885","464791.546463","465558.167691","469458.532299","470225.198358","470991.396019","471758.646724","472525.12295","473291.943287","474040.817974","474807.962323","476350.010342","Mapping"
"Mixed","both","done","48","F_park.wav","None","734.515755903","339","468691.813372","475574.194921","476340.937036","477107.585163","477874.643253","464024.498885","464791.546463","465558.167691","469458.532299","470225.198358","470991.396019","471758.646724","472525.12295","473291.943287","474040.817974","474807.962323","477116.850156","Mapping"
"Mixed","both","done","48","F_done.wav","None","733.434577473","339","468691.813372","475574.194921","476340.937036","477107.585163","477874.643253","478641.318587","464791.546463","465558.167691","469458.532299","470225.198358","470991.396019","471758.646724","472525.12295","473291.943287","474040.817974","474807.962323","477884.612852","Mapping"
"Mixed","both","done","48","M_greet.wav","space","581.957023125","339","468691.813372","475574.194921","476340.937036","477107.585163","477874.643253","478641.318587","479407.585812","465558.167691","469458.532299","470225.198358","470991.396019","471758.646724","472525.12295","473291.943287","474040.817974","474807.962323","478650.741567","Mapping"
"Mixed","both","done","48","F_gnash.wav","None","733.052748255","339","468691.813372","475574.194921","476340.937036","477107.585163","477874.643253","478641.318587","479407.585812","480174.675438","469458.532299","470225.198358","470991.396019","471758.646724","472525.12295","473291.943287","474040.817974","474807.962323","479416.656335","Mapping"
