"Condition","Talker","Target","Trial","current_stimulus","response_response","response_time_response","subject_nr","time_Audio1","time_Audio10","time_Audio11","time_Audio12","time_Audio13","time_Audio14","time_Audio15","time_Audio16","time_Audio2","time_Audio3","time_Audio4","time_Audio5","time_Audio6","time_Audio7","time_Audio8","time_Audio9","time_response","title"
"Blocked","Female","tile","18","F_romp.wav","NA","NA","330","43294.2685783","NA","NA","NA","NA","NA","NA","NA","NA","NA","NA","NA","NA","NA","NA","NA","NA","Mapping"
"Blocked","Female","tile","18","F_depth.wav","None","717.066638637","330","43294.2685783","NA","NA","NA","NA","NA","NA","NA","44061.3523298","NA","NA","NA","NA","NA","NA","NA","43309.6449981","Mapping"
"Blocked","Female","tile","18","F_cling.wav","None","721.133812331","330","43294.2685783","NA","NA","NA","NA","NA","NA","NA","44061.3523298","44826.8716647","NA","NA","NA","NA","NA","NA","44071.7015932","Mapping"
"Blocked","Female","tile","18","F_tile.wav","None","723.963365424","330","43294.2685783","NA","NA","NA","NA","NA","NA","NA","44061.3523298","44826.8716647","45593.4956758","NA","NA","NA","NA","NA","44836.2297192","Mapping"
"Blocked","Female","tile","18","F_bluff.wav","space","594.260879792","330","43294.2685783","NA","NA","NA","NA","NA","NA","NA","44061.3523298","44826.8716647","45593.4956758","46360.808834","NA","NA","NA","NA","45602.808591","Mapping"
"Blocked","Female","tile","18","F_gnash.wav","None","721.215125173","330","43294.2685783","NA","NA","NA","NA","NA","NA","NA","44061.3523298","44826.8716647","45593.4956758","46360.808834","47127.3546242","NA","NA","NA","46371.2341543","Mapping"
"Blocked","Female","tile","18","F_tile.wav","None","720.755384304","330","43294.2685783","NA","NA","NA","NA","NA","NA","NA","44061.3523298","44826.8716647","45593.4956758","46360.808834","47127.3546242","47876.5279725","NA","NA","47138.0381044","Mapping"
"Blocked","Female","tile","18","F_park.wav","space","511.346810963","330","43294.2685783","NA","NA","NA","NA","NA","NA","NA","44061.3523298","44826.8716647","45593.4956758","46360.808834","47127.3546242","47876.5279725","48643.3112076","NA","47885.6841368","Mapping"
"Blocked","Female","tile","18","F_depth.wav","None","736.214353703","330","43294.2685783","NA","NA","NA","NA","NA","NA","NA","44061.3523298","44826.8716647","45593.4956758","46360.808834","47127.3546242","47876.5279725","48643.3112076","49410.108665","48652.1282089","Mapping"
"Blocked","Female","tile","18","F_tile.wav","None","732.012689579","330","43294.2685783","50177.1333646","NA","NA","NA","NA","NA","NA","44061.3523298","44826.8716647","45593.4956758","46360.808834","47127.3546242","47876.5279725","48643.3112076","49410.108665","49419.4376571","Mapping"
"Blocked","Female","tile","18","F_jolt.wav","space","690.011201426","330","43294.2685783","50177.1333646","50943.9011412","NA","NA","NA","NA","NA","44061.3523298","44826.8716647","45593.4956758","46360.808834","47127.3546242","47876.5279725","48643.3112076","49410.108665","50186.9477588","Mapping"
"Blocked","Female","tile","18","F_gnash.wav","None","732.858587522","330","43294.2685783","50177.1333646","50943.9011412","51711.1373153","NA","NA","NA","NA","44061.3523298","44826.8716647","45593.4956758","46360.808834","47127.3546242","47876.5279725","48643.3112076","49410.108665","50948.1433067","Mapping"
"Blocked","Female","tile","18","F_romp.wav","None","722.113582306","330","43294.2685783","50177.1333646","50943.9011412","51711.1373153","52477.1429799","NA","NA","NA","44061.3523298","44826.8716647","45593.4956758","46360.808834","47127.3546242","47876.5279725","48643.3112076","49410.108665","51721.9589953","Mapping"
"Blocked","Female","tile","18","F_tile.wav","None","720.957583748","330","43294.2685783","50177.1333646","50943.9011412","51711.1373153","52477.1429799","53227.1922156","NA","NA","44061.3523298","44826.8716647","45593.4956758","46360.808834","47127.3546242","47876.5279725","48643.3112076","49410.108665","52486.4707352","Mapping"
"Blocked","Female","tile","18","F_lash.wav","space","304.075242952","330","43294.2685783","50177.1333646","50943.9011412","51711.1373153","52477.1429799","53227.1922156","53993.4588224","NA","44061.3523298","44826.8716647","45593.4956758","46360.808834","47127.3546242","47876.5279725","48643.3112076","49410.108665","53236.8489313","Mapping"
"Blocked","Female","tile","18","F_bluff.wav","None","734.295624308","330","43294.2685783","50177.1333646","50943.9011412","51711.1373153","52477.1429799","53227.1922156","53993.4588224","54760.320588","44061.3523298","44826.8716647","45593.4956758","46360.808834","47127.3546242","47876.5279725","48643.3112076","49410.108665","54003.2042712","Mapping"
"Blocked","Female","tile","14","F_reek.wav","None","731.531306636","330","57927.7066491","50177.1333646","50943.9011412","51711.1373153","52477.1429799","53227.1922156","53993.4588224","54760.320588","44061.3523298","44826.8716647","45593.4956758","46360.808834","47127.3546242","47876.5279725","48643.3112076","49410.108665","54769.2553843","Mapping"
"Blocked","Female","tile","14","F_gnash.wav","None","722.919287626","330","57927.7066491","50177.1333646","50943.9011412","51711.1373153","52477.1429799","53227.1922156","53993.4588224","54760.320588","58693.9884052","44826.8716647","45593.4956758","46360.808834","47127.3546242","47876.5279725","48643.3112076","49410.108665","57937.4647737","Mapping"
"Blocked","Female","tile","14","F_tile.wav","None","720.693240408","330","57927.7066491","50177.1333646","50943.9011412","51711.1373153","52477.1429799","53227.1922156","53993.4588224","54760.320588","58693.9884052","59443.816273","45593.4956758","46360.808834","47127.3546242","47876.5279725","48643.3112076","49410.108665","58702.9194916","Mapping"
"Blocked","Female","tile","14","F_cad.wav","space","416.008926462","330","57927.7066491","50177.1333646","50943.9011412","51711.1373153","52477.1429799","53227.1922156","53993.4588224","54760.320588","58693.9884052","59443.816273","60210.5287076","46360.808834","47127.3546242","47876.5279725","48643.3112076","49410.108665","59452.8181599","Mapping"
"Blocked","Female","tile","14","F_tile.wav","None","733.431176748","330","57927.7066491","50177.1333646","50943.9011412","51711.1373153","52477.1429799","53227.1922156","53993.4588224","54760.320588","58693.9884052","59443.816273","60210.5287076","60976.9576304","47127.3546242","47876.5279725","48643.3112076","49410.108665","60219.551309","Mapping"
"Blocked","Female","tile","14","F_lash.wav","space","698.994847015","330","57927.7066491","50177.1333646","50943.9011412","51711.1373153","52477.1429799","53227.1922156","53993.4588224","54760.320588","58693.9884052","59443.816273","60210.5287076","60976.9576304","61743.4499338","47876.5279725","48643.3112076","49410.108665","60985.7690665","Mapping"
"Blocked","Female","tile","14","F_knife.wav","None","729.680595919","330","57927.7066491","50177.1333646","50943.9011412","51711.1373153","52477.1429799","53227.1922156","53993.4588224","54760.320588","58693.9884052","59443.816273","60210.5287076","60976.9576304","61743.4499338","62510.5268834","48643.3112076","49410.108665","61752.2700271","Mapping"
"Blocked","Female","tile","14","F_dime.wav","None","728.550877422","330","57927.7066491","50177.1333646","50943.9011412","51711.1373153","52477.1429799","53227.1922156","53993.4588224","54760.320588","58693.9884052","59443.816273","60210.5287076","60976.9576304","61743.4499338","62510.5268834","63277.1440931","49410.108665","62519.8886483","Mapping"
"Blocked","Female","tile","14","F_reek.wav","None","728.363518603","330","57927.7066491","50177.1333646","50943.9011412","51711.1373153","52477.1429799","53227.1922156","53993.4588224","54760.320588","58693.9884052","59443.816273","60210.5287076","60976.9576304","61743.4499338","62510.5268834","63277.1440931","64043.7943838","63286.4758675","Mapping"
"Blocked","Female","tile","14","F_tile.wav","None","724.776800256","330","57927.7066491","64810.1722929","50943.9011412","51711.1373153","52477.1429799","53227.1922156","53993.4588224","54760.320588","58693.9884052","59443.816273","60210.5287076","60976.9576304","61743.4499338","62510.5268834","63277.1440931","64043.7943838","64053.3070248","Mapping"
"Blocked","Female","tile","14","F_gnash.wav","space","337.328056805","330","57927.7066491","64810.1722929","65560.2156543","51711.1373153","52477.1429799","53227.1922156","53993.4588224","54760.320588","58693.9884052","59443.816273","60210.5287076","60976.9576304","61743.4499338","62510.5268834","63277.1440931","64043.7943838","64819.365249","Mapping"
"Blocked","Female","tile","14","F_priest.wav","None","734.899439849","330","57927.7066491","64810.1722929","65560.2156543","66327.0100201","52477.1429799","53227.1922156","53993.4588224","54760.320588","58693.9884052","59443.816273","60210.5287076","60976.9576304","61743.4499338","62510.5268834","63277.1440931","64043.7943838","65569.7199479","Mapping"
"Blocked","Female","tile","14","F_greet.wav","None","734.492258634","330","57927.7066491","64810.1722929","65560.2156543","66327.0100201","67093.6380504","53227.1922156","53993.4588224","54760.320588","58693.9884052","59443.816273","60210.5287076","60976.9576304","61743.4499338","62510.5268834","63277.1440931","64043.7943838","66336.5866598","Mapping"
"Blocked","Female","tile","14","F_tile.wav","None","734.268107917","330","57927.7066491","64810.1722929","65560.2156543","66327.0100201","67093.6380504","67859.979168","53993.4588224","54760.320588","58693.9884052","59443.816273","60210.5287076","60976.9576304","61743.4499338","62510.5268834","63277.1440931","64043.7943838","67103.1782078","Mapping"
"Blocked","Female","tile","14","F_greet.wav","space","343.968170229","330","57927.7066491","64810.1722929","65560.2156543","66327.0100201","67093.6380504","67859.979168","68627.1068221","54760.320588","58693.9884052","59443.816273","60210.5287076","60976.9576304","61743.4499338","62510.5268834","63277.1440931","64043.7943838","67868.7275327","Mapping"
"Blocked","Female","tile","14","F_gnash.wav","None","727.72631282","330","57927.7066491","64810.1722929","65560.2156543","66327.0100201","67093.6380504","67859.979168","68627.1068221","69394.0752521","58693.9884052","59443.816273","60210.5287076","60976.9576304","61743.4499338","62510.5268834","63277.1440931","64043.7943838","68636.1334426","Mapping"
"Blocked","Female","done","20","F_priest.wav","None","723.334197886","330","72510.7222809","64810.1722929","65560.2156543","66327.0100201","67093.6380504","67859.979168","68627.1068221","69394.0752521","58693.9884052","59443.816273","60210.5287076","60976.9576304","61743.4499338","62510.5268834","63277.1440931","64043.7943838","69403.8862451","Mapping"
"Blocked","Female","done","20","F_done.wav","None","720.012132078","330","72510.7222809","64810.1722929","65560.2156543","66327.0100201","67093.6380504","67859.979168","68627.1068221","69394.0752521","73277.2730179","59443.816273","60210.5287076","60976.9576304","61743.4499338","62510.5268834","63277.1440931","64043.7943838","72520.5379119","Mapping"
"Blocked","Female","done","20","F_greet.wav","None","720.365826041","330","72510.7222809","64810.1722929","65560.2156543","66327.0100201","67093.6380504","67859.979168","68627.1068221","69394.0752521","73277.2730179","74027.043689","60210.5287076","60976.9576304","61743.4499338","62510.5268834","63277.1440931","64043.7943838","73286.578204","Mapping"
"Blocked","Female","done","20","F_park.wav","space","200.116991065","330","72510.7222809","64810.1722929","65560.2156543","66327.0100201","67093.6380504","67859.979168","68627.1068221","69394.0752521","73277.2730179","74027.043689","74793.5848418","60976.9576304","61743.4499338","62510.5268834","63277.1440931","64043.7943838","74036.4759448","Mapping"
"Blocked","Female","done","20","F_done.wav","None","729.857752565","330","72510.7222809","64810.1722929","65560.2156543","66327.0100201","67093.6380504","67859.979168","68627.1068221","69394.0752521","73277.2730179","74027.043689","74793.5848418","75560.2431707","61743.4499338","62510.5268834","63277.1440931","64043.7943838","74803.103975","Mapping"
"Blocked","Female","done","20","F_lash.wav","space","490.447321441","330","72510.7222809","64810.1722929","65560.2156543","66327.0100201","67093.6380504","67859.979168","68627.1068221","69394.0752521","73277.2730179","74027.043689","74793.5848418","75560.2431707","76326.6501422","62510.5268834","63277.1440931","64043.7943838","75570.0835353","Mapping"
"Blocked","Female","done","20","F_bluff.wav","None","723.524339497","330","72510.7222809","64810.1722929","65560.2156543","66327.0100201","67093.6380504","67859.979168","68627.1068221","69394.0752521","73277.2730179","74027.043689","74793.5848418","75560.2431707","76326.6501422","77093.2274684","63277.1440931","64043.7943838","76335.6681061","Mapping"
"Blocked","Female","done","20","F_jaw.wav","None","720.180322416","330","72510.7222809","64810.1722929","65560.2156543","66327.0100201","67093.6380504","67859.979168","68627.1068221","69394.0752521","73277.2730179","74027.043689","74793.5848418","75560.2431707","76326.6501422","77093.2274684","77844.0657142","64043.7943838","77102.4856595","Mapping"
"Blocked","Female","done","20","F_jaw.wav","None","736.228884663","330","72510.7222809","64810.1722929","65560.2156543","66327.0100201","67093.6380504","67859.979168","68627.1068221","69394.0752521","73277.2730179","74027.043689","74793.5848418","75560.2431707","76326.6501422","77093.2274684","77844.0657142","78609.8036347","77852.7828525","Mapping"
"Blocked","Female","done","20","F_done.wav","None","733.843304217","330","72510.7222809","79376.9609695","65560.2156543","66327.0100201","67093.6380504","67859.979168","68627.1068221","69394.0752521","73277.2730179","74027.043689","74793.5848418","75560.2431707","76326.6501422","77093.2274684","77844.0657142","78609.8036347","78618.5569465","Mapping"
"Blocked","Female","done","20","F_depth.wav","space","402.067069896","330","72510.7222809","79376.9609695","80143.4885184","66327.0100201","67093.6380504","67859.979168","68627.1068221","69394.0752521","73277.2730179","74027.043689","74793.5848418","75560.2431707","76326.6501422","77093.2274684","77844.0657142","78609.8036347","79386.431254","Mapping"
"Blocked","Female","done","20","F_bluff.wav","None","725.487280171","330","72510.7222809","79376.9609695","80143.4885184","80910.4795181","67093.6380504","67859.979168","68627.1068221","69394.0752521","73277.2730179","74027.043689","74793.5848418","75560.2431707","76326.6501422","77093.2274684","77844.0657142","78609.8036347","80153.2327305","Mapping"
"Blocked","Female","done","20","F_done.wav","None","721.496781334","330","72510.7222809","79376.9609695","80143.4885184","80910.4795181","81660.4001382","67859.979168","68627.1068221","69394.0752521","73277.2730179","74027.043689","74793.5848418","75560.2431707","76326.6501422","77093.2274684","77844.0657142","78609.8036347","80920.4905466","Mapping"
"Blocked","Female","done","20","F_park.wav","space","486.463624518","330","72510.7222809","79376.9609695","80143.4885184","80910.4795181","81660.4001382","82426.7625888","68627.1068221","69394.0752521","73277.2730179","74027.043689","74793.5848418","75560.2431707","76326.6501422","77093.2274684","77844.0657142","78609.8036347","81669.944624","Mapping"
"Blocked","Female","done","20","F_cad.wav","None","738.03352844","330","72510.7222809","79376.9609695","80143.4885184","80910.4795181","81660.4001382","82426.7625888","83193.1290585","69394.0752521","73277.2730179","74027.043689","74793.5848418","75560.2431707","76326.6501422","77093.2274684","77844.0657142","78609.8036347","82430.3545631","Mapping"
"Blocked","Female","done","20","F_gnash.wav","None","729.419963434","330","72510.7222809","79376.9609695","80143.4885184","80910.4795181","81660.4001382","82426.7625888","83193.1290585","83960.1246957","73277.2730179","74027.043689","74793.5848418","75560.2431707","76326.6501422","77093.2274684","77844.0657142","78609.8036347","83202.5668793","Mapping"
"Blocked","Female","tile","16","F_jolt.wav","None","725.725961849","330","87077.3393665","79376.9609695","80143.4885184","80910.4795181","81660.4001382","82426.7625888","83193.1290585","83960.1246957","73277.2730179","74027.043689","74793.5848418","75560.2431707","76326.6501422","77093.2274684","77844.0657142","78609.8036347","83969.7205042","Mapping"
"Blocked","Female","tile","16","F_priest.wav","space","0.0392650254071","330","87077.3393665","79376.9609695","80143.4885184","80910.4795181","81660.4001382","82426.7625888","83193.1290585","83960.1246957","87826.4156342","74027.043689","74793.5848418","75560.2431707","76326.6501422","77093.2274684","77844.0657142","78609.8036347","87087.6339069","Mapping"
"Blocked","Female","tile","16","F_priest.wav","None","733.870820608","330","87077.3393665","79376.9609695","80143.4885184","80910.4795181","81660.4001382","82426.7625888","83193.1290585","83960.1246957","87826.4156342","88593.0112014","74793.5848418","75560.2431707","76326.6501422","77093.2274684","77844.0657142","78609.8036347","87835.354141","Mapping"
"Blocked","Female","tile","16","F_tile.wav","None","730.84401479","330","87077.3393665","79376.9609695","80143.4885184","80910.4795181","81660.4001382","82426.7625888","83193.1290585","83960.1246957","87826.4156342","88593.0112014","89360.0049838","75560.2431707","76326.6501422","77093.2274684","77844.0657142","78609.8036347","88601.8730332","Mapping"
"Blocked","Female","tile","16","F_park.wav","space","434.624863323","330","87077.3393665","79376.9609695","80143.4885184","80910.4795181","81660.4001382","82426.7625888","83193.1290585","83960.1246957","87826.4156342","88593.0112014","89360.0049838","90127.1215077","76326.6501422","77093.2274684","77844.0657142","78609.8036347","89369.6709746","Mapping"
"Blocked","Female","tile","16","F_cad.wav","None","722.049583215","330","87077.3393665","79376.9609695","80143.4885184","80910.4795181","81660.4001382","82426.7625888","83193.1290585","83960.1246957","87826.4156342","88593.0112014","89360.0049838","90127.1215077","90893.6626604","77093.2274684","77844.0657142","78609.8036347","90137.1532506","Mapping"
"Blocked","Female","tile","16","F_park.wav","None","719.518691767","330","87077.3393665","79376.9609695","80143.4885184","80910.4795181","81660.4001382","82426.7625888","83193.1290585","83960.1246957","87826.4156342","88593.0112014","89360.0049838","90127.1215077","90893.6626604","91643.2506097","77844.0657142","78609.8036347","90903.1694271","Mapping"
"Blocked","Female","tile","16","F_park.wav","None","733.367486391","330","87077.3393665","79376.9609695","80143.4885184","80910.4795181","81660.4001382","82426.7625888","83193.1290585","83960.1246957","87826.4156342","88593.0112014","89360.0049838","90127.1215077","90893.6626604","91643.2506097","92410.0054014","78609.8036347","91652.6207221","Mapping"
"Blocked","Female","tile","16","F_reek.wav","None","728.030229919","330","87077.3393665","79376.9609695","80143.4885184","80910.4795181","81660.4001382","82426.7625888","83193.1290585","83960.1246957","87826.4156342","88593.0112014","89360.0049838","90127.1215077","90893.6626604","91643.2506097","92410.0054014","93176.6897012","92421.4893305","Mapping"
"Blocked","Female","tile","16","F_tile.wav","None","726.432422642","330","87077.3393665","93943.6946134","80143.4885184","80910.4795181","81660.4001382","82426.7625888","83193.1290585","83960.1246957","87826.4156342","88593.0112014","89360.0049838","90127.1215077","90893.6626604","91643.2506097","92410.0054014","93176.6897012","93186.5204815","Mapping"
"Blocked","Female","tile","16","F_greet.wav","space","419.108696748","330","87077.3393665","93943.6946134","94709.937105","80910.4795181","81660.4001382","82426.7625888","83193.1290585","83960.1246957","87826.4156342","88593.0112014","89360.0049838","90127.1215077","90893.6626604","91643.2506097","92410.0054014","93176.6897012","93953.1247052","Mapping"
"Blocked","Female","tile","16","F_tile.wav","None","720.683346968","330","87077.3393665","93943.6946134","94709.937105","95459.8663813","81660.4001382","82426.7625888","83193.1290585","83960.1246957","87826.4156342","88593.0112014","89360.0049838","90127.1215077","90893.6626604","91643.2506097","92410.0054014","93176.6897012","94718.9405374","Mapping"
"Blocked","Female","tile","16","F_gnash.wav","space","543.028716464","330","87077.3393665","93943.6946134","94709.937105","95459.8663813","96226.6292111","82426.7625888","83193.1290585","83960.1246957","87826.4156342","88593.0112014","89360.0049838","90127.1215077","90893.6626604","91643.2506097","92410.0054014","93176.6897012","95469.1857891","Mapping"
"Blocked","Female","tile","16","F_tile.wav","None","730.68015324","330","87077.3393665","93943.6946134","94709.937105","95459.8663813","96226.6292111","96993.1239882","83193.1290585","83960.1246957","87826.4156342","88593.0112014","89360.0049838","90127.1215077","90893.6626604","91643.2506097","92410.0054014","93176.6897012","96236.1999769","Mapping"
"Blocked","Female","tile","16","F_knife.wav","space","697.17165269","330","87077.3393665","93943.6946134","94709.937105","95459.8663813","96226.6292111","96993.1239882","97760.2265989","83960.1246957","87826.4156342","88593.0112014","89360.0049838","90127.1215077","90893.6626604","91643.2506097","92410.0054014","93176.6897012","97003.0082553","Mapping"
"Blocked","Female","tile","16","F_gnash.wav","None","723.570097238","330","87077.3393665","93943.6946134","94709.937105","95459.8663813","96226.6292111","96993.1239882","97760.2265989","98526.511447","87826.4156342","88593.0112014","89360.0049838","90127.1215077","90893.6626604","91643.2506097","92410.0054014","93176.6897012","97770.1488947","Mapping"
"Blocked","Female","cave","8","F_reek.wav","None","721.727733966","330","101643.545252","93943.6946134","94709.937105","95459.8663813","96226.6292111","96993.1239882","97760.2265989","98526.511447","87826.4156342","88593.0112014","89360.0049838","90127.1215077","90893.6626604","91643.2506097","92410.0054014","93176.6897012","98535.555691","Mapping"
"Blocked","Female","cave","8","F_greet.wav","None","720.097773243","330","101643.545252","93943.6946134","94709.937105","95459.8663813","96226.6292111","96993.1239882","97760.2265989","98526.511447","102393.01788","88593.0112014","89360.0049838","90127.1215077","90893.6626604","91643.2506097","92410.0054014","93176.6897012","101653.045526","Mapping"
"Blocked","Female","cave","8","F_cave.wav","None","734.480510466","330","101643.545252","93943.6946134","94709.937105","95459.8663813","96226.6292111","96993.1239882","97760.2265989","98526.511447","102393.01788","103159.735261","89360.0049838","90127.1215077","90893.6626604","91643.2506097","92410.0054014","93176.6897012","102402.056558","Mapping"
"Blocked","Female","cave","8","F_cad.wav","space","394.810156897","330","101643.545252","93943.6946134","94709.937105","95459.8663813","96226.6292111","96993.1239882","97760.2265989","98526.511447","102393.01788","103159.735261","103926.503038","90127.1215077","90893.6626604","91643.2506097","92410.0054014","93176.6897012","103169.246974","Mapping"
"Blocked","Female","cave","8","F_lash.wav","None","730.117767118","330","101643.545252","93943.6946134","94709.937105","95459.8663813","96226.6292111","96993.1239882","97760.2265989","98526.511447","102393.01788","103159.735261","103926.503038","104692.978955","90893.6626604","91643.2506097","92410.0054014","93176.6897012","103936.167792","Mapping"
"Blocked","Female","cave","8","F_cad.wav","None","727.838233113","330","101643.545252","93943.6946134","94709.937105","95459.8663813","96226.6292111","96993.1239882","97760.2265989","98526.511447","102393.01788","103159.735261","103926.503038","104692.978955","105459.434157","91643.2506097","92410.0054014","93176.6897012","104701.946524","Mapping"
"Blocked","Female","cave","8","F_cave.wav","space","631.525525358","330","101643.545252","93943.6946134","94709.937105","95459.8663813","96226.6292111","96993.1239882","97760.2265989","98526.511447","102393.01788","103159.735261","103926.503038","104692.978955","105459.434157","106226.993727","92410.0054014","93176.6897012","105468.493241","Mapping"
"Blocked","Female","cave","8","F_gnash.wav","None","719.577125274","330","101643.545252","93943.6946134","94709.937105","95459.8663813","96226.6292111","96993.1239882","97760.2265989","98526.511447","102393.01788","103159.735261","103926.503038","104692.978955","105459.434157","106226.993727","106976.424307","93176.6897012","106236.866863","Mapping"
"Blocked","Female","cave","8","F_priest.wav","space","1.66242429987","330","101643.545252","93943.6946134","94709.937105","95459.8663813","96226.6292111","96993.1239882","97760.2265989","98526.511447","102393.01788","103159.735261","103926.503038","104692.978955","105459.434157","106226.993727","106976.424307","107743.014309","106986.330834","Mapping"
"Blocked","Female","cave","8","F_cling.wav","None","730.498359539","330","101643.545252","108509.30534","94709.937105","95459.8663813","96226.6292111","96993.1239882","97760.2265989","98526.511447","102393.01788","103159.735261","103926.503038","104692.978955","105459.434157","106226.993727","106976.424307","107743.014309","107752.349175","Mapping"
"Blocked","Female","cave","8","F_lash.wav","None","728.191618342","330","101643.545252","108509.30534","109276.796582","95459.8663813","96226.6292111","96993.1239882","97760.2265989","98526.511447","102393.01788","103159.735261","103926.503038","104692.978955","105459.434157","106226.993727","106976.424307","107743.014309","108518.062362","Mapping"
"Blocked","Female","cave","8","F_priest.wav","None","722.859616857","330","101643.545252","108509.30534","109276.796582","110043.501596","96226.6292111","96993.1239882","97760.2265989","98526.511447","102393.01788","103159.735261","103926.503038","104692.978955","105459.434157","106226.993727","106976.424307","107743.014309","109286.823688","Mapping"
"Blocked","Female","cave","8","F_cave.wav","None","720.002238173","330","101643.545252","108509.30534","109276.796582","110043.501596","110792.851173","96993.1239882","97760.2265989","98526.511447","102393.01788","103159.735261","103926.503038","104692.978955","105459.434157","106226.993727","106976.424307","107743.014309","110053.317846","Mapping"
"Blocked","Female","cave","8","F_lash.wav","space","530.039113481","330","101643.545252","108509.30534","109276.796582","110043.501596","110792.851173","111559.590197","97760.2265989","98526.511447","102393.01788","103159.735261","103926.503038","104692.978955","105459.434157","106226.993727","106976.424307","107743.014309","110801.897272","Mapping"
"Blocked","Female","cave","8","F_cave.wav","None","730.574106798","330","101643.545252","108509.30534","109276.796582","110043.501596","110792.851173","111559.590197","112325.886794","98526.511447","102393.01788","103159.735261","103926.503038","104692.978955","105459.434157","106226.993727","106976.424307","107743.014309","111568.927537","Mapping"
"Blocked","Female","cave","8","F_cad.wav","space","588.982983958","330","101643.545252","108509.30534","109276.796582","110043.501596","110792.851173","111559.590197","112325.886794","113092.726608","102393.01788","103159.735261","103926.503038","104692.978955","105459.434157","106226.993727","106976.424307","107743.014309","112334.919907","Mapping"
"Blocked","Female","done","24","F_depth.wav","None","721.393827349","330","116209.699814","108509.30534","109276.796582","110043.501596","110792.851173","111559.590197","112325.886794","113092.726608","102393.01788","103159.735261","103926.503038","104692.978955","105459.434157","106226.993727","106976.424307","107743.014309","113104.343172","Mapping"
"Blocked","Female","done","24","F_reek.wav","None","719.285883941","330","116209.699814","108509.30534","109276.796582","110043.501596","110792.851173","111559.590197","112325.886794","113092.726608","116959.529537","103159.735261","103926.503038","104692.978955","105459.434157","106226.993727","106976.424307","107743.014309","116219.422693","Mapping"
"Blocked","Female","done","24","F_dime.wav","None","733.079646714","330","116209.699814","108509.30534","109276.796582","110043.501596","110792.851173","111559.590197","112325.886794","113092.726608","116959.529537","117726.193741","103926.503038","104692.978955","105459.434157","106226.993727","106976.424307","107743.014309","116969.123181","Mapping"
"Blocked","Female","done","24","F_done.wav","space","396.524213254","330","116209.699814","108509.30534","109276.796582","110043.501596","110792.851173","111559.590197","112325.886794","113092.726608","116959.529537","117726.193741","118492.771067","104692.978955","105459.434157","106226.993727","106976.424307","107743.014309","117735.258081","Mapping"
"Blocked","Female","done","24","F_priest.wav","None","727.235654369","330","116209.699814","108509.30534","109276.796582","110043.501596","110792.851173","111559.590197","112325.886794","113092.726608","116959.529537","117726.193741","118492.771067","119260.017753","105459.434157","106226.993727","106976.424307","107743.014309","118501.808509","Mapping"
"Blocked","Female","done","24","F_priest.wav","space","0.0346275046468","330","116209.699814","108509.30534","109276.796582","110043.501596","110792.851173","111559.590197","112325.886794","113092.726608","116959.529537","117726.193741","118492.771067","119260.017753","120025.816271","106226.993727","106976.424307","107743.014309","119270.241183","Mapping"
"Blocked","Female","done","24","F_gnash.wav","None","720.897912979","330","116209.699814","108509.30534","109276.796582","110043.501596","110792.851173","111559.590197","112325.886794","113092.726608","116959.529537","117726.193741","118492.771067","119260.017753","120025.816271","120775.624352","106976.424307","107743.014309","120034.88865","Mapping"
"Blocked","Female","done","24","F_gnash.wav","None","734.902841039","330","116209.699814","108509.30534","109276.796582","110043.501596","110792.851173","111559.590197","112325.886794","113092.726608","116959.529537","117726.193741","118492.771067","119260.017753","120025.816271","120775.624352","121542.286391","107743.014309","120784.445682","Mapping"
"Blocked","Female","done","24","F_bluff.wav","None","731.800597161","330","116209.699814","108509.30534","109276.796582","110043.501596","110792.851173","111559.590197","112325.886794","113092.726608","116959.529537","117726.193741","118492.771067","119260.017753","120025.816271","120775.624352","121542.286391","122309.407244","121551.153788","Mapping"
"Blocked","Female","done","24","F_done.wav","None","727.327788249","330","116209.699814","123076.127717","109276.796582","110043.501596","110792.851173","111559.590197","112325.886794","113092.726608","116959.529537","117726.193741","118492.771067","119260.017753","120025.816271","120775.624352","121542.286391","122309.407244","122319.117137","Mapping"
"Blocked","Female","done","24","F_depth.wav","space","486.301308498","330","116209.699814","123076.127717","123842.609508","110043.501596","110792.851173","111559.590197","112325.886794","113092.726608","116959.529537","117726.193741","118492.771067","119260.017753","120025.816271","120775.624352","121542.286391","122309.407244","123085.379106","Mapping"
"Blocked","Female","done","24","F_done.wav","None","721.486269962","330","116209.699814","123076.127717","123842.609508","124592.577741","110792.851173","111559.590197","112325.886794","113092.726608","116959.529537","117726.193741","118492.771067","119260.017753","120025.816271","120775.624352","121542.286391","122309.407244","123851.609849","Mapping"
"Blocked","Female","done","24","F_park.wav","space","401.981119998","330","116209.699814","123076.127717","123842.609508","124592.577741","125358.710476","111559.590197","112325.886794","113092.726608","116959.529537","117726.193741","118492.771067","119260.017753","120025.816271","120775.624352","121542.286391","122309.407244","124601.697423","Mapping"
"Blocked","Female","done","24","F_done.wav","None","734.397652093","330","116209.699814","123076.127717","123842.609508","124592.577741","125358.710476","126125.55369","112325.886794","113092.726608","116959.529537","117726.193741","118492.771067","119260.017753","120025.816271","120775.624352","121542.286391","122309.407244","125367.530569","Mapping"
"Blocked","Female","done","24","F_reek.wav","space","309.304289054","330","116209.699814","123076.127717","123842.609508","124592.577741","125358.710476","126125.55369","126892.214803","113092.726608","116959.529537","117726.193741","118492.771067","119260.017753","120025.816271","120775.624352","121542.286391","122309.407244","126134.322461","Mapping"
"Blocked","Female","done","24","F_jaw.wav","None","727.90996125","330","116209.699814","123076.127717","123842.609508","124592.577741","125358.710476","126125.55369","126892.214803","127659.123562","116959.529537","117726.193741","118492.771067","119260.017753","120025.816271","120775.624352","121542.286391","122309.407244","126901.082817","Mapping"
"Blocked","Female","cave","11","F_priest.wav","None","724.15690776","330","130776.338851","123076.127717","123842.609508","124592.577741","125358.710476","126125.55369","126892.214803","127659.123562","116959.529537","117726.193741","118492.771067","119260.017753","120025.816271","120775.624352","121542.286391","122309.407244","127668.471414","Mapping"
"Blocked","Female","cave","11","F_bluff.wav","None","718.95475965","330","130776.338851","123076.127717","123842.609508","124592.577741","125358.710476","126125.55369","126892.214803","127659.123562","131525.982761","117726.193741","118492.771067","119260.017753","120025.816271","120775.624352","121542.286391","122309.407244","130786.396874","Mapping"
"Blocked","Female","cave","11","F_jolt.wav","None","733.606477268","330","130776.338851","123076.127717","123842.609508","124592.577741","125358.710476","126125.55369","126892.214803","127659.123562","131525.982761","132292.548029","118492.771067","119260.017753","120025.816271","120775.624352","121542.286391","122309.407244","131535.311135","Mapping"
"Blocked","Female","cave","11","F_bluff.wav","None","731.065073982","330","130776.338851","123076.127717","123842.609508","124592.577741","125358.710476","126125.55369","126892.214803","127659.123562","131525.982761","132292.548029","133059.213161","119260.017753","120025.816271","120775.624352","121542.286391","122309.407244","132301.565375","Mapping"
"Blocked","Female","cave","11","F_cave.wav","None","727.101473138","330","130776.338851","123076.127717","123842.609508","124592.577741","125358.710476","126125.55369","126892.214803","127659.123562","131525.982761","132292.548029","133059.213161","133826.374824","120025.816271","120775.624352","121542.286391","122309.407244","133068.897702","Mapping"
"Blocked","Female","cave","11","F_jaw.wav","space","414.995457046","330","130776.338851","123076.127717","123842.609508","124592.577741","125358.710476","126125.55369","126892.214803","127659.123562","131525.982761","132292.548029","133059.213161","133826.374824","134593.164242","120775.624352","121542.286391","122309.407244","133836.490661","Mapping"
"Blocked","Female","cave","11","F_priest.wav","None","719.237962272","330","130776.338851","123076.127717","123842.609508","124592.577741","125358.710476","126125.55369","126892.214803","127659.123562","131525.982761","132292.548029","133059.213161","133826.374824","134593.164242","135342.527423","121542.286391","122309.407244","134603.385509","Mapping"
"Blocked","Female","cave","11","F_cave.wav","None","734.501842875","330","130776.338851","123076.127717","123842.609508","124592.577741","125358.710476","126125.55369","126892.214803","127659.123562","131525.982761","132292.548029","133059.213161","133826.374824","134593.164242","135342.527423","136108.69664","122309.407244","135351.643085","Mapping"
"Blocked","Female","cave","11","F_lash.wav","space","485.575988423","330","130776.338851","123076.127717","123842.609508","124592.577741","125358.710476","126125.55369","126892.214803","127659.123562","131525.982761","132292.548029","133059.213161","133826.374824","134593.164242","135342.527423","136108.69664","136875.481112","136117.870736","Mapping"
"Blocked","Female","cave","11","F_romp.wav","None","728.642083704","330","130776.338851","137641.988874","123842.609508","124592.577741","125358.710476","126125.55369","126892.214803","127659.123562","131525.982761","132292.548029","133059.213161","133826.374824","134593.164242","135342.527423","136108.69664","136875.481112","136884.19485","Mapping"
"Blocked","Female","cave","11","F_cave.wav","None","725.708029699","330","130776.338851","137641.988874","138408.937208","124592.577741","125358.710476","126125.55369","126892.214803","127659.123562","131525.982761","132292.548029","133059.213161","133826.374824","134593.164242","135342.527423","136108.69664","136875.481112","137650.940984","Mapping"
"Blocked","Female","cave","11","F_jolt.wav","space","417.396495584","330","130776.338851","137641.988874","138408.937208","139158.642643","125358.710476","126125.55369","126892.214803","127659.123562","131525.982761","132292.548029","133059.213161","133826.374824","134593.164242","135342.527423","136108.69664","136875.481112","138418.006495","Mapping"
"Blocked","Female","cave","11","F_cling.wav","None","735.520877875","330","130776.338851","137641.988874","138408.937208","139158.642643","139925.26449","126125.55369","126892.214803","127659.123562","131525.982761","132292.548029","133059.213161","133826.374824","134593.164242","135342.527423","136108.69664","136875.481112","139167.832198","Mapping"
"Blocked","Female","cave","11","F_cave.wav","None","732.985348441","330","130776.338851","137641.988874","138408.937208","139158.642643","139925.26449","140692.275276","126892.214803","127659.123562","131525.982761","132292.548029","133059.213161","133826.374824","134593.164242","135342.527423","136108.69664","136875.481112","139934.066651","Mapping"
"Blocked","Female","cave","11","F_bluff.wav","None","729.11109915","330","130776.338851","137641.988874","138408.937208","139158.642643","139925.26449","140692.275276","141459.000078","127659.123562","131525.982761","132292.548029","133059.213161","133826.374824","134593.164242","135342.527423","136108.69664","136875.481112","140701.587574","Mapping"
"Blocked","Female","cave","11","F_jaw.wav","space","7.01575819403","330","130776.338851","137641.988874","138408.937208","139158.642643","139925.26449","140692.275276","141459.000078","142225.480324","131525.982761","132292.548029","133059.213161","133826.374824","134593.164242","135342.527423","136108.69664","136875.481112","141468.35535","Mapping"
"Blocked","Female","ball","2","F_jaw.wav","None","723.130762111","330","145342.686029","137641.988874","138408.937208","139158.642643","139925.26449","140692.275276","141459.000078","142225.480324","131525.982761","132292.548029","133059.213161","133826.374824","134593.164242","135342.527423","136108.69664","136875.481112","142234.293306","Mapping"
"Blocked","Female","ball","2","F_cling.wav","None","719.848888461","330","145342.686029","137641.988874","138408.937208","139158.642643","139925.26449","140692.275276","141459.000078","142225.480324","146091.788576","132292.548029","133059.213161","133826.374824","134593.164242","135342.527423","136108.69664","136875.481112","145352.598431","Mapping"
"Blocked","Female","ball","2","F_ball.wav","None","735.408648383","330","145342.686029","137641.988874","138408.937208","139158.642643","139925.26449","140692.275276","141459.000078","142225.480324","146091.788576","146858.512759","133059.213161","133826.374824","134593.164242","135342.527423","136108.69664","136875.481112","146100.835602","Mapping"
"Blocked","Female","ball","2","F_bluff.wav","space","447.566544171","330","145342.686029","137641.988874","138408.937208","139158.642643","139925.26449","140692.275276","141459.000078","142225.480324","146091.788576","146858.512759","147625.628665","133826.374824","134593.164242","135342.527423","136108.69664","136875.481112","146867.694276","Mapping"
"Blocked","Female","ball","2","F_gnash.wav","None","731.292007025","330","145342.686029","137641.988874","138408.937208","139158.642643","139925.26449","140692.275276","141459.000078","142225.480324","146091.788576","146858.512759","147625.628665","148392.201044","134593.164242","135342.527423","136108.69664","136875.481112","147634.730106","Mapping"
"Blocked","Female","ball","2","F_park.wav","None","729.088838678","330","145342.686029","137641.988874","138408.937208","139158.642643","139925.26449","140692.275276","141459.000078","142225.480324","146091.788576","146858.512759","147625.628665","148392.201044","149158.876687","135342.527423","136108.69664","136875.481112","148401.191801","Mapping"
"Blocked","Female","ball","2","F_lash.wav","None","725.912084337","330","145342.686029","137641.988874","138408.937208","139158.642643","139925.26449","140692.275276","141459.000078","142225.480324","146091.788576","146858.512759","147625.628665","148392.201044","149158.876687","149925.318595","136108.69664","136875.481112","149168.187129","Mapping"
"Blocked","Female","ball","2","F_ball.wav","None","723.748798948","330","145342.686029","137641.988874","138408.937208","139158.642643","139925.26449","140692.275276","141459.000078","142225.480324","146091.788576","146858.512759","147625.628665","148392.201044","149158.876687","149925.318595","150692.372975","136875.481112","149934.202069","Mapping"
"Blocked","Female","ball","2","F_depth.wav","space","493.89058305","330","145342.686029","137641.988874","138408.937208","139158.642643","139925.26449","140692.275276","141459.000078","142225.480324","146091.788576","146858.512759","147625.628665","148392.201044","149158.876687","149925.318595","150692.372975","151441.912076","150701.292004","Mapping"
"Blocked","Female","ball","2","F_park.wav","None","734.156806022","330","145342.686029","152208.50486","138408.937208","139158.642643","139925.26449","140692.275276","141459.000078","142225.480324","146091.788576","146858.512759","147625.628665","148392.201044","149158.876687","149925.318595","150692.372975","151441.912076","151450.789984","Mapping"
"Blocked","Female","ball","2","F_ball.wav","None","731.15442507","330","145342.686029","152208.50486","152975.105683","139158.642643","139925.26449","140692.275276","141459.000078","142225.480324","146091.788576","146858.512759","147625.628665","148392.201044","149158.876687","149925.318595","150692.372975","151441.912076","152217.558688","Mapping"
"Blocked","Female","ball","2","F_priest.wav","space","506.977575365","330","145342.686029","152208.50486","152975.105683","153741.941787","139925.26449","140692.275276","141459.000078","142225.480324","146091.788576","146858.512759","147625.628665","148392.201044","149158.876687","149925.318595","150692.372975","151441.912076","152984.20836","Mapping"
"Blocked","Female","ball","2","F_ball.wav","None","724.441037979","330","145342.686029","152208.50486","152975.105683","153741.941787","154509.205477","140692.275276","141459.000078","142225.480324","146091.788576","146858.512759","147625.628665","148392.201044","149158.876687","149925.318595","150692.372975","151441.912076","153751.161332","Mapping"
"Blocked","Female","ball","2","F_dime.wav","space","507.562839892","330","145342.686029","152208.50486","152975.105683","153741.941787","154509.205477","155258.762819","141459.000078","142225.480324","146091.788576","146858.512759","147625.628665","148392.201044","149158.876687","149925.318595","150692.372975","151441.912076","154519.538046","Mapping"
"Blocked","Female","ball","2","F_romp.wav","None","734.19514345","330","145342.686029","152208.50486","152975.105683","153741.941787","154509.205477","155258.762819","156025.515755","142225.480324","146091.788576","146858.512759","147625.628665","148392.201044","149158.876687","149925.318595","150692.372975","151441.912076","155268.213316","Mapping"
"Blocked","Female","ball","2","F_romp.wav","None","731.109285727","330","145342.686029","152208.50486","152975.105683","153741.941787","154509.205477","155258.762819","156025.515755","156792.063091","146091.788576","146858.512759","147625.628665","148392.201044","149158.876687","149925.318595","150692.372975","151441.912076","156034.981402","Mapping"
"Blocked","Female","tile","17","F_greet.wav","None","728.490279522","330","159925.778336","152208.50486","152975.105683","153741.941787","154509.205477","155258.762819","156025.515755","156792.063091","146091.788576","146858.512759","147625.628665","148392.201044","149158.876687","149925.318595","150692.372975","151441.912076","156801.519462","Mapping"
"Blocked","Female","tile","17","F_gnash.wav","None","719.134698156","330","159925.778336","152208.50486","152975.105683","153741.941787","154509.205477","155258.762819","156025.515755","156792.063091","160675.075044","146858.512759","147625.628665","148392.201044","149158.876687","149925.318595","150692.372975","151441.912076","159936.079059","Mapping"
"Blocked","Female","tile","17","F_greet.wav","None","734.384357464","330","159925.778336","152208.50486","152975.105683","153741.941787","154509.205477","155258.762819","156025.515755","156792.063091","160675.075044","161441.629491","147625.628665","148392.201044","149158.876687","149925.318595","150692.372975","151441.912076","160684.928394","Mapping"
"Blocked","Female","tile","17","F_tile.wav","None","732.77541995","330","159925.778336","152208.50486","152975.105683","153741.941787","154509.205477","155258.762819","156025.515755","156792.063091","160675.075044","161441.629491","162208.866592","148392.201044","149158.876687","149925.318595","150692.372975","151441.912076","161450.532752","Mapping"
"Blocked","Female","tile","17","F_bluff.wav","space","321.073894389","330","159925.778336","152208.50486","152975.105683","153741.941787","154509.205477","155258.762819","156025.515755","156792.063091","160675.075044","161441.629491","162208.866592","162975.487203","149158.876687","149925.318595","150692.372975","151441.912076","162217.914856","Mapping"
"Blocked","Female","tile","17","F_tile.wav","None","725.294974633","330","159925.778336","152208.50486","152975.105683","153741.941787","154509.205477","155258.762819","156025.515755","156792.063091","160675.075044","161441.629491","162208.866592","162975.487203","163742.621659","149925.318595","150692.372975","151441.912076","162984.95254","Mapping"
"Blocked","Female","tile","17","F_lash.wav","space","482.542071491","330","159925.778336","152208.50486","152975.105683","153741.941787","154509.205477","155258.762819","156025.515755","156792.063091","160675.075044","161441.629491","162208.866592","162975.487203","163742.621659","164491.914966","150692.372975","151441.912076","163752.412865","Mapping"
"Blocked","Female","tile","17","F_tile.wav","None","736.276497599","330","159925.778336","152208.50486","152975.105683","153741.941787","154509.205477","155258.762819","156025.515755","156792.063091","160675.075044","161441.629491","162208.866592","162975.487203","163742.621659","164491.914966","165258.256084","151441.912076","164500.870477","Mapping"
"Blocked","Female","tile","17","F_park.wav","space","415.869798511","330","159925.778336","152208.50486","152975.105683","153741.941787","154509.205477","155258.762819","156025.515755","156792.063091","160675.075044","161441.629491","162208.866592","162975.487203","163742.621659","164491.914966","165258.256084","166025.327468","165267.057008","Mapping"
"Blocked","Female","tile","17","F_lash.wav","None","729.322882835","330","159925.778336","166791.840486","152975.105683","153741.941787","154509.205477","155258.762819","156025.515755","156792.063091","160675.075044","161441.629491","162208.866592","162975.487203","163742.621659","164491.914966","165258.256084","166025.327468","166034.885867","Mapping"
"Blocked","Female","tile","17","F_park.wav","None","727.306454908","330","159925.778336","166791.840486","167559.033995","153741.941787","154509.205477","155258.762819","156025.515755","156792.063091","160675.075044","161441.629491","162208.866592","162975.487203","163742.621659","164491.914966","165258.256084","166025.327468","166801.001288","Mapping"
"Blocked","Female","tile","17","F_reek.wav","None","723.366660997","330","159925.778336","166791.840486","167559.033995","168325.268447","154509.205477","155258.762819","156025.515755","156792.063091","160675.075044","161441.629491","162208.866592","162975.487203","163742.621659","164491.914966","165258.256084","166025.327468","167568.918262","Mapping"
"Blocked","Female","tile","17","F_bluff.wav","None","721.442985814","330","159925.778336","166791.840486","167559.033995","168325.268447","169075.319538","155258.762819","156025.515755","156792.063091","160675.075044","161441.629491","162208.866592","162975.487203","163742.621659","164491.914966","165258.256084","166025.327468","168334.88899","Mapping"
"Blocked","Female","tile","17","F_tile.wav","None","735.469864216","330","159925.778336","166791.840486","167559.033995","168325.268447","169075.319538","169841.755881","156025.515755","156792.063091","160675.075044","161441.629491","162208.866592","162975.487203","163742.621659","164491.914966","165258.256084","166025.327468","169084.869589","Mapping"
"Blocked","Female","tile","17","F_park.wav","space","351.691625547","330","159925.778336","166791.840486","167559.033995","168325.268447","169075.319538","169841.755881","170608.480683","156792.063091","160675.075044","161441.629491","162208.866592","162975.487203","163742.621659","164491.914966","165258.256084","166025.327468","169851.138051","Mapping"
"Blocked","Female","tile","17","F_romp.wav","None","729.461392388","330","159925.778336","166791.840486","167559.033995","168325.268447","169075.319538","169841.755881","170608.480683","171375.243822","160675.075044","161441.629491","162208.866592","162975.487203","163742.621659","164491.914966","165258.256084","166025.327468","170617.781849","Mapping"
"Blocked","Female","cave","7","F_reek.wav","None","726.876704488","330","174492.176217","166791.840486","167559.033995","168325.268447","169075.319538","169841.755881","170608.480683","171375.243822","160675.075044","161441.629491","162208.866592","162975.487203","163742.621659","164491.914966","165258.256084","166025.327468","171384.417918","Mapping"
"Blocked","Female","cave","7","F_cave.wav","None","718.975783326","330","174492.176217","166791.840486","167559.033995","168325.268447","169075.319538","169841.755881","170608.480683","171375.243822","175241.38172","161441.629491","162208.866592","162975.487203","163742.621659","164491.914966","165258.256084","166025.327468","174501.889203","Mapping"
"Blocked","Female","cave","7","F_greet.wav","space","520.202458836","330","174492.176217","166791.840486","167559.033995","168325.268447","169075.319538","169841.755881","170608.480683","171375.243822","175241.38172","176008.120743","162208.866592","162975.487203","163742.621659","164491.914966","165258.256084","166025.327468","175250.534174","Mapping"
"Blocked","Female","cave","7","F_reek.wav","None","730.529585853","330","174492.176217","166791.840486","167559.033995","168325.268447","169075.319538","169841.755881","170608.480683","171375.243822","175241.38172","176008.120743","176775.110815","162975.487203","163742.621659","164491.914966","165258.256084","166025.327468","176017.143963","Mapping"
"Blocked","Female","cave","7","F_cave.wav","None","726.837439463","330","174492.176217","166791.840486","167559.033995","168325.268447","169075.319538","169841.755881","170608.480683","171375.243822","175241.38172","176008.120743","176775.110815","177542.093467","163742.621659","164491.914966","165258.256084","166025.327468","176784.600269","Mapping"
"Blocked","Female","cave","7","F_jolt.wav","space","482.593703549","330","174492.176217","166791.840486","167559.033995","168325.268447","169075.319538","169841.755881","170608.480683","171375.243822","175241.38172","176008.120743","176775.110815","177542.093467","178308.216927","164491.914966","165258.256084","166025.327468","177552.14778","Mapping"
"Blocked","Female","cave","7","F_cad.wav","None","721.141541842","330","174492.176217","166791.840486","167559.033995","168325.268447","169075.319538","169841.755881","170608.480683","171375.243822","175241.38172","176008.120743","176775.110815","177542.093467","178308.216927","179057.999346","165258.256084","166025.327468","178317.199027","Mapping"
"Blocked","Female","cave","7","F_cling.wav","None","740.526082925","330","174492.176217","166791.840486","167559.033995","168325.268447","169075.319538","169841.755881","170608.480683","171375.243822","175241.38172","176008.120743","176775.110815","177542.093467","178308.216927","179057.999346","179825.175232","166025.327468","179061.83835","Mapping"
"Blocked","Female","cave","7","F_lash.wav","None","731.60087131","330","174492.176217","166791.840486","167559.033995","168325.268447","169075.319538","169841.755881","170608.480683","171375.243822","175241.38172","176008.120743","176775.110815","177542.093467","178308.216927","179057.999346","179825.175232","180591.69536","179834.656337","Mapping"
"Blocked","Female","cave","7","F_priest.wav","None","729.361529462","330","174492.176217","181358.442422","167559.033995","168325.268447","169075.319538","169841.755881","170608.480683","171375.243822","175241.38172","176008.120743","176775.110815","177542.093467","178308.216927","179057.999346","179825.175232","180591.69536","180601.001474","Mapping"
"Blocked","Female","cave","7","F_lash.wav","None","726.646061521","330","174492.176217","181358.442422","182125.658809","168325.268447","169075.319538","169841.755881","170608.480683","171375.243822","175241.38172","176008.120743","176775.110815","177542.093467","178308.216927","179057.999346","179825.175232","180591.69536","181367.713599","Mapping"
"Blocked","Female","cave","7","F_knife.wav","None","722.466967069","330","174492.176217","181358.442422","182125.658809","182892.011057","169075.319538","169841.755881","170608.480683","171375.243822","175241.38172","176008.120743","176775.110815","177542.093467","178308.216927","179057.999346","179825.175232","180591.69536","182135.872655","Mapping"
"Blocked","Female","cave","7","F_cave.wav","None","720.661704894","330","174492.176217","181358.442422","182125.658809","182892.011057","183641.541191","169841.755881","170608.480683","171375.243822","175241.38172","176008.120743","176775.110815","177542.093467","178308.216927","179057.999346","179825.175232","180591.69536","182901.724661","Mapping"
"Blocked","Female","cave","7","F_park.wav","space","472.110258881","330","174492.176217","181358.442422","182125.658809","182892.011057","183641.541191","184407.912917","170608.480683","171375.243822","175241.38172","176008.120743","176775.110815","177542.093467","178308.216927","179057.999346","179825.175232","180591.69536","183650.521436","Mapping"
"Blocked","Female","cave","7","F_cave.wav","None","732.663189992","330","174492.176217","181358.442422","182125.658809","182892.011057","183641.541191","184407.912917","185174.560735","171375.243822","175241.38172","176008.120743","176775.110815","177542.093467","178308.216927","179057.999346","179825.175232","180591.69536","184416.607176","Mapping"
"Blocked","Female","cave","7","F_jolt.wav","space","571.103807073","330","174492.176217","181358.442422","182125.658809","182892.011057","183641.541191","184407.912917","185174.560735","185941.818551","175241.38172","176008.120743","176775.110815","177542.093467","178308.216927","179057.999346","179825.175232","180591.69536","185183.459357","Mapping"
"Blocked","Female","cave","9","F_gnash.wav","None","725.141933654","330","189057.649672","181358.442422","182125.658809","182892.011057","183641.541191","184407.912917","185174.560735","185941.818551","175241.38172","176008.120743","176775.110815","177542.093467","178308.216927","179057.999346","179825.175232","180591.69536","185951.051081","Mapping"
"Blocked","Female","cave","9","F_greet.wav","None","726.535377093","330","189057.649672","181358.442422","182125.658809","182892.011057","183641.541191","184407.912917","185174.560735","185941.818551","189825.26922","176008.120743","176775.110815","177542.093467","178308.216927","179057.999346","179825.175232","180591.69536","189066.460798","Mapping"
"Blocked","Female","cave","9","F_cave.wav","None","721.835944802","330","189057.649672","181358.442422","182125.658809","182892.011057","183641.541191","184407.912917","185174.560735","185941.818551","189825.26922","190592.017828","176775.110815","177542.093467","178308.216927","179057.999346","179825.175232","180591.69536","189835.311784","Mapping"
"Blocked","Female","cave","9","F_priest.wav","space","432.624512818","330","189057.649672","181358.442422","182125.658809","182892.011057","183641.541191","184407.912917","185174.560735","185941.818551","189825.26922","190592.017828","191341.611343","177542.093467","178308.216927","179057.999346","179825.175232","180591.69536","190601.852009","Mapping"
"Blocked","Female","cave","9","F_cave.wav","None","733.164050616","330","189057.649672","181358.442422","182125.658809","182892.011057","183641.541191","184407.912917","185174.560735","185941.818551","189825.26922","190592.017828","191341.611343","192108.195779","178308.216927","179057.999346","179825.175232","180591.69536","191350.859022","Mapping"
"Blocked","Female","cave","9","F_knife.wav","space","412.599055097","330","189057.649672","181358.442422","182125.658809","182892.011057","183641.541191","184407.912917","185174.560735","185941.818551","189825.26922","190592.017828","191341.611343","192108.195779","192874.944697","179057.999346","179825.175232","180591.69536","192117.855587","Mapping"
"Blocked","Female","cave","9","F_lash.wav","None","726.040081587","330","189057.649672","181358.442422","182125.658809","182892.011057","183641.541191","184407.912917","185174.560735","185941.818551","189825.26922","190592.017828","191341.611343","192108.195779","192874.944697","193641.437309","179825.175232","180591.69536","192884.851533","Mapping"
"Blocked","Female","cave","9","F_cave.wav","None","724.564088974","330","189057.649672","181358.442422","182125.658809","182892.011057","183641.541191","184407.912917","185174.560735","185941.818551","189825.26922","190592.017828","191341.611343","192108.195779","192874.944697","193641.437309","194407.884164","180591.69536","193650.300377","Mapping"
"Blocked","Female","cave","9","F_greet.wav","space","433.281196281","330","189057.649672","181358.442422","182125.658809","182892.011057","183641.541191","184407.912917","185174.560735","185941.818551","189825.26922","190592.017828","191341.611343","192108.195779","192874.944697","193641.437309","194407.884164","195157.871256","194417.149776","Mapping"
"Blocked","Female","cave","9","F_romp.wav","None","735.016307328","330","189057.649672","195924.777851","182125.658809","182892.011057","183641.541191","184407.912917","185174.560735","185941.818551","189825.26922","190592.017828","191341.611343","192108.195779","192874.944697","193641.437309","194407.884164","195157.871256","195167.40894","Mapping"
"Blocked","Female","cave","9","F_knife.wav","None","732.559307944","330","189057.649672","195924.777851","196691.412065","182892.011057","183641.541191","184407.912917","185174.560735","185941.818551","189825.26922","190592.017828","191341.611343","192108.195779","192874.944697","193641.437309","194407.884164","195157.871256","195933.901553","Mapping"
"Blocked","Female","cave","9","F_cad.wav","None","729.746759403","330","189057.649672","195924.777851","196691.412065","197457.990937","183641.541191","184407.912917","185174.560735","185941.818551","189825.26922","190592.017828","191341.611343","192108.195779","192874.944697","193641.437309","194407.884164","195157.871256","196700.711067","Mapping"
"Blocked","Female","cave","9","F_greet.wav","space","582.670285832","330","189057.649672","195924.777851","196691.412065","197457.990937","198225.438895","184407.912917","185174.560735","185941.818551","189825.26922","190592.017828","191341.611343","192108.195779","192874.944697","193641.437309","194407.884164","195157.871256","197467.668058","Mapping"
"Blocked","Female","cave","9","F_cave.wav","None","722.174489405","330","189057.649672","195924.777851","196691.412065","197457.990937","198225.438895","198991.901517","185174.560735","185941.818551","189825.26922","190592.017828","191341.611343","192108.195779","192874.944697","193641.437309","194407.884164","195157.871256","198235.386851","Mapping"
"Blocked","Female","cave","9","F_jaw.wav","space","680.529168341","330","189057.649672","195924.777851","196691.412065","197457.990937","198225.438895","198991.901517","199741.262533","185941.818551","189825.26922","190592.017828","191341.611343","192108.195779","192874.944697","193641.437309","194407.884164","195157.871256","199001.780838","Mapping"
"Blocked","Female","cave","9","F_jolt.wav","None","734.50709926","330","189057.649672","195924.777851","196691.412065","197457.990937","198225.438895","198991.901517","199741.262533","200507.896129","189825.26922","190592.017828","191341.611343","192108.195779","192874.944697","193641.437309","194407.884164","195157.871256","199750.319144","Mapping"
"Blocked","Female","ball","3","F_park.wav","None","731.468854006","330","203641.872316","195924.777851","196691.412065","197457.990937","198225.438895","198991.901517","199741.262533","200507.896129","189825.26922","190592.017828","191341.611343","192108.195779","192874.944697","193641.437309","194407.884164","195157.871256","200517.314781","Mapping"
"Blocked","Female","ball","3","F_ball.wav","None","719.695847481","330","203641.872316","195924.777851","196691.412065","197457.990937","198225.438895","198991.901517","199741.262533","200507.896129","204390.907154","190592.017828","191341.611343","192108.195779","192874.944697","193641.437309","194407.884164","195157.871256","203651.698458","Mapping"
"Blocked","Female","ball","3","F_priest.wav","None","735.031456687","330","203641.872316","195924.777851","196691.412065","197457.990937","198225.438895","198991.901517","199741.262533","200507.896129","204390.907154","205157.970501","191341.611343","192108.195779","192874.944697","193641.437309","194407.884164","195157.871256","204400.367854","Mapping"
"Blocked","Female","ball","3","F_ball.wav","space","0.0336999073625","330","203641.872316","195924.777851","196691.412065","197457.990937","198225.438895","198991.901517","199741.262533","200507.896129","204390.907154","205157.970501","205924.725601","192108.195779","192874.944697","193641.437309","194407.884164","195157.871256","205167.616704","Mapping"
"Blocked","Female","ball","3","F_lash.wav","space","572.039365303","330","203641.872316","195924.777851","196691.412065","197457.990937","198225.438895","198991.901517","199741.262533","200507.896129","204390.907154","205157.970501","205924.725601","206691.216977","192874.944697","193641.437309","194407.884164","195157.871256","205934.187228","Mapping"
"Blocked","Female","ball","3","F_reek.wav","None","725.183671806","330","203641.872316","195924.777851","196691.412065","197457.990937","198225.438895","198991.901517","199741.262533","200507.896129","204390.907154","205157.970501","205924.725601","206691.216977","207458.293308","193641.437309","194407.884164","195157.871256","206700.46342","Mapping"
"Blocked","Female","ball","3","F_romp.wav","None","721.250988543","330","203641.872316","195924.777851","196691.412065","197457.990937","198225.438895","198991.901517","199741.262533","200507.896129","204390.907154","205157.970501","205924.725601","206691.216977","207458.293308","208224.41986","194407.884164","195157.871256","207468.767169","Mapping"
"Blocked","Female","ball","3","F_park.wav","None","720.724467188","330","203641.872316","195924.777851","196691.412065","197457.990937","198225.438895","198991.901517","199741.262533","200507.896129","204390.907154","205157.970501","205924.725601","206691.216977","207458.293308","208224.41986","208974.00008","195157.871256","208233.641259","Mapping"
"Blocked","Female","ball","3","F_gnash.wav","None","735.450695734","330","203641.872316","195924.777851","196691.412065","197457.990937","198225.438895","198991.901517","199741.262533","200507.896129","204390.907154","205157.970501","205924.725601","206691.216977","207458.293308","208224.41986","208974.00008","209741.160197","208983.054217","Mapping"
"Blocked","Female","ball","3","F_dime.wav","None","737.523083575","330","203641.872316","210507.47689","196691.412065","197457.990937","198225.438895","198991.901517","199741.262533","200507.896129","204390.907154","205157.970501","205924.725601","206691.216977","207458.293308","208224.41986","208974.00008","209741.160197","209745.133382","Mapping"
"Blocked","Female","ball","3","F_ball.wav","None","730.393858626","330","203641.872316","210507.47689","211274.577028","197457.990937","198225.438895","198991.901517","199741.262533","200507.896129","204390.907154","205157.970501","205924.725601","206691.216977","207458.293308","208224.41986","208974.00008","209741.160197","210516.395609","Mapping"
"Blocked","Female","ball","3","F_lash.wav","space","381.675242446","330","203641.872316","210507.47689","211274.577028","212041.481768","198225.438895","198991.901517","199741.262533","200507.896129","204390.907154","205157.970501","205924.725601","206691.216977","207458.293308","208224.41986","208974.00008","209741.160197","211284.39977","Mapping"
"Blocked","Female","ball","3","F_ball.wav","None","722.268478014","330","203641.872316","210507.47689","211274.577028","212041.481768","212808.351263","198991.901517","199741.262533","200507.896129","204390.907154","205157.970501","205924.725601","206691.216977","207458.293308","208224.41986","208974.00008","209741.160197","212051.450131","Mapping"
"Blocked","Female","ball","3","F_romp.wav","space","391.87486656","330","203641.872316","210507.47689","211274.577028","212041.481768","212808.351263","213557.802867","199741.262533","200507.896129","204390.907154","205157.970501","205924.725601","206691.216977","207458.293308","208224.41986","208974.00008","209741.160197","212818.173386","Mapping"
"Blocked","Female","ball","3","F_dime.wav","None","733.273807447","330","203641.872316","210507.47689","211274.577028","212041.481768","212808.351263","213557.802867","214324.014131","200507.896129","204390.907154","205157.970501","205924.725601","206691.216977","207458.293308","208224.41986","208974.00008","209741.160197","213567.503794","Mapping"
"Blocked","Female","ball","3","F_romp.wav","None","732.183044311","330","203641.872316","210507.47689","211274.577028","212041.481768","212808.351263","213557.802867","214324.014131","215091.056763","204390.907154","205157.970501","205924.725601","206691.216977","207458.293308","208224.41986","208974.00008","209741.160197","214332.861432","Mapping"
"Blocked","Female","cave","12","F_reek.wav","None","728.890658822","330","218224.981937","210507.47689","211274.577028","212041.481768","212808.351263","213557.802867","214324.014131","215091.056763","204390.907154","205157.970501","205924.725601","206691.216977","207458.293308","208224.41986","208974.00008","209741.160197","215100.368751","Mapping"
"Blocked","Female","cave","12","F_knife.wav","None","718.704947736","330","218224.981937","210507.47689","211274.577028","212041.481768","212808.351263","213557.802867","214324.014131","215091.056763","218974.316982","205157.970501","205924.725601","206691.216977","207458.293308","208224.41986","208974.00008","209741.160197","218235.009042","Mapping"
"Blocked","Female","cave","12","F_cave.wav","None","734.22791576","330","218224.981937","210507.47689","211274.577028","212041.481768","212808.351263","213557.802867","214324.014131","215091.056763","218974.316982","219740.630583","205924.725601","206691.216977","207458.293308","208224.41986","208974.00008","209741.160197","218983.895786","Mapping"
"Blocked","Female","cave","12","F_depth.wav","space","444.220362697","330","218224.981937","210507.47689","211274.577028","212041.481768","212808.351263","213557.802867","214324.014131","215091.056763","218974.316982","219740.630583","220507.321067","206691.216977","207458.293308","208224.41986","208974.00008","209741.160197","219749.759231","Mapping"
"Blocked","Female","cave","12","F_cave.wav","None","728.721231688","330","218224.981937","210507.47689","211274.577028","212041.481768","212808.351263","213557.802867","214324.014131","215091.056763","218974.316982","219740.630583","220507.321067","221274.301864","207458.293308","208224.41986","208974.00008","209741.160197","220516.508149","Mapping"
"Blocked","Female","cave","12","F_reek.wav","space","462.087481748","330","218224.981937","210507.47689","211274.577028","212041.481768","212808.351263","213557.802867","214324.014131","215091.056763","218974.316982","219740.630583","220507.321067","221274.301864","222041.596781","208224.41986","208974.00008","209741.160197","221283.839857","Mapping"
"Blocked","Female","cave","12","F_jaw.wav","None","720.96500406","330","218224.981937","210507.47689","211274.577028","212041.481768","212808.351263","213557.802867","214324.014131","215091.056763","218974.316982","219740.630583","220507.321067","221274.301864","222041.596781","222791.270989","208974.00008","209741.160197","222051.370364","Mapping"
"Blocked","Female","cave","12","F_cave.wav","None","735.637127422","330","218224.981937","210507.47689","211274.577028","212041.481768","212808.351263","213557.802867","214324.014131","215091.056763","218974.316982","219740.630583","220507.321067","221274.301864","222041.596781","222791.270989","223557.174627","209741.160197","222800.791978","Mapping"
"Blocked","Female","cave","12","F_cling.wav","space","499.560819473","330","218224.981937","210507.47689","211274.577028","212041.481768","212808.351263","213557.802867","214324.014131","215091.056763","218974.316982","219740.630583","220507.321067","221274.301864","222041.596781","222791.270989","223557.174627","224323.9625","223566.321516","Mapping"
"Blocked","Female","cave","12","F_cave.wav","None","730.848034378","330","218224.981937","225090.855182","211274.577028","212041.481768","212808.351263","213557.802867","214324.014131","215091.056763","218974.316982","219740.630583","220507.321067","221274.301864","222041.596781","222791.270989","223557.174627","224323.9625","224332.849374","Mapping"
"Blocked","Female","cave","12","F_jolt.wav","space","645.654122345","330","218224.981937","225090.855182","225857.866588","212041.481768","212808.351263","213557.802867","214324.014131","215091.056763","218974.316982","219740.630583","220507.321067","221274.301864","222041.596781","222791.270989","223557.174627","224323.9625","225100.176754","Mapping"
"Blocked","Female","cave","12","F_dime.wav","None","722.769338638","330","218224.981937","225090.855182","225857.866588","226624.709184","212808.351263","213557.802867","214324.014131","215091.056763","218974.316982","219740.630583","220507.321067","221274.301864","222041.596781","222791.270989","223557.174627","224323.9625","225868.016434","Mapping"
"Blocked","Female","cave","12","F_cad.wav","None","720.532779582","330","218224.981937","225090.855182","225857.866588","226624.709184","227373.869547","213557.802867","214324.014131","215091.056763","218974.316982","219740.630583","220507.321067","221274.301864","222041.596781","222791.270989","223557.174627","224323.9625","226634.413203","Mapping"
"Blocked","Female","cave","12","F_priest.wav","None","735.734207556","330","218224.981937","225090.855182","225857.866588","226624.709184","227373.869547","228140.813243","214324.014131","215091.056763","218974.316982","219740.630583","220507.321067","221274.301864","222041.596781","222791.270989","223557.174627","224323.9625","227383.279852","Mapping"
"Blocked","Female","cave","12","F_jaw.wav","None","732.992459554","330","218224.981937","225090.855182","225857.866588","226624.709184","227373.869547","228140.813243","228907.210321","215091.056763","218974.316982","219740.630583","220507.321067","221274.301864","222041.596781","222791.270989","223557.174627","224323.9625","228150.328666","Mapping"
"Blocked","Female","cave","12","F_greet.wav","None","731.780500617","330","218224.981937","225090.855182","225857.866588","226624.709184","227373.869547","228140.813243","228907.210321","229674.169166","218974.316982","219740.630583","220507.321067","221274.301864","222041.596781","222791.270989","223557.174627","224323.9625","228915.8749","Mapping"
"Blocked","Female","ball","6","F_park.wav","None","727.636961266","330","232807.82134","225090.855182","225857.866588","226624.709184","227373.869547","228140.813243","228907.210321","229674.169166","218974.316982","219740.630583","220507.321067","221274.301864","222041.596781","222791.270989","223557.174627","224323.9625","229684.195963","Mapping"
"Blocked","Female","ball","6","F_ball.wav","None","720.253596548","330","232807.82134","225090.855182","225857.866588","226624.709184","227373.869547","228140.813243","228907.210321","229674.169166","233557.183593","219740.630583","220507.321067","221274.301864","222041.596781","222791.270989","223557.174627","224323.9625","232817.726012","Mapping"
"Blocked","Female","ball","6","F_cling.wav","space","546.951196622","330","232807.82134","225090.855182","225857.866588","226624.709184","227373.869547","228140.813243","228907.210321","229674.169166","233557.183593","234324.085242","220507.321067","221274.301864","222041.596781","222791.270989","223557.174627","224323.9625","233566.732098","Mapping"
"Blocked","Female","ball","6","F_ball.wav","None","731.723921839","330","232807.82134","225090.855182","225857.866588","226624.709184","227373.869547","228140.813243","228907.210321","229674.169166","233557.183593","234324.085242","235090.636597","221274.301864","222041.596781","222791.270989","223557.174627","224323.9625","234333.600974","Mapping"
"Blocked","Female","ball","6","F_park.wav","space","445.090994239","330","232807.82134","225090.855182","225857.866588","226624.709184","227373.869547","228140.813243","228907.210321","229674.169166","233557.183593","234324.085242","235090.636597","235857.348722","222041.596781","222791.270989","223557.174627","224323.9625","235100.604032","Mapping"
"Blocked","Female","ball","6","F_depth.wav","None","726.06543405","330","232807.82134","225090.855182","225857.866588","226624.709184","227373.869547","228140.813243","228907.210321","229674.169166","233557.183593","234324.085242","235090.636597","235857.348722","236624.491526","222791.270989","223557.174627","224323.9625","235866.622991","Mapping"
"Blocked","Female","ball","6","F_ball.wav","None","722.498193383","330","232807.82134","225090.855182","225857.866588","226624.709184","227373.869547","228140.813243","228907.210321","229674.169166","233557.183593","234324.085242","235090.636597","235857.348722","236624.491526","237391.145836","223557.174627","224323.9625","236634.484931","Mapping"
"Blocked","Female","ball","6","F_dime.wav","space","432.711699512","330","232807.82134","225090.855182","225857.866588","226624.709184","227373.869547","228140.813243","228907.210321","229674.169166","233557.183593","234324.085242","235090.636597","235857.348722","236624.491526","237391.145836","238140.598986","224323.9625","237400.919419","Mapping"
"Blocked","Female","ball","6","F_ball.wav","None","734.307682607","330","232807.82134","225090.855182","225857.866588","226624.709184","227373.869547","228140.813243","228907.210321","229674.169166","233557.183593","234324.085242","235090.636597","235857.348722","236624.491526","237391.145836","238140.598986","238907.004411","238149.906027","Mapping"
"Blocked","Female","ball","6","F_depth.wav","space","485.355547629","330","232807.82134","239673.468889","225857.866588","226624.709184","227373.869547","228140.813243","228907.210321","229674.169166","233557.183593","234324.085242","235090.636597","235857.348722","236624.491526","237391.145836","238140.598986","238907.004411","238916.246835","Mapping"
"Blocked","Female","ball","6","F_priest.wav","None","728.656614665","330","232807.82134","239673.468889","240440.621896","226624.709184","227373.869547","228140.813243","228907.210321","229674.169166","233557.183593","234324.085242","235090.636597","235857.348722","236624.491526","237391.145836","238140.598986","238907.004411","239682.584552","Mapping"
"Blocked","Female","ball","6","F_lash.wav","None","725.661962759","330","232807.82134","239673.468889","240440.621896","241207.658035","227373.869547","228140.813243","228907.210321","229674.169166","233557.183593","234324.085242","235090.636597","235857.348722","236624.491526","237391.145836","238140.598986","238907.004411","240450.030345","Mapping"
"Blocked","Female","ball","6","F_bluff.wav","None","722.734401934","330","232807.82134","239673.468889","240440.621896","241207.658035","241974.468168","228140.813243","228907.210321","229674.169166","233557.183593","234324.085242","235090.636597","235857.348722","236624.491526","237391.145836","238140.598986","238907.004411","241217.232201","Mapping"
"Blocked","Female","ball","6","F_reek.wav","None","719.889081083","330","232807.82134","239673.468889","240440.621896","241207.658035","241974.468168","242723.753746","228907.210321","229674.169166","233557.183593","234324.085242","235090.636597","235857.348722","236624.491526","237391.145836","238140.598986","238907.004411","241984.596063","Mapping"
"Blocked","Female","ball","6","F_romp.wav","None","735.690923408","330","232807.82134","239673.468889","240440.621896","241207.658035","241974.468168","242723.753746","243490.605927","229674.169166","233557.183593","234324.085242","235090.636597","235857.348722","236624.491526","237391.145836","238140.598986","238907.004411","242733.208881","Mapping"
"Blocked","Female","ball","6","F_reek.wav","None","733.385419007","330","232807.82134","239673.468889","240440.621896","241207.658035","241974.468168","242723.753746","243490.605927","244256.896649","233557.183593","234324.085242","235090.636597","235857.348722","236624.491526","237391.145836","238140.598986","238907.004411","243499.991188","Mapping"
"Blocked","Female","done","19","F_knife.wav","None","731.243157759","330","247391.071016","239673.468889","240440.621896","241207.658035","241974.468168","242723.753746","243490.605927","244256.896649","233557.183593","234324.085242","235090.636597","235857.348722","236624.491526","237391.145836","238140.598986","238907.004411","244266.483183","Mapping"
"Blocked","Female","done","19","F_lash.wav","None","719.716871623","330","247391.071016","239673.468889","240440.621896","241207.658035","241974.468168","242723.753746","243490.605927","244256.896649","248140.41812","234324.085242","235090.636597","235857.348722","236624.491526","237391.145836","238140.598986","238907.004411","247400.839034","Mapping"
"Blocked","Female","done","19","F_depth.wav","None","734.933139756","330","247391.071016","239673.468889","240440.621896","241207.658035","241974.468168","242723.753746","243490.605927","244256.896649","248140.41812","248907.367381","235090.636597","235857.348722","236624.491526","237391.145836","238140.598986","238907.004411","248149.901698","Mapping"
"Blocked","Female","done","19","F_done.wav","None","732.092765626","330","247391.071016","239673.468889","240440.621896","241207.658035","241974.468168","242723.753746","243490.605927","244256.896649","248140.41812","248907.367381","249673.784246","235857.348722","236624.491526","237391.145836","238140.598986","238907.004411","248917.140036","Mapping"
"Blocked","Female","done","19","F_depth.wav","space","422.282359563","330","247391.071016","239673.468889","240440.621896","241207.658035","241974.468168","242723.753746","243490.605927","244256.896649","248140.41812","248907.367381","249673.784246","250440.3322","236624.491526","237391.145836","238140.598986","238907.004411","249683.160542","Mapping"
"Blocked","Female","done","19","F_dime.wav","None","727.245857473","330","247391.071016","239673.468889","240440.621896","241207.658035","241974.468168","242723.753746","243490.605927","244256.896649","248140.41812","248907.367381","249673.784246","250440.3322","251207.567138","237391.145836","238140.598986","238907.004411","250449.309972","Mapping"
"Blocked","Female","done","19","F_depth.wav","space","496.370770503","330","247391.071016","239673.468889","240440.621896","241207.658035","241974.468168","242723.753746","243490.605927","244256.896649","248140.41812","248907.367381","249673.784246","250440.3322","251207.567138","251974.102107","238140.598986","238907.004411","251217.014543","Mapping"
"Blocked","Female","done","19","F_depth.wav","None","719.918143004","330","247391.071016","239673.468889","240440.621896","241207.658035","241974.468168","242723.753746","243490.605927","244256.896649","248140.41812","248907.367381","249673.784246","250440.3322","251207.567138","251974.102107","252740.215982","238907.004411","251983.972461","Mapping"
"Blocked","Female","done","19","F_done.wav","None","722.527564969","330","247391.071016","239673.468889","240440.621896","241207.658035","241974.468168","242723.753746","243490.605927","244256.896649","248140.41812","248907.367381","249673.784246","250440.3322","251207.567138","251974.102107","252740.215982","253506.723435","252749.278467","Mapping"
"Blocked","Female","done","19","F_park.wav","None","720.536180772","330","247391.071016","254257.038251","240440.621896","241207.658035","241974.468168","242723.753746","243490.605927","244256.896649","248140.41812","248907.367381","249673.784246","250440.3322","251207.567138","251974.102107","252740.215982","253506.723435","253515.788702","Mapping"
"Blocked","Female","done","19","F_bluff.wav","space","46.9918530434","330","247391.071016","254257.038251","255023.715748","241207.658035","241974.468168","242723.753746","243490.605927","244256.896649","248140.41812","248907.367381","249673.784246","250440.3322","251207.567138","251974.102107","252740.215982","253506.723435","254266.361368","Mapping"
"Blocked","Female","done","19","F_done.wav","None","730.626048055","330","247391.071016","254257.038251","255023.715748","255790.256592","241974.468168","242723.753746","243490.605927","244256.896649","248140.41812","248907.367381","249673.784246","250440.3322","251207.567138","251974.102107","252740.215982","253506.723435","255033.156661","Mapping"
"Blocked","Female","done","19","F_greet.wav","space","697.785670403","330","247391.071016","254257.038251","255023.715748","255790.256592","256556.966863","242723.753746","243490.605927","244256.896649","248140.41812","248907.367381","249673.784246","250440.3322","251207.567138","251974.102107","252740.215982","253506.723435","255799.499325","Mapping"
"Blocked","Female","done","19","F_greet.wav","None","725.048872642","330","247391.071016","254257.038251","255023.715748","255790.256592","256556.966863","257324.006402","243490.605927","244256.896649","248140.41812","248907.367381","249673.784246","250440.3322","251207.567138","251974.102107","252740.215982","253506.723435","256566.249479","Mapping"
"Blocked","Female","done","19","F_done.wav","None","721.650440712","330","247391.071016","254257.038251","255023.715748","255790.256592","256556.966863","257324.006402","258090.733986","244256.896649","248140.41812","248907.367381","249673.784246","250440.3322","251207.567138","251974.102107","252740.215982","253506.723435","257333.96889","Mapping"
"Blocked","Female","done","19","F_cad.wav","space","652.410175186","330","247391.071016","254257.038251","255023.715748","255790.256592","256556.966863","257324.006402","258090.733986","258840.313897","248140.41812","248907.367381","249673.784246","250440.3322","251207.567138","251974.102107","252740.215982","253506.723435","258100.832511","Mapping"
"Blocked","Female","tile","15","F_jolt.wav","None","733.949350659","330","261974.123131","254257.038251","255023.715748","255790.256592","256556.966863","257324.006402","258090.733986","258840.313897","248140.41812","248907.367381","249673.784246","250440.3322","251207.567138","251974.102107","252740.215982","253506.723435","258849.314857","Mapping"
"Blocked","Female","tile","15","F_bluff.wav","None","719.367815182","330","261974.123131","254257.038251","255023.715748","255790.256592","256556.966863","257324.006402","258090.733986","258840.313897","262723.308846","248907.367381","249673.784246","250440.3322","251207.567138","251974.102107","252740.215982","253506.723435","261983.89053","Mapping"
"Blocked","Female","tile","15","F_greet.wav","None","735.262718517","330","261974.123131","254257.038251","255023.715748","255790.256592","256556.966863","257324.006402","258090.733986","258840.313897","262723.308846","263490.115269","249673.784246","250440.3322","251207.567138","251974.102107","252740.215982","253506.723435","262732.595481","Mapping"
"Blocked","Female","tile","15","F_tile.wav","None","733.186001889","330","261974.123131","254257.038251","255023.715748","255790.256592","256556.966863","257324.006402","258090.733986","258840.313897","262723.308846","263490.115269","264256.859548","250440.3322","251207.567138","251974.102107","252740.215982","253506.723435","263499.315645","Mapping"
"Blocked","Female","tile","15","F_lash.wav","space","390.530890785","330","261974.123131","254257.038251","255023.715748","255790.256592","256556.966863","257324.006402","258090.733986","258840.313897","262723.308846","263490.115269","264256.859548","265023.582804","251207.567138","251974.102107","252740.215982","253506.723435","264266.626639","Mapping"
"Blocked","Female","tile","15","F_tile.wav","None","727.751355618","330","261974.123131","254257.038251","255023.715748","255790.256592","256556.966863","257324.006402","258090.733986","258840.313897","262723.308846","263490.115269","264256.859548","265023.582804","265789.806745","251974.102107","252740.215982","253506.723435","265033.158826","Mapping"
"Blocked","Female","tile","15","F_knife.wav","space","450.410319027","330","261974.123131","254257.038251","255023.715748","255790.256592","256556.966863","257324.006402","258090.733986","258840.313897","262723.308846","263490.115269","264256.859548","265023.582804","265789.806745","266556.675312","252740.215982","253506.723435","265798.748034","Mapping"
"Blocked","Female","tile","15","F_tile.wav","None","722.832100466","330","261974.123131","254257.038251","255023.715748","255790.256592","256556.966863","257324.006402","258090.733986","258840.313897","262723.308846","263490.115269","264256.859548","265023.582804","265789.806745","266556.675312","267323.999291","253506.723435","266565.817564","Mapping"
"Blocked","Female","tile","15","F_lash.wav","space","626.984698698","330","261974.123131","254257.038251","255023.715748","255790.256592","256556.966863","257324.006402","258090.733986","258840.313897","262723.308846","263490.115269","264256.859548","265023.582804","265789.806745","266556.675312","267323.999291","268073.344849","267334.09256","Mapping"
"Blocked","Female","tile","15","F_park.wav","None","733.590709977","330","261974.123131","268840.037496","255023.715748","255790.256592","256556.966863","257324.006402","258090.733986","258840.313897","262723.308846","263490.115269","264256.859548","265023.582804","265789.806745","266556.675312","267323.999291","268073.344849","268082.710323","Mapping"
"Blocked","Female","tile","15","F_knife.wav","None","731.860885862","330","261974.123131","268840.037496","269606.820113","255790.256592","256556.966863","257324.006402","258090.733986","258840.313897","262723.308846","263490.115269","264256.859548","265023.582804","265789.806745","266556.675312","267323.999291","268073.344849","268849.176965","Mapping"
"Blocked","Female","tile","15","F_priest.wav","None","729.542704765","330","261974.123131","268840.037496","269606.820113","270373.058276","256556.966863","257324.006402","258090.733986","258840.313897","262723.308846","263490.115269","264256.859548","265023.582804","265789.806745","266556.675312","267323.999291","268073.344849","269615.992973","Mapping"
"Blocked","Female","tile","15","F_park.wav","None","728.234284092","330","261974.123131","268840.037496","269606.820113","270373.058276","271139.613651","257324.006402","258090.733986","258840.313897","262723.308846","263490.115269","264256.859548","265023.582804","265789.806745","266556.675312","267323.999291","268073.344849","270381.838795","Mapping"
"Blocked","Female","tile","15","F_cling.wav","None","725.931562018","330","261974.123131","268840.037496","269606.820113","270373.058276","271139.613651","271907.129318","258090.733986","258840.313897","262723.308846","263490.115269","264256.859548","265023.582804","265789.806745","266556.675312","267323.999291","268073.344849","271148.62234","Mapping"
"Blocked","Female","tile","15","F_tile.wav","None","722.288883757","330","261974.123131","268840.037496","269606.820113","270373.058276","271139.613651","271907.129318","272673.818564","258840.313897","262723.308846","263490.115269","264256.859548","265023.582804","265789.806745","266556.675312","267323.999291","268073.344849","271916.973083","Mapping"
"Blocked","Female","tile","15","F_dime.wav","space","453.210501","330","261974.123131","268840.037496","269606.820113","270373.058276","271139.613651","271907.129318","272673.818564","273422.737463","262723.308846","263490.115269","264256.859548","265023.582804","265789.806745","266556.675312","267323.999291","268073.344849","272683.808259","Mapping"
"Blocked","Female","done","21","F_priest.wav","None","735.404628795","330","276557.112174","268840.037496","269606.820113","270373.058276","271139.613651","271907.129318","272673.818564","273422.737463","262723.308846","263490.115269","264256.859548","265023.582804","265789.806745","266556.675312","267323.999291","268073.344849","273431.653399","Mapping"
"Blocked","Female","done","21","F_gnash.wav","None","720.653047785","330","276557.112174","268840.037496","269606.820113","270373.058276","271139.613651","271907.129318","272673.818564","273422.737463","277306.653129","263490.115269","264256.859548","265023.582804","265789.806745","266556.675312","267323.999291","268073.344849","276566.894723","Mapping"
"Blocked","Female","done","21","F_dime.wav","None","736.693881452","330","276557.112174","268840.037496","269606.820113","270373.058276","271139.613651","271907.129318","272673.818564","273422.737463","277306.653129","278072.75","264256.859548","265023.582804","265789.806745","266556.675312","267323.999291","268073.344849","277315.557626","Mapping"
"Blocked","Female","done","21","F_done.wav","None","734.877488576","330","276557.112174","268840.037496","269606.820113","270373.058276","271139.613651","271907.129318","272673.818564","273422.737463","277306.653129","278072.75","278839.499844","265023.582804","265789.806745","266556.675312","267323.999291","268073.344849","278081.883594","Mapping"
"Blocked","Female","done","21","F_gnash.wav","space","584.552841261","330","276557.112174","268840.037496","269606.820113","270373.058276","271139.613651","271907.129318","272673.818564","273422.737463","277306.653129","278072.75","278839.499844","279606.201458","265789.806745","266556.675312","267323.999291","268073.344849","278848.335396","Mapping"
"Blocked","Female","done","21","F_done.wav","None","728.906426579","330","276557.112174","268840.037496","269606.820113","270373.058276","271139.613651","271907.129318","272673.818564","273422.737463","277306.653129","278072.75","278839.499844","279606.201458","280372.754668","266556.675312","267323.999291","268073.344849","279615.327323","Mapping"
"Blocked","Female","done","21","F_cad.wav","space","555.10625802","330","276557.112174","268840.037496","269606.820113","270373.058276","271139.613651","271907.129318","272673.818564","273422.737463","277306.653129","278072.75","278839.499844","279606.201458","280372.754668","281139.9355","267323.999291","268073.344849","280381.776651","Mapping"
"Blocked","Female","done","21","F_done.wav","None","722.31578175","330","276557.112174","268840.037496","269606.820113","270373.058276","271139.613651","271907.129318","272673.818564","273422.737463","277306.653129","278072.75","278839.499844","279606.201458","280372.754668","281139.9355","281906.323303","268073.344849","281149.359408","Mapping"
"Blocked","Female","done","21","F_depth.wav","space","445.039362181","330","276557.112174","268840.037496","269606.820113","270373.058276","271139.613651","271907.129318","272673.818564","273422.737463","277306.653129","278072.75","278839.499844","279606.201458","280372.754668","281139.9355","281906.323303","282656.49188","281915.793278","Mapping"
"Blocked","Female","done","21","F_done.wav","None","732.885176316","330","276557.112174","283423.136915","269606.820113","270373.058276","271139.613651","271907.129318","272673.818564","273422.737463","277306.653129","278072.75","278839.499844","279606.201458","280372.754668","281139.9355","281906.323303","282656.49188","282666.264535","Mapping"
"Blocked","Female","done","21","F_dime.wav","space","568.30053404","330","276557.112174","283423.136915","284189.364566","270373.058276","271139.613651","271907.129318","272673.818564","273422.737463","277306.653129","278072.75","278839.499844","279606.201458","280372.754668","281139.9355","281906.323303","282656.49188","283432.496515","Mapping"
"Blocked","Female","done","21","F_priest.wav","None","728.920029942","330","276557.112174","283423.136915","284189.364566","284956.422037","271139.613651","271907.129318","272673.818564","273422.737463","277306.653129","278072.75","278839.499844","279606.201458","280372.754668","281139.9355","281906.323303","282656.49188","284197.995445","Mapping"
"Blocked","Female","done","21","F_knife.wav","None","725.836955011","330","276557.112174","283423.136915","284189.364566","284956.422037","285722.844467","271907.129318","272673.818564","273422.737463","277306.653129","278072.75","278839.499844","279606.201458","280372.754668","281139.9355","281906.323303","282656.49188","284965.774836","Mapping"
"Blocked","Female","done","21","F_romp.wav","None","724.448458292","330","276557.112174","283423.136915","284189.364566","284956.422037","285722.844467","286489.440962","272673.818564","273422.737463","277306.653129","278072.75","278839.499844","279606.201458","280372.754668","281139.9355","281906.323303","282656.49188","285731.757931","Mapping"
"Blocked","Female","done","21","F_depth.wav","None","722.265077289","330","276557.112174","283423.136915","284189.364566","284956.422037","285722.844467","286489.440962","287256.244912","273422.737463","277306.653129","278072.75","278839.499844","279606.201458","280372.754668","281139.9355","281906.323303","282656.49188","286498.646285","Mapping"
"Blocked","Female","done","21","F_knife.wav","None","720.331508201","330","276557.112174","283423.136915","284189.364566","284956.422037","285722.844467","286489.440962","287256.244912","288006.297858","277306.653129","278072.75","278839.499844","279606.201458","280372.754668","281139.9355","281906.323303","282656.49188","287265.365212","Mapping"
"Blocked","Female","ball","5","F_greet.wav","None","734.630149789","330","291139.864081","283423.136915","284189.364566","284956.422037","285722.844467","286489.440962","287256.244912","288006.297858","277306.653129","278072.75","278839.499844","279606.201458","280372.754668","281139.9355","281906.323303","282656.49188","288015.818228","Mapping"
"Blocked","Female","ball","5","F_cling.wav","None","719.632158056","330","291139.864081","283423.136915","284189.364566","284956.422037","285722.844467","286489.440962","287256.244912","288006.297858","291889.465634","278072.75","278839.499844","279606.201458","280372.754668","281139.9355","281906.323303","282656.49188","291150.116264","Mapping"
"Blocked","Female","ball","5","F_jolt.wav","None","735.597243998","330","291139.864081","283423.136915","284189.364566","284956.422037","285722.844467","286489.440962","287256.244912","288006.297858","291889.465634","292656.40191","278839.499844","279606.201458","280372.754668","281139.9355","281906.323303","282656.49188","291898.726299","Mapping"
"Blocked","Female","ball","5","F_gnash.wav","None","733.338733204","330","291139.864081","283423.136915","284189.364566","284956.422037","285722.844467","286489.440962","287256.244912","288006.297858","291889.465634","292656.40191","293422.809191","279606.201458","280372.754668","281139.9355","281906.323303","282656.49188","292665.748525","Mapping"
"Blocked","Female","ball","5","F_ball.wav","None","731.593141798","330","291139.864081","283423.136915","284189.364566","284956.422037","285722.844467","286489.440962","287256.244912","288006.297858","291889.465634","292656.40191","293422.809191","294189.59861","280372.754668","281139.9355","281906.323303","282656.49188","293432.126435","Mapping"
"Blocked","Female","ball","5","F_park.wav","space","393.636535387","330","291139.864081","283423.136915","284189.364566","284956.422037","285722.844467","286489.440962","287256.244912","288006.297858","291889.465634","292656.40191","293422.809191","294189.59861","294956.189539","281139.9355","281906.323303","282656.49188","294198.972741","Mapping"
"Blocked","Female","ball","5","F_cling.wav","None","725.74018361","330","291139.864081","283423.136915","284189.364566","284956.422037","285722.844467","286489.440962","287256.244912","288006.297858","291889.465634","292656.40191","293422.809191","294189.59861","294956.189539","295723.346565","281906.323303","282656.49188","294965.552231","Mapping"
"Blocked","Female","ball","5","F_ball.wav","None","722.503449768","330","291139.864081","283423.136915","284189.364566","284956.422037","285722.844467","286489.440962","287256.244912","288006.297858","291889.465634","292656.40191","293422.809191","294189.59861","294956.189539","295723.346565","296489.675934","282656.49188","295733.496103","Mapping"
"Blocked","Female","ball","5","F_lash.wav","space","477.712167893","330","291139.864081","283423.136915","284189.364566","284956.422037","285722.844467","286489.440962","287256.244912","288006.297858","291889.465634","292656.40191","293422.809191","294189.59861","294956.189539","295723.346565","296489.675934","297239.161547","296498.880638","Mapping"
"Blocked","Female","ball","5","F_bluff.wav","None","735.572200734","330","291139.864081","298006.175116","284189.364566","284956.422037","285722.844467","286489.440962","287256.244912","288006.297858","291889.465634","292656.40191","293422.809191","294189.59861","294956.189539","295723.346565","296489.675934","297239.161547","297248.265152","Mapping"
"Blocked","Female","ball","5","F_ball.wav","None","732.767999638","330","291139.864081","298006.175116","298772.819842","284956.422037","285722.844467","286489.440962","287256.244912","288006.297858","291889.465634","292656.40191","293422.809191","294189.59861","294956.189539","295723.346565","296489.675934","297239.161547","298015.778654","Mapping"
"Blocked","Female","ball","5","F_knife.wav","space","474.357947707","330","291139.864081","298006.175116","298772.819842","299539.106236","285722.844467","286489.440962","287256.244912","288006.297858","291889.465634","292656.40191","293422.809191","294189.59861","294956.189539","295723.346565","296489.675934","297239.161547","298782.168621","Mapping"
"Blocked","Female","ball","5","F_greet.wav","None","728.069494944","330","291139.864081","298006.175116","298772.819842","299539.106236","300306.089815","286489.440962","287256.244912","288006.297858","291889.465634","292656.40191","293422.809191","294189.59861","294956.189539","295723.346565","296489.675934","297239.161547","299548.32207","Mapping"
