"Condition","Talker","Target","Trial","current_stimulus","response_response","response_time_response","subject_nr","time_Audio1","time_Audio10","time_Audio11","time_Audio12","time_Audio13","time_Audio14","time_Audio15","time_Audio16","time_Audio2","time_Audio3","time_Audio4","time_Audio5","time_Audio6","time_Audio7","time_Audio8","time_Audio9","time_response"
"Blocked","Female","ball","3","F_cling.wav","NA","NA","110","974911.526652","NA","NA","NA","NA","NA","NA","NA","NA","NA","NA","NA","NA","NA","NA","NA","NA"
"Blocked","Female","ball","3","F_done.wav","None","716.122683254","110","974911.526652","NA","NA","NA","NA","NA","NA","NA","975661.309227","NA","NA","NA","NA","NA","NA","NA","974926.359809"
"Blocked","Female","ball","3","F_ball.wav","None","736.057800357","110","974911.526652","NA","NA","NA","NA","NA","NA","NA","975661.309227","976427.735162","NA","NA","NA","NA","NA","NA","975671.239221"
"Blocked","Female","ball","3","F_romp.wav","space","706.408491358","110","974911.526652","NA","NA","NA","NA","NA","NA","NA","975661.309227","976427.735162","977194.446772","NA","NA","NA","NA","NA","976437.252102"
"Blocked","Female","ball","3","F_gnash.wav","n","0.0336997909471","110","974911.526652","NA","NA","NA","NA","NA","NA","NA","975661.309227","976427.735162","977194.446772","977961.167657","NA","NA","NA","NA","977204.151379"
"Blocked","Female","ball","3","F_ball.wav","space","308.433631435","110","974911.526652","NA","NA","NA","NA","NA","NA","NA","975661.309227","976427.735162","977194.446772","977961.167657","978727.724681","NA","NA","NA","977971.149283"
"Blocked","Female","ball","3","F_lash.wav","None","729.943610146","110","974911.526652","NA","NA","NA","NA","NA","NA","NA","975661.309227","976427.735162","977194.446772","977961.167657","978727.724681","979494.420214","NA","NA","978736.748491"
"Blocked","Female","ball","3","F_depth.wav","space","55.8358888375","110","974911.526652","NA","NA","NA","NA","NA","NA","NA","975661.309227","976427.735162","977194.446772","977961.167657","978727.724681","979494.420214","980261.136462","NA","979503.75567"
"Blocked","Female","ball","3","F_ball.wav","None","725.177101674","110","974911.526652","NA","NA","NA","NA","NA","NA","NA","975661.309227","976427.735162","977194.446772","977961.167657","978727.724681","979494.420214","980261.136462","981028.501971","980270.624339"
"Blocked","Female","ball","3","F_gnash.wav","space","424.564600457","110","974911.526652","981795.018493","NA","NA","NA","NA","NA","NA","975661.309227","976427.735162","977194.446772","977961.167657","978727.724681","979494.420214","980261.136462","981028.501971","981038.953229"
"Blocked","Female","ball","3","F_ball.wav","None","720.218906412","110","974911.526652","981795.018493","982544.428206","NA","NA","NA","NA","NA","975661.309227","976427.735162","977194.446772","977961.167657","978727.724681","979494.420214","980261.136462","981028.501971","981804.82049"
"Blocked","Female","ball","3","F_jolt.wav","space","549.952186528","110","974911.526652","981795.018493","982544.428206","983311.367367","NA","NA","NA","NA","975661.309227","976427.735162","977194.446772","977961.167657","978727.724681","979494.420214","980261.136462","981028.501971","982553.557135"
"Blocked","Female","ball","3","F_jaw.wav","None","733.664807165","110","974911.526652","981795.018493","982544.428206","983311.367367","984078.223669","NA","NA","NA","975661.309227","976427.735162","977194.446772","977961.167657","978727.724681","979494.420214","980261.136462","981028.501971","983320.690456"
"Blocked","Female","ball","3","F_gnash.wav","None","731.383115984","110","974911.526652","981795.018493","982544.428206","983311.367367","984078.223669","984844.998351","NA","NA","975661.309227","976427.735162","977194.446772","977961.167657","978727.724681","979494.420214","980261.136462","981028.501971","984087.780493"
"Blocked","Female","ball","3","F_cad.wav","None","729.217673652","110","974911.526652","981795.018493","982544.428206","983311.367367","984078.223669","984844.998351","985611.547645","NA","975661.309227","976427.735162","977194.446772","977961.167657","978727.724681","979494.420214","980261.136462","981028.501971","984854.680079"
"Blocked","Female","ball","3","F_depth.wav","None","728.280263371","110","974911.526652","981795.018493","982544.428206","983311.367367","984078.223669","984844.998351","985611.547645","986377.950083","975661.309227","976427.735162","977194.446772","977961.167657","978727.724681","979494.420214","980261.136462","981028.501971","985620.624324"
"Blocked","Female","done","19","F_knife.wav","None","727.217020001","110","989511.897412","981795.018493","982544.428206","983311.367367","984078.223669","984844.998351","985611.547645","986377.950083","975661.309227","976427.735162","977194.446772","977961.167657","978727.724681","979494.420214","980261.136462","981028.501971","986386.782206"
"Blocked","Female","done","19","F_tile.wav","None","721.528869006","110","989511.897412","981795.018493","982544.428206","983311.367367","984078.223669","984844.998351","985611.547645","986377.950083","990278.497411","976427.735162","977194.446772","977961.167657","978727.724681","979494.420214","980261.136462","981028.501971","989521.576976"
"Blocked","Female","done","19","F_tile.wav","None","719.811108196","110","989511.897412","981795.018493","982544.428206","983311.367367","984078.223669","984844.998351","985611.547645","986377.950083","990278.497411","991028.480947","977194.446772","977961.167657","978727.724681","979494.420214","980261.136462","981028.501971","990288.484602"
"Blocked","Female","done","19","F_bluff.wav","None","735.699160607","110","989511.897412","981795.018493","982544.428206","983311.367367","984078.223669","984844.998351","985611.547645","986377.950083","990278.497411","991028.480947","991795.257483","977961.167657","978727.724681","979494.420214","980261.136462","981028.501971","991037.459"
"Blocked","Female","done","19","F_done.wav","None","733.454260859","110","989511.897412","981795.018493","982544.428206","983311.367367","984078.223669","984844.998351","985611.547645","986377.950083","990278.497411","991028.480947","991795.257483","992561.435771","978727.724681","979494.420214","980261.136462","981028.501971","991804.567587"
"Blocked","Female","done","19","F_knife.wav","space","564.699393348","110","989511.897412","981795.018493","982544.428206","983311.367367","984078.223669","984844.998351","985611.547645","986377.950083","990278.497411","991028.480947","991795.257483","992561.435771","993327.77421","979494.420214","980261.136462","981028.501971","992570.599637"
"Blocked","Female","done","19","F_reek.wav","None","730.47971481","110","989511.897412","981795.018493","982544.428206","983311.367367","984078.223669","984844.998351","985611.547645","986377.950083","990278.497411","991028.480947","991795.257483","992561.435771","993327.77421","994094.591248","980261.136462","981028.501971","993337.106884"
"Blocked","Female","done","19","F_done.wav","None","728.641685797","110","989511.897412","981795.018493","982544.428206","983311.367367","984078.223669","984844.998351","985611.547645","986377.950083","990278.497411","991028.480947","991795.257483","992561.435771","993327.77421","994094.591248","994861.954902","981028.501971","994103.908463"
"Blocked","Female","done","19","F_jaw.wav","space","439.820086467","110","989511.897412","981795.018493","982544.428206","983311.367367","984078.223669","984844.998351","985611.547645","986377.950083","990278.497411","991028.480947","991795.257483","992561.435771","993327.77421","994094.591248","994861.954902","995627.663248","994871.422066"
"Blocked","Female","done","19","F_done.wav","None","725.298297126","110","989511.897412","996394.948064","982544.428206","983311.367367","984078.223669","984844.998351","985611.547645","986377.950083","990278.497411","991028.480947","991795.257483","992561.435771","993327.77421","994094.591248","994861.954902","995627.663248","995636.83206"
"Blocked","Female","done","19","F_cling.wav","space","473.913128139","110","989511.897412","996394.948064","997161.531676","983311.367367","984078.223669","984844.998351","985611.547645","986377.950083","990278.497411","991028.480947","991795.257483","992561.435771","993327.77421","994094.591248","994861.954902","995627.663248","996405.271943"
"Blocked","Female","done","19","F_ball.wav","None","720.508291502","110","989511.897412","996394.948064","997161.531676","997928.304193","984078.223669","984844.998351","985611.547645","986377.950083","990278.497411","991028.480947","991795.257483","992561.435771","993327.77421","994094.591248","994861.954902","995627.663248","997171.277404"
"Blocked","Female","done","19","F_done.wav","None","718.826703727","110","989511.897412","996394.948064","997161.531676","997928.304193","998677.828918","984844.998351","985611.547645","986377.950083","990278.497411","991028.480947","991795.257483","992561.435771","993327.77421","994094.591248","994861.954902","995627.663248","997938.068162"
"Blocked","Female","done","19","F_bluff.wav","space","399.917080067","110","989511.897412","996394.948064","997161.531676","997928.304193","998677.828918","999444.564025","985611.547645","986377.950083","990278.497411","991028.480947","991795.257483","992561.435771","993327.77421","994094.591248","994861.954902","995627.663248","998687.237339"
"Blocked","Female","done","19","F_cling.wav","None","732.123583555","110","989511.897412","996394.948064","997161.531676","997928.304193","998677.828918","999444.564025","1000211.04685","986377.950083","990278.497411","991028.480947","991795.257483","992561.435771","993327.77421","994094.591248","994861.954902","995627.663248","999454.218856"
"Blocked","Female","done","19","F_cling.wav","None","731.128667248","110","989511.897412","996394.948064","997161.531676","997928.304193","998677.828918","999444.564025","1000211.04685","1000977.90748","990278.497411","991028.480947","991795.257483","992561.435771","993327.77421","994094.591248","994861.954902","995627.663248","1000220.22277"
"Blocked","Female","tile","16","F_bluff.wav","None","728.46793104","110","1004111.49524","996394.948064","997161.531676","997928.304193","998677.828918","999444.564025","1000211.04685","1000977.90748","990278.497411","991028.480947","991795.257483","992561.435771","993327.77421","994094.591248","994861.954902","995627.663248","1000987.59137"
"Blocked","Female","tile","16","F_jolt.wav","None","720.620830194","110","1004111.49524","996394.948064","997161.531676","997928.304193","998677.828918","999444.564025","1000211.04685","1000977.90748","1004877.87665","991028.480947","991795.257483","992561.435771","993327.77421","994094.591248","994861.954902","995627.663248","1004121.23911"
"Blocked","Female","tile","16","F_tile.wav","None","719.620348886","110","1004111.49524","996394.948064","997161.531676","997928.304193","998677.828918","999444.564025","1000211.04685","1000977.90748","1004877.87665","1005628.16349","991795.257483","992561.435771","993327.77421","994094.591248","994861.954902","995627.663248","1004887.16883"
"Blocked","Female","tile","16","F_bluff.wav","space","563.787335181","110","1004111.49524","996394.948064","997161.531676","997928.304193","998677.828918","999444.564025","1000211.04685","1000977.90748","1004877.87665","1005628.16349","1006394.37548","992561.435771","993327.77421","994094.591248","994861.954902","995627.663248","1005635.22467"
"Blocked","Female","tile","16","F_cave.wav","None","732.5026287","110","1004111.49524","996394.948064","997161.531676","997928.304193","998677.828918","999444.564025","1000211.04685","1000977.90748","1004877.87665","1005628.16349","1006394.37548","1007161.12852","993327.77421","994094.591248","994861.954902","995627.663248","1006403.7066"
"Blocked","Female","tile","16","F_knife.wav","None","730.683150119","110","1004111.49524","996394.948064","997161.531676","997928.304193","998677.828918","999444.564025","1000211.04685","1000977.90748","1004877.87665","1005628.16349","1006394.37548","1007161.12852","1007927.83085","994094.591248","994861.954902","995627.663248","1007170.5558"
"Blocked","Female","tile","16","F_lash.wav","None","728.612314444","110","1004111.49524","996394.948064","997161.531676","997928.304193","998677.828918","999444.564025","1000211.04685","1000977.90748","1004877.87665","1005628.16349","1006394.37548","1007161.12852","1007927.83085","1008694.32728","994861.954902","995627.663248","1007937.71601"
"Blocked","Female","tile","16","F_tile.wav","None","728.001390002","110","1004111.49524","996394.948064","997161.531676","997928.304193","998677.828918","999444.564025","1000211.04685","1000977.90748","1004877.87665","1005628.16349","1006394.37548","1007161.12852","1007927.83085","1008694.32728","1009460.75568","995627.663248","1008703.7258"
"Blocked","Female","tile","16","F_cave.wav","space","425.03175966","110","1004111.49524","996394.948064","997161.531676","997928.304193","998677.828918","999444.564025","1000211.04685","1000977.90748","1004877.87665","1005628.16349","1006394.37548","1007161.12852","1007927.83085","1008694.32728","1009460.75568","1010227.52511","1009469.92079"
"Blocked","Female","tile","16","F_tile.wav","None","724.875040352","110","1004111.49524","1010994.66987","997161.531676","997928.304193","998677.828918","999444.564025","1000211.04685","1000977.90748","1004877.87665","1005628.16349","1006394.37548","1007161.12852","1007927.83085","1008694.32728","1009460.75568","1010227.52511","1010236.5752"
"Blocked","Female","tile","16","F_park.wav","None","721.46270622","110","1004111.49524","1010994.66987","1011761.2742","997928.304193","998677.828918","999444.564025","1000211.04685","1000977.90748","1004877.87665","1005628.16349","1006394.37548","1007161.12852","1007927.83085","1008694.32728","1009460.75568","1010227.52511","1011004.76744"
"Blocked","Female","tile","16","F_greet.wav","space","3.83651838638","110","1004111.49524","1010994.66987","1011761.2742","1012510.42266","998677.828918","999444.564025","1000211.04685","1000977.90748","1004877.87665","1005628.16349","1006394.37548","1007161.12852","1007927.83085","1008694.32728","1009460.75568","1010227.52511","1011771.07187"
"Blocked","Female","tile","16","F_gnash.wav","None","736.641208408","110","1004111.49524","1010994.66987","1011761.2742","1012510.42266","1013277.5835","999444.564025","1000211.04685","1000977.90748","1004877.87665","1005628.16349","1006394.37548","1007161.12852","1007927.83085","1008694.32728","1009460.75568","1010227.52511","1012519.15307"
"Blocked","Female","tile","16","F_cad.wav","None","733.82959608","110","1004111.49524","1010994.66987","1011761.2742","1012510.42266","1013277.5835","1014044.19741","1000211.04685","1000977.90748","1004877.87665","1005628.16349","1006394.37548","1007161.12852","1007927.83085","1008694.32728","1009460.75568","1010227.52511","1013287.1026"
"Blocked","Female","tile","16","F_tile.wav","None","732.1071974","110","1004111.49524","1010994.66987","1011761.2742","1012510.42266","1013277.5835","1014044.19741","1014810.92664","1000977.90748","1004877.87665","1005628.16349","1006394.37548","1007161.12852","1007927.83085","1008694.32728","1009460.75568","1010227.52511","1014053.6352"
"Blocked","Female","tile","16","F_done.wav","space","458.287253859","110","1004111.49524","1010994.66987","1011761.2742","1012510.42266","1013277.5835","1014044.19741","1014810.92664","1015577.31455","1004877.87665","1005628.16349","1006394.37548","1007161.12852","1007927.83085","1008694.32728","1009460.75568","1010227.52511","1014820.54252"
"Blocked","Female","done","22","F_gnash.wav","None","729.663809179","110","1018711.31134","1010994.66987","1011761.2742","1012510.42266","1013277.5835","1014044.19741","1014810.92664","1015577.31455","1004877.87665","1005628.16349","1006394.37548","1007161.12852","1007927.83085","1008694.32728","1009460.75568","1010227.52511","1015586.38257"
"Blocked","Female","done","22","F_lash.wav","None","721.515883924","110","1018711.31134","1010994.66987","1011761.2742","1012510.42266","1013277.5835","1014044.19741","1014810.92664","1015577.31455","1019477.75305","1005628.16349","1006394.37548","1007161.12852","1007927.83085","1008694.32728","1009460.75568","1010227.52511","1018720.71018"
"Blocked","Female","done","22","F_done.wav","None","719.806779642","110","1018711.31134","1010994.66987","1011761.2742","1012510.42266","1013277.5835","1014044.19741","1014810.92664","1015577.31455","1019477.75305","1020227.32415","1006394.37548","1007161.12852","1007927.83085","1008694.32728","1009460.75568","1010227.52511","1019487.32007"
"Blocked","Female","done","22","F_jolt.wav","space","497.813379276","110","1018711.31134","1010994.66987","1011761.2742","1012510.42266","1013277.5835","1014044.19741","1014810.92664","1015577.31455","1019477.75305","1020227.32415","1020994.071","1007161.12852","1007927.83085","1008694.32728","1009460.75568","1010227.52511","1020236.92889"
"Blocked","Female","done","22","F_done.wav","None","738.841896411","110","1018711.31134","1010994.66987","1011761.2742","1012510.42266","1013277.5835","1014044.19741","1014810.92664","1015577.31455","1019477.75305","1020227.32415","1020994.071","1021760.78694","1007927.83085","1008694.32728","1009460.75568","1010227.52511","1020998.04603"
"Blocked","Female","done","22","F_cad.wav","space","524.576874566","110","1018711.31134","1010994.66987","1011761.2742","1012510.42266","1013277.5835","1014044.19741","1014810.92664","1015577.31455","1019477.75305","1020227.32415","1020994.071","1021760.78694","1022527.45836","1008694.32728","1009460.75568","1010227.52511","1021770.12796"
"Blocked","Female","done","22","F_cave.wav","None","729.383080848","110","1018711.31134","1010994.66987","1011761.2742","1012510.42266","1013277.5835","1014044.19741","1014810.92664","1015577.31455","1019477.75305","1020227.32415","1020994.071","1021760.78694","1022527.45836","1023294.01971","1009460.75568","1010227.52511","1022536.75672"
"Blocked","Female","done","22","F_jolt.wav","None","727.643677732","110","1018711.31134","1010994.66987","1011761.2742","1012510.42266","1013277.5835","1014044.19741","1014810.92664","1015577.31455","1019477.75305","1020227.32415","1020994.071","1021760.78694","1022527.45836","1023294.01971","1024060.74152","1010227.52511","1023303.60282"
"Blocked","Female","done","22","F_dime.wav","None","726.252711844","110","1018711.31134","1010994.66987","1011761.2742","1012510.42266","1013277.5835","1014044.19741","1014810.92664","1015577.31455","1019477.75305","1020227.32415","1020994.071","1021760.78694","1022527.45836","1023294.01971","1024060.74152","1024827.10934","1024070.00958"
"Blocked","Female","done","22","F_bluff.wav","space","594.589856802","110","1018711.31134","1025594.41085","1011761.2742","1012510.42266","1013277.5835","1014044.19741","1014810.92664","1015577.31455","1019477.75305","1020227.32415","1020994.071","1021760.78694","1022527.45836","1023294.01971","1024060.74152","1024827.10934","1024836.02524"
"Blocked","Female","done","22","F_done.wav","None","721.723647672","110","1018711.31134","1025594.41085","1026361.05196","1012510.42266","1013277.5835","1014044.19741","1014810.92664","1015577.31455","1019477.75305","1020227.32415","1020994.071","1021760.78694","1022527.45836","1023294.01971","1024060.74152","1024827.10934","1025604.17358"
"Blocked","Female","done","22","F_reek.wav","space","667.670445866","110","1018711.31134","1025594.41085","1026361.05196","1027110.36831","1013277.5835","1014044.19741","1014810.92664","1015577.31455","1019477.75305","1020227.32415","1020994.071","1021760.78694","1022527.45836","1023294.01971","1024060.74152","1024827.10934","1026370.91178"
"Blocked","Female","done","22","F_jolt.wav","None","735.587240197","110","1018711.31134","1025594.41085","1026361.05196","1027110.36831","1027877.38291","1014044.19741","1014810.92664","1015577.31455","1019477.75305","1020227.32415","1020994.071","1021760.78694","1022527.45836","1023294.01971","1024060.74152","1024827.10934","1027119.9916"
"Blocked","Female","done","22","F_cling.wav","None","733.939043013","110","1018711.31134","1025594.41085","1026361.05196","1027110.36831","1027877.38291","1028643.94302","1014810.92664","1015577.31455","1019477.75305","1020227.32415","1020994.071","1021760.78694","1022527.45836","1023294.01971","1024060.74152","1024827.10934","1027886.92211"
"Blocked","Female","done","22","F_done.wav","None","732.396891923","110","1018711.31134","1025594.41085","1026361.05196","1027110.36831","1027877.38291","1028643.94302","1029410.60053","1015577.31455","1019477.75305","1020227.32415","1020994.071","1021760.78694","1022527.45836","1023294.01971","1024060.74152","1024827.10934","1028653.35175"
"Blocked","Female","done","22","F_cad.wav","space","474.914537044","110","1018711.31134","1025594.41085","1026361.05196","1027110.36831","1027877.38291","1028643.94302","1029410.60053","1030177.24845","1019477.75305","1020227.32415","1020994.071","1021760.78694","1022527.45836","1023294.01971","1024060.74152","1024827.10934","1029419.62774"
"Blocked","Female","done","20","F_lash.wav","None","728.944056202","110","1033311.03284","1025594.41085","1026361.05196","1027110.36831","1027877.38291","1028643.94302","1029410.60053","1030177.24845","1019477.75305","1020227.32415","1020994.071","1021760.78694","1022527.45836","1023294.01971","1024060.74152","1024827.10934","1030186.69737"
"Blocked","Female","done","20","F_depth.wav","None","721.555767115","110","1033311.03284","1025594.41085","1026361.05196","1027110.36831","1027877.38291","1028643.94302","1029410.60053","1030177.24845","1034077.58863","1020227.32415","1020994.071","1021760.78694","1022527.45836","1023294.01971","1024060.74152","1024827.10934","1033320.61842"
"Blocked","Female","done","20","F_lash.wav","None","719.624986406","110","1033311.03284","1025594.41085","1026361.05196","1027110.36831","1027877.38291","1028643.94302","1029410.60053","1030177.24845","1034077.58863","1034826.98103","1020994.071","1021760.78694","1022527.45836","1023294.01971","1024060.74152","1024827.10934","1034087.58942"
"Blocked","Female","done","20","F_greet.wav","None","736.16508313","110","1033311.03284","1025594.41085","1026361.05196","1027110.36831","1027877.38291","1028643.94302","1029410.60053","1030177.24845","1034077.58863","1034826.98103","1035593.65028","1021760.78694","1022527.45836","1023294.01971","1024060.74152","1024827.10934","1034836.07904"
"Blocked","Female","done","20","F_done.wav","None","733.909053262","110","1033311.03284","1025594.41085","1026361.05196","1027110.36831","1027877.38291","1028643.94302","1029410.60053","1030177.24845","1034077.58863","1034826.98103","1035593.65028","1036360.37519","1022527.45836","1023294.01971","1024060.74152","1024827.10934","1035603.41332"
"Blocked","Female","done","20","F_knife.wav","space","612.316556508","110","1033311.03284","1025594.41085","1026361.05196","1027110.36831","1027877.38291","1028643.94302","1029410.60053","1030177.24845","1034077.58863","1034826.98103","1035593.65028","1036360.37519","1037127.1341","1023294.01971","1024060.74152","1024827.10934","1036370.07237"
"Blocked","Female","done","20","F_done.wav","None","730.678512482","110","1033311.03284","1025594.41085","1026361.05196","1027110.36831","1027877.38291","1028643.94302","1029410.60053","1030177.24845","1034077.58863","1034826.98103","1035593.65028","1036360.37519","1037127.1341","1037893.6228","1024060.74152","1024827.10934","1037136.72339"
"Blocked","Female","done","20","F_cling.wav","space","639.360161847","110","1033311.03284","1025594.41085","1026361.05196","1027110.36831","1027877.38291","1028643.94302","1029410.60053","1030177.24845","1034077.58863","1034826.98103","1035593.65028","1036360.37519","1037127.1341","1037893.6228","1038660.45066","1024827.10934","1037902.98268"
"Blocked","Female","done","20","F_gnash.wav","None","727.964907768","110","1033311.03284","1025594.41085","1026361.05196","1027110.36831","1027877.38291","1028643.94302","1029410.60053","1030177.24845","1034077.58863","1034826.98103","1035593.65028","1036360.37519","1037127.1341","1037893.6228","1038660.45066","1039426.73499","1038669.73139"
"Blocked","Female","done","20","F_priest.wav","None","726.691427175","110","1033311.03284","1040193.9487","1026361.05196","1027110.36831","1027877.38291","1028643.94302","1029410.60053","1030177.24845","1034077.58863","1034826.98103","1035593.65028","1036360.37519","1037127.1341","1037893.6228","1038660.45066","1039426.73499","1039436.09889"
"Blocked","Female","done","20","F_done.wav","None","725.399087183","110","1033311.03284","1040193.9487","1040960.75275","1027110.36831","1027877.38291","1028643.94302","1029410.60053","1030177.24845","1034077.58863","1034826.98103","1035593.65028","1036360.37519","1037127.1341","1037893.6228","1038660.45066","1039426.73499","1040203.11596"
"Blocked","Female","done","20","F_reek.wav","space","443.919710466","110","1033311.03284","1040193.9487","1040960.75275","1041727.1354","1027877.38291","1028643.94302","1029410.60053","1030177.24845","1034077.58863","1034826.98103","1035593.65028","1036360.37519","1037127.1341","1037893.6228","1038660.45066","1039426.73499","1040970.36831"
"Blocked","Female","done","20","F_dime.wav","None","721.206093323","110","1033311.03284","1040193.9487","1040960.75275","1041727.1354","1042494.03962","1028643.94302","1029410.60053","1030177.24845","1034077.58863","1034826.98103","1035593.65028","1036360.37519","1037127.1341","1037893.6228","1038660.45066","1039426.73499","1041736.92719"
"Blocked","Female","done","20","F_bluff.wav","None","719.347658916","110","1033311.03284","1040193.9487","1040960.75275","1041727.1354","1042494.03962","1043243.4348","1029410.60053","1030177.24845","1034077.58863","1034826.98103","1035593.65028","1036360.37519","1037127.1341","1037893.6228","1038660.45066","1039426.73499","1042504.17212"
"Blocked","Female","done","20","F_done.wav","None","736.550311791","110","1033311.03284","1040193.9487","1040960.75275","1041727.1354","1042494.03962","1043243.4348","1044010.14889","1030177.24845","1034077.58863","1034826.98103","1035593.65028","1036360.37519","1037127.1341","1037893.6228","1038660.45066","1039426.73499","1043252.32474"
"Blocked","Female","done","20","F_romp.wav","space","730.303486576","110","1033311.03284","1040193.9487","1040960.75275","1041727.1354","1042494.03962","1043243.4348","1044010.14889","1044776.99251","1034077.58863","1034826.98103","1035593.65028","1036360.37519","1037127.1341","1037893.6228","1038660.45066","1039426.73499","1044019.88905"
"Blocked","Female","ball","2","F_cave.wav","None","732.694933889","110","1047910.56544","1040193.9487","1040960.75275","1041727.1354","1042494.03962","1043243.4348","1044010.14889","1044776.99251","1034077.58863","1034826.98103","1035593.65028","1036360.37519","1037127.1341","1037893.6228","1038660.45066","1039426.73499","1044786.36291"
"Blocked","Female","ball","2","F_depth.wav","None","721.627495019","110","1047910.56544","1040193.9487","1040960.75275","1041727.1354","1042494.03962","1043243.4348","1044010.14889","1044776.99251","1048676.91995","1034826.98103","1035593.65028","1036360.37519","1037127.1341","1037893.6228","1038660.45066","1039426.73499","1047920.24129"
"Blocked","Female","ball","2","F_gnash.wav","None","720.792420791","110","1047910.56544","1040193.9487","1040960.75275","1041727.1354","1042494.03962","1043243.4348","1044010.14889","1044776.99251","1048676.91995","1049426.76776","1035593.65028","1036360.37519","1037127.1341","1037893.6228","1038660.45066","1039426.73499","1048686.25695"
"Blocked","Female","ball","2","F_reek.wav","None","736.342238844","110","1047910.56544","1040193.9487","1040960.75275","1041727.1354","1042494.03962","1043243.4348","1044010.14889","1044776.99251","1048676.91995","1049426.76776","1050193.305","1036360.37519","1037127.1341","1037893.6228","1038660.45066","1039426.73499","1049435.84537"
"Blocked","Female","ball","2","F_ball.wav","None","735.14203215","110","1047910.56544","1040193.9487","1040960.75275","1041727.1354","1042494.03962","1043243.4348","1044010.14889","1044776.99251","1048676.91995","1049426.76776","1050193.305","1050960.21541","1037127.1341","1037893.6228","1038660.45066","1039426.73499","1050202.63025"
"Blocked","Female","ball","2","F_gnash.wav","space","508.426025743","110","1047910.56544","1040193.9487","1040960.75275","1041727.1354","1042494.03962","1043243.4348","1044010.14889","1044776.99251","1048676.91995","1049426.76776","1050193.305","1050960.21541","1051726.85158","1037893.6228","1038660.45066","1039426.73499","1050969.65907"
"Blocked","Female","ball","2","F_tile.wav","None","730.496410048","110","1047910.56544","1040193.9487","1040960.75275","1041727.1354","1042494.03962","1043243.4348","1044010.14889","1044776.99251","1048676.91995","1049426.76776","1050193.305","1050960.21541","1051726.85158","1052493.31832","1038660.45066","1039426.73499","1051736.73736"
"Blocked","Female","ball","2","F_gnash.wav","None","729.831689736","110","1047910.56544","1040193.9487","1040960.75275","1041727.1354","1042494.03962","1043243.4348","1044010.14889","1044776.99251","1048676.91995","1049426.76776","1050193.305","1050960.21541","1051726.85158","1052493.31832","1053260.1332","1039426.73499","1052502.66707"
"Blocked","Female","ball","2","F_gnash.wav","None","728.419390856","110","1047910.56544","1040193.9487","1040960.75275","1041727.1354","1042494.03962","1043243.4348","1044010.14889","1044776.99251","1048676.91995","1049426.76776","1050193.305","1050960.21541","1051726.85158","1052493.31832","1053260.1332","1054026.69981","1053269.36106"
"Blocked","Female","ball","2","F_ball.wav","None","726.523237536","110","1047910.56544","1054793.37122","1040960.75275","1041727.1354","1042494.03962","1043243.4348","1044010.14889","1044776.99251","1048676.91995","1049426.76776","1050193.305","1050960.21541","1051726.85158","1052493.31832","1053260.1332","1054026.69981","1054036.21798"
"Blocked","Female","ball","2","F_jolt.wav","space","506.901497487","110","1047910.56544","1054793.37122","1055560.38768","1041727.1354","1042494.03962","1043243.4348","1044010.14889","1044776.99251","1048676.91995","1049426.76776","1050193.305","1050960.21541","1051726.85158","1052493.31832","1053260.1332","1054026.69981","1054803.09005"
"Blocked","Female","ball","2","F_ball.wav","None","722.418666817","110","1047910.56544","1054793.37122","1055560.38768","1056326.78362","1042494.03962","1043243.4348","1044010.14889","1044776.99251","1048676.91995","1049426.76776","1050193.305","1050960.21541","1051726.85158","1052493.31832","1053260.1332","1054026.69981","1055570.34612"
"Blocked","Female","ball","2","F_cave.wav","None","722.059717751","110","1047910.56544","1054793.37122","1055560.38768","1056326.78362","1057093.66188","1043243.4348","1044010.14889","1044776.99251","1048676.91995","1049426.76776","1050193.305","1050960.21541","1051726.85158","1052493.31832","1053260.1332","1054026.69981","1056336.00592"
"Blocked","Female","ball","2","F_cave.wav","space","118.300430709","110","1047910.56544","1054793.37122","1055560.38768","1056326.78362","1057093.66188","1057842.98348","1044010.14889","1044776.99251","1048676.91995","1049426.76776","1050193.305","1050960.21541","1051726.85158","1052493.31832","1053260.1332","1054026.69981","1057103.64319"
"Blocked","Female","ball","2","F_ball.wav","None","735.616302351","110","1047910.56544","1054793.37122","1055560.38768","1056326.78362","1057093.66188","1057842.98348","1058609.96005","1044776.99251","1048676.91995","1049426.76776","1050193.305","1050960.21541","1051726.85158","1052493.31832","1053260.1332","1054026.69981","1057852.20114"
"Blocked","Female","ball","2","F_greet.wav","space","362.66862636","110","1047910.56544","1054793.37122","1055560.38768","1056326.78362","1057093.66188","1057842.98348","1058609.96005","1059376.69237","1048676.91995","1049426.76776","1050193.305","1050960.21541","1051726.85158","1052493.31832","1053260.1332","1054026.69981","1058619.26799"
"Blocked","Female","cave","10","F_depth.wav","None","731.518224231","110","1062510.34753","1054793.37122","1055560.38768","1056326.78362","1057093.66188","1057842.98348","1058609.96005","1059376.69237","1048676.91995","1049426.76776","1050193.305","1050960.21541","1051726.85158","1052493.31832","1053260.1332","1054026.69981","1059386.14407"
"Blocked","Female","cave","10","F_cave.wav","None","721.765076625","110","1062510.34753","1054793.37122","1055560.38768","1056326.78362","1057093.66188","1057842.98348","1058609.96005","1059376.69237","1063276.97999","1049426.76776","1050193.305","1050960.21541","1051726.85158","1052493.31832","1053260.1332","1054026.69981","1062519.83974"
"Blocked","Female","cave","10","F_ball.wav","space","479.135665693","110","1062510.34753","1054793.37122","1055560.38768","1056326.78362","1057093.66188","1057842.98348","1058609.96005","1059376.69237","1063276.97999","1064026.43886","1050193.305","1050960.21541","1051726.85158","1052493.31832","1053260.1332","1054026.69981","1063286.68058"
"Blocked","Female","cave","10","F_jolt.wav","None","735.107404995","110","1062510.34753","1054793.37122","1055560.38768","1056326.78362","1057093.66188","1057842.98348","1058609.96005","1059376.69237","1063276.97999","1064026.43886","1064793.02495","1050960.21541","1051726.85158","1052493.31832","1053260.1332","1054026.69981","1064036.32217"
"Blocked","Female","cave","10","F_bluff.wav","None","734.180506435","110","1062510.34753","1054793.37122","1055560.38768","1056326.78362","1057093.66188","1057842.98348","1058609.96005","1059376.69237","1063276.97999","1064026.43886","1064793.02495","1065559.94803","1051726.85158","1052493.31832","1053260.1332","1054026.69981","1064802.4343"
"Blocked","Female","cave","10","F_cave.wav","None","732.574665803","110","1062510.34753","1054793.37122","1055560.38768","1056326.78362","1057093.66188","1057842.98348","1058609.96005","1059376.69237","1063276.97999","1064026.43886","1064793.02495","1065559.94803","1066325.8929","1052493.31832","1053260.1332","1054026.69981","1065569.27823"
"Blocked","Female","cave","10","F_jolt.wav","space","527.052416815","110","1062510.34753","1054793.37122","1055560.38768","1056326.78362","1057093.66188","1057842.98348","1058609.96005","1059376.69237","1063276.97999","1064026.43886","1064793.02495","1065559.94803","1066325.8929","1067093.28376","1053260.1332","1054026.69981","1066334.66566"
"Blocked","Female","cave","10","F_jolt.wav","None","730.863397475","110","1062510.34753","1054793.37122","1055560.38768","1056326.78362","1057093.66188","1057842.98348","1058609.96005","1059376.69237","1063276.97999","1064026.43886","1064793.02495","1065559.94803","1066325.8929","1067093.28376","1067859.7975","1054026.69981","1067102.94168"
"Blocked","Female","cave","10","F_dime.wav","None","730.237323674","110","1062510.34753","1054793.37122","1055560.38768","1056326.78362","1057093.66188","1057842.98348","1058609.96005","1059376.69237","1063276.97999","1064026.43886","1064793.02495","1065559.94803","1066325.8929","1067093.28376","1067859.7975","1068626.18108","1067868.81853"
"Blocked","Female","cave","10","F_cave.wav","None","729.177790461","110","1062510.34753","1069393.10725","1055560.38768","1056326.78362","1057093.66188","1057842.98348","1058609.96005","1059376.69237","1063276.97999","1064026.43886","1064793.02495","1065559.94803","1066325.8929","1067093.28376","1067859.7975","1068626.18108","1068635.03577"
"Blocked","Female","cave","10","F_cad.wav","space","536.804327625","110","1062510.34753","1069393.10725","1070159.76352","1056326.78362","1057093.66188","1057842.98348","1058609.96005","1059376.69237","1063276.97999","1064026.43886","1064793.02495","1065559.94803","1066325.8929","1067093.28376","1067859.7975","1068626.18108","1069396.87854"
"Blocked","Female","cave","10","F_cling.wav","None","726.688026334","110","1062510.34753","1069393.10725","1070159.76352","1070926.47451","1057093.66188","1057842.98348","1058609.96005","1059376.69237","1063276.97999","1064026.43886","1064793.02495","1065559.94803","1066325.8929","1067093.28376","1067859.7975","1068626.18108","1070169.55933"
"Blocked","Female","cave","10","F_park.wav","None","725.590155809","110","1062510.34753","1069393.10725","1070159.76352","1070926.47451","1071693.5664","1057842.98348","1058609.96005","1059376.69237","1063276.97999","1064026.43886","1064793.02495","1065559.94803","1066325.8929","1067093.28376","1067859.7975","1068626.18108","1070935.86995"
"Blocked","Female","cave","10","F_tile.wav","None","723.498605541","110","1062510.34753","1069393.10725","1070159.76352","1070926.47451","1071693.5664","1072460.07705","1058609.96005","1059376.69237","1063276.97999","1064026.43886","1064793.02495","1065559.94803","1066325.8929","1067093.28376","1067859.7975","1068626.18108","1071703.28121"
"Blocked","Female","cave","10","F_cave.wav","None","721.944087418","110","1062510.34753","1069393.10725","1070159.76352","1070926.47451","1071693.5664","1072460.07705","1073226.69158","1059376.69237","1063276.97999","1064026.43886","1064793.02495","1065559.94803","1066325.8929","1067093.28376","1067859.7975","1068626.18108","1072469.81505"
"Blocked","Female","cave","10","F_done.wav","space","648.802900454","110","1062510.34753","1069393.10725","1070159.76352","1070926.47451","1071693.5664","1072460.07705","1073226.69158","1073976.67883","1063276.97999","1064026.43886","1064793.02495","1065559.94803","1066325.8929","1067093.28376","1067859.7975","1068626.18108","1073236.78389"
"Blocked","Female","cave","7","F_tile.wav","None","735.519531416","110","1077109.95371","1069393.10725","1070159.76352","1070926.47451","1071693.5664","1072460.07705","1073226.69158","1073976.67883","1063276.97999","1064026.43886","1064793.02495","1065559.94803","1066325.8929","1067093.28376","1067859.7975","1068626.18108","1073985.96111"
"Blocked","Female","cave","7","F_park.wav","None","721.841751481","110","1077109.95371","1069393.10725","1070159.76352","1070926.47451","1071693.5664","1072460.07705","1073226.69158","1073976.67883","1077876.89936","1064026.43886","1064793.02495","1065559.94803","1066325.8929","1067093.28376","1067859.7975","1068626.18108","1077119.58628"
"Blocked","Female","cave","7","F_cave.wav","None","720.107913483","110","1077109.95371","1069393.10725","1070159.76352","1070926.47451","1071693.5664","1072460.07705","1073226.69158","1073976.67883","1077876.89936","1078643.40321","1064793.02495","1065559.94803","1066325.8929","1067093.28376","1067859.7975","1068626.18108","1077886.70507"
"Blocked","Female","cave","7","F_tile.wav","space","479.907977977","110","1077109.95371","1069393.10725","1070159.76352","1070926.47451","1071693.5664","1072460.07705","1073226.69158","1073976.67883","1077876.89936","1078643.40321","1079392.66761","1065559.94803","1066325.8929","1067093.28376","1067859.7975","1068626.18108","1078653.59847"
"Blocked","Female","cave","7","F_cad.wav","None","735.104003921","110","1077109.95371","1069393.10725","1070159.76352","1070926.47451","1071693.5664","1072460.07705","1073226.69158","1073976.67883","1077876.89936","1078643.40321","1079392.66761","1080159.55174","1066325.8929","1067093.28376","1067859.7975","1068626.18108","1079401.66792"
"Blocked","Female","cave","7","F_cave.wav","None","732.995758415","110","1077109.95371","1069393.10725","1070159.76352","1070926.47451","1071693.5664","1072460.07705","1073226.69158","1073976.67883","1077876.89936","1078643.40321","1079392.66761","1080159.55174","1080926.174","1067093.28376","1067859.7975","1068626.18108","1080169.05229"
"Blocked","Female","cave","7","F_done.wav","space","461.833768524","110","1077109.95371","1069393.10725","1070159.76352","1070926.47451","1071693.5664","1072460.07705","1073226.69158","1073976.67883","1077876.89936","1078643.40321","1079392.66761","1080159.55174","1080926.174","1081692.808","1067859.7975","1068626.18108","1080935.63776"
"Blocked","Female","cave","7","F_reek.wav","None","729.771091952","110","1077109.95371","1069393.10725","1070159.76352","1070926.47451","1071693.5664","1072460.07705","1073226.69158","1073976.67883","1077876.89936","1078643.40321","1079392.66761","1080159.55174","1080926.174","1081692.808","1082459.55331","1068626.18108","1081702.1549"
"Blocked","Female","cave","7","F_cling.wav","None","728.394038742","110","1077109.95371","1069393.10725","1070159.76352","1070926.47451","1071693.5664","1072460.07705","1073226.69158","1073976.67883","1077876.89936","1078643.40321","1079392.66761","1080159.55174","1080926.174","1081692.808","1082459.55331","1083226.17341","1082469.12312"
"Blocked","Female","cave","7","F_jolt.wav","None","727.135398658","110","1077109.95371","1083992.50226","1070159.76352","1070926.47451","1071693.5664","1072460.07705","1073226.69158","1073976.67883","1077876.89936","1078643.40321","1079392.66761","1080159.55174","1080926.174","1081692.808","1082459.55331","1083226.17341","1083235.64088"
"Blocked","Female","cave","7","F_done.wav","None","726.527256775","110","1077109.95371","1083992.50226","1084759.39814","1070926.47451","1071693.5664","1072460.07705","1073226.69158","1073976.67883","1077876.89936","1078643.40321","1079392.66761","1080159.55174","1080926.174","1081692.808","1082459.55331","1083226.17341","1084001.58482"
"Blocked","Female","cave","7","F_cave.wav","None","724.85525324","110","1077109.95371","1083992.50226","1084759.39814","1085526.92968","1071693.5664","1072460.07705","1073226.69158","1073976.67883","1077876.89936","1078643.40321","1079392.66761","1080159.55174","1080926.174","1081692.808","1082459.55331","1083226.17341","1084768.43865"
"Blocked","Female","cave","7","F_lash.wav","space","444.408511859","110","1077109.95371","1083992.50226","1084759.39814","1085526.92968","1086292.94781","1072460.07705","1073226.69158","1073976.67883","1077876.89936","1078643.40321","1079392.66761","1080159.55174","1080926.174","1081692.808","1082459.55331","1083226.17341","1085536.93202"
"Blocked","Female","cave","7","F_romp.wav","None","720.71234521","110","1077109.95371","1083992.50226","1084759.39814","1085526.92968","1086292.94781","1087059.65324","1073226.69158","1073976.67883","1077876.89936","1078643.40321","1079392.66761","1080159.55174","1080926.174","1081692.808","1082459.55331","1083226.17341","1086302.4697"
"Blocked","Female","cave","7","F_cave.wav","None","719.417222659","110","1077109.95371","1083992.50226","1084759.39814","1085526.92968","1086292.94781","1087059.65324","1087809.07996","1073976.67883","1077876.89936","1078643.40321","1079392.66761","1080159.55174","1080926.174","1081692.808","1082459.55331","1083226.17341","1087069.05826"
"Blocked","Female","cave","7","F_cad.wav","space","578.842168441","110","1077109.95371","1083992.50226","1084759.39814","1085526.92968","1086292.94781","1087059.65324","1087809.07996","1088576.11929","1077876.89936","1078643.40321","1079392.66761","1080159.55174","1080926.174","1081692.808","1082459.55331","1083226.17341","1087818.46024"
"Blocked","Female","tile","15","F_jolt.wav","None","732.93454235","110","1091709.53979","1083992.50226","1084759.39814","1085526.92968","1086292.94781","1087059.65324","1087809.07996","1088576.11929","1077876.89936","1078643.40321","1079392.66761","1080159.55174","1080926.174","1081692.808","1082459.55331","1083226.17341","1088585.80411"
"Blocked","Female","tile","15","F_tile.wav","None","721.722410875","110","1091709.53979","1083992.50226","1084759.39814","1085526.92968","1086292.94781","1087059.65324","1087809.07996","1088576.11929","1092476.5649","1078643.40321","1079392.66761","1080159.55174","1080926.174","1081692.808","1082459.55331","1083226.17341","1091719.40888"
"Blocked","Female","tile","15","F_done.wav","space","438.808165723","110","1091709.53979","1083992.50226","1084759.39814","1085526.92968","1086292.94781","1087059.65324","1087809.07996","1088576.11929","1092476.5649","1093243.09441","1079392.66761","1080159.55174","1080926.174","1081692.808","1082459.55331","1083226.17341","1092486.37401"
"Blocked","Female","tile","15","F_park.wav","None","718.81588269","110","1091709.53979","1083992.50226","1084759.39814","1085526.92968","1086292.94781","1087059.65324","1087809.07996","1088576.11929","1092476.5649","1093243.09441","1093992.26327","1080159.55174","1080926.174","1081692.808","1082459.55331","1083226.17341","1093252.84724"
"Blocked","Female","tile","15","F_cave.wav","None","735.188408056","110","1091709.53979","1083992.50226","1084759.39814","1085526.92968","1086292.94781","1087059.65324","1087809.07996","1088576.11929","1092476.5649","1093243.09441","1093992.26327","1094759.25283","1080926.174","1081692.808","1082459.55331","1083226.17341","1094002.09495"
"Blocked","Female","tile","15","F_romp.wav","None","734.212969546","110","1091709.53979","1083992.50226","1084759.39814","1085526.92968","1086292.94781","1087059.65324","1087809.07996","1088576.11929","1092476.5649","1093243.09441","1093992.26327","1094759.25283","1095525.89457","1081692.808","1082459.55331","1083226.17341","1094768.48038"
"Blocked","Female","tile","15","F_done.wav","None","732.93423315","110","1091709.53979","1083992.50226","1084759.39814","1085526.92968","1086292.94781","1087059.65324","1087809.07996","1088576.11929","1092476.5649","1093243.09441","1093992.26327","1094759.25283","1095525.89457","1096292.48653","1082459.55331","1083226.17341","1095535.40996"
"Blocked","Female","tile","15","F_tile.wav","None","732.044435455","110","1091709.53979","1083992.50226","1084759.39814","1085526.92968","1086292.94781","1087059.65324","1087809.07996","1088576.11929","1092476.5649","1093243.09441","1093992.26327","1094759.25283","1095525.89457","1096292.48653","1097058.87783","1083226.17341","1096301.83033"
"Blocked","Female","tile","15","F_dime.wav","space","544.882689137","110","1091709.53979","1083992.50226","1084759.39814","1085526.92968","1086292.94781","1087059.65324","1087809.07996","1088576.11929","1092476.5649","1093243.09441","1093992.26327","1094759.25283","1095525.89457","1096292.48653","1097058.87783","1097825.89583","1097068.21793"
"Blocked","Female","tile","15","F_tile.wav","None","728.990431991","110","1091709.53979","1098592.22685","1084759.39814","1085526.92968","1086292.94781","1087059.65324","1087809.07996","1088576.11929","1092476.5649","1093243.09441","1093992.26327","1094759.25283","1095525.89457","1096292.48653","1097058.87783","1097825.89583","1097835.60199"
"Blocked","Female","tile","15","F_dime.wav","space","708.020515507","110","1091709.53979","1098592.22685","1099359.17467","1085526.92968","1086292.94781","1087059.65324","1087809.07996","1088576.11929","1092476.5649","1093243.09441","1093992.26327","1094759.25283","1095525.89457","1096292.48653","1097058.87783","1097825.89583","1098601.05681"
"Blocked","Female","tile","15","F_cave.wav","None","726.841375697","110","1091709.53979","1098592.22685","1099359.17467","1100125.77838","1086292.94781","1087059.65324","1087809.07996","1088576.11929","1092476.5649","1093243.09441","1093992.26327","1094759.25283","1095525.89457","1096292.48653","1097058.87783","1097825.89583","1099368.47148"
"Blocked","Female","tile","15","F_greet.wav","None","725.465559284","110","1091709.53979","1098592.22685","1099359.17467","1100125.77838","1100893.1173","1087059.65324","1087809.07996","1088576.11929","1092476.5649","1093243.09441","1093992.26327","1094759.25283","1095525.89457","1096292.48653","1097058.87783","1097825.89583","1100135.35654"
"Blocked","Female","tile","15","F_dime.wav","None","723.112449399","110","1091709.53979","1098592.22685","1099359.17467","1100125.77838","1100893.1173","1101659.34722","1087809.07996","1088576.11929","1092476.5649","1093243.09441","1093992.26327","1094759.25283","1095525.89457","1096292.48653","1097058.87783","1097825.89583","1100903.07728"
"Blocked","Female","tile","15","F_tile.wav","None","722.694757627","110","1091709.53979","1098592.22685","1099359.17467","1100125.77838","1100893.1173","1101659.34722","1102426.18992","1088576.11929","1092476.5649","1093243.09441","1093992.26327","1094759.25283","1095525.89457","1096292.48653","1097058.87783","1097825.89583","1101669.07161"
"Blocked","Female","tile","15","F_romp.wav","space","513.001774903","110","1091709.53979","1098592.22685","1099359.17467","1100125.77838","1100893.1173","1101659.34722","1102426.18992","1103192.5636","1092476.5649","1093243.09441","1093992.26327","1094759.25283","1095525.89457","1096292.48653","1097058.87783","1097825.89583","1102435.95822"
"Blocked","Female","done","23","F_cling.wav","None","719.929211889","110","1106309.58128","1098592.22685","1099359.17467","1100125.77838","1100893.1173","1101659.34722","1102426.18992","1103192.5636","1092476.5649","1093243.09441","1093992.26327","1094759.25283","1095525.89457","1096292.48653","1097058.87783","1097825.89583","1103202.10744"
"Blocked","Female","done","23","F_dime.wav","None","721.518357284","110","1106309.58128","1098592.22685","1099359.17467","1100125.77838","1100893.1173","1101659.34722","1102426.18992","1103192.5636","1107076.19117","1093243.09441","1093992.26327","1094759.25283","1095525.89457","1096292.48653","1097058.87783","1097825.89583","1106319.18231"
"Blocked","Female","done","23","F_tile.wav","None","720.524368458","110","1106309.58128","1098592.22685","1099359.17467","1100125.77838","1100893.1173","1101659.34722","1102426.18992","1103192.5636","1107076.19117","1107842.499","1093992.26327","1094759.25283","1095525.89457","1096292.48653","1097058.87783","1097825.89583","1107085.83271"
"Blocked","Female","done","23","F_cave.wav","None","719.135566731","110","1106309.58128","1098592.22685","1099359.17467","1100125.77838","1100893.1173","1101659.34722","1102426.18992","1103192.5636","1107076.19117","1107842.499","1108609.38622","1094759.25283","1095525.89457","1096292.48653","1097058.87783","1097825.89583","1107852.60399"
"Blocked","Female","done","23","F_ball.wav","None","718.805061653","110","1106309.58128","1098592.22685","1099359.17467","1100125.77838","1100893.1173","1101659.34722","1102426.18992","1103192.5636","1107076.19117","1107842.499","1108609.38622","1109358.73688","1095525.89457","1096292.48653","1097058.87783","1097825.89583","1108618.97458"
"Blocked","Female","done","23","F_done.wav","None","735.108641558","110","1106309.58128","1098592.22685","1099359.17467","1100125.77838","1100893.1173","1101659.34722","1102426.18992","1103192.5636","1107076.19117","1107842.499","1108609.38622","1109358.73688","1110125.43953","1096292.48653","1097058.87783","1097825.89583","1109368.09491"
"Blocked","Female","done","23","F_cling.wav","space","421.547388542","110","1106309.58128","1098592.22685","1099359.17467","1100125.77838","1100893.1173","1101659.34722","1102426.18992","1103192.5636","1107076.19117","1107842.499","1108609.38622","1109358.73688","1110125.43953","1110891.95729","1097058.87783","1097825.89583","1110135.28728"
"Blocked","Female","done","23","F_reek.wav","None","732.53663769","110","1106309.58128","1098592.22685","1099359.17467","1100125.77838","1100893.1173","1101659.34722","1102426.18992","1103192.5636","1107076.19117","1107842.499","1108609.38622","1109358.73688","1110125.43953","1110891.95729","1111658.9388","1097825.89583","1110900.83548"
"Blocked","Female","done","23","F_done.wav","None","730.941618094","110","1106309.58128","1098592.22685","1099359.17467","1100125.77838","1100893.1173","1101659.34722","1102426.18992","1103192.5636","1107076.19117","1107842.499","1108609.38622","1109358.73688","1110125.43953","1110891.95729","1111658.9388","1112425.67329","1111667.95921"
"Blocked","Female","done","23","F_ball.wav","space","641.538280295","110","1106309.58128","1113192.11469","1099359.17467","1100125.77838","1100893.1173","1101659.34722","1102426.18992","1103192.5636","1107076.19117","1107842.499","1108609.38622","1109358.73688","1110125.43953","1110891.95729","1111658.9388","1112425.67329","1112435.21126"
"Blocked","Female","done","23","F_done.wav","None","733.15931065","110","1106309.58128","1113192.11469","1113958.87545","1100125.77838","1100893.1173","1101659.34722","1102426.18992","1103192.5636","1107076.19117","1107842.499","1108609.38622","1109358.73688","1110125.43953","1110891.95729","1111658.9388","1112425.67329","1113196.18463"
"Blocked","Female","done","23","F_knife.wav","space","700.682621333","110","1106309.58128","1113192.11469","1113958.87545","1114725.52368","1100893.1173","1101659.34722","1102426.18992","1103192.5636","1107076.19117","1107842.499","1108609.38622","1109358.73688","1110125.43953","1110891.95729","1111658.9388","1112425.67329","1113968.05138"
"Blocked","Female","done","23","F_depth.wav","None","725.035500713","110","1106309.58128","1113192.11469","1113958.87545","1114725.52368","1115492.57724","1101659.34722","1102426.18992","1103192.5636","1107076.19117","1107842.499","1108609.38622","1109358.73688","1110125.43953","1110891.95729","1111658.9388","1112425.67329","1114734.80071"
"Blocked","Female","done","23","F_done.wav","None","722.698776866","110","1106309.58128","1113192.11469","1113958.87545","1114725.52368","1115492.57724","1116259.36954","1102426.18992","1103192.5636","1107076.19117","1107842.499","1108609.38622","1109358.73688","1110125.43953","1110891.95729","1111658.9388","1112425.67329","1115502.395"
"Blocked","Female","done","23","F_cling.wav","space","671.27786763","110","1106309.58128","1113192.11469","1113958.87545","1114725.52368","1115492.57724","1116259.36954","1117026.13278","1103192.5636","1107076.19117","1107842.499","1108609.38622","1109358.73688","1110125.43953","1110891.95729","1111658.9388","1112425.67329","1116269.43032"
"Blocked","Female","done","23","F_romp.wav","None","719.003241044","110","1106309.58128","1113192.11469","1113958.87545","1114725.52368","1115492.57724","1116259.36954","1117026.13278","1117775.19684","1107076.19117","1107842.499","1108609.38622","1109358.73688","1110125.43953","1110891.95729","1111658.9388","1112425.67329","1117036.1614"
"Blocked","Female","tile","17","F_reek.wav","None","736.933685257","110","1120909.08357","1113192.11469","1113958.87545","1114725.52368","1115492.57724","1116259.36954","1117026.13278","1117775.19684","1107076.19117","1107842.499","1108609.38622","1109358.73688","1110125.43953","1110891.95729","1111658.9388","1112425.67329","1117784.04041"
"Blocked","Female","tile","17","F_tile.wav","None","721.829693764","110","1120909.08357","1113192.11469","1113958.87545","1114725.52368","1115492.57724","1116259.36954","1117026.13278","1117775.19684","1121675.72593","1107842.499","1108609.38622","1109358.73688","1110125.43953","1110891.95729","1111658.9388","1112425.67329","1120918.66915"
"Blocked","Female","tile","17","F_knife.wav","space","502.819496207","110","1120909.08357","1113192.11469","1113958.87545","1114725.52368","1115492.57724","1116259.36954","1117026.13278","1117775.19684","1121675.72593","1122442.30027","1108609.38622","1109358.73688","1110125.43953","1110891.95729","1111658.9388","1112425.67329","1121685.76784"
"Blocked","Female","tile","17","F_tile.wav","None","718.702107319","110","1120909.08357","1113192.11469","1113958.87545","1114725.52368","1115492.57724","1116259.36954","1117026.13278","1117775.19684","1121675.72593","1122442.30027","1123191.78325","1109358.73688","1110125.43953","1110891.95729","1111658.9388","1112425.67329","1122452.12762"
"Blocked","Female","tile","17","F_park.wav","space","595.259832917","110","1120909.08357","1113192.11469","1113958.87545","1114725.52368","1115492.57724","1116259.36954","1117026.13278","1117775.19684","1121675.72593","1122442.30027","1123191.78325","1123958.62131","1110125.43953","1110891.95729","1111658.9388","1112425.67329","1123201.29556"
"Blocked","Female","tile","17","F_tile.wav","None","733.795277891","110","1120909.08357","1113192.11469","1113958.87545","1114725.52368","1115492.57724","1116259.36954","1117026.13278","1117775.19684","1121675.72593","1122442.30027","1123191.78325","1123958.62131","1124725.24914","1110891.95729","1111658.9388","1112425.67329","1123967.83217"
"Blocked","Female","tile","17","F_jolt.wav","space","421.83275451","110","1120909.08357","1113192.11469","1113958.87545","1114725.52368","1115492.57724","1116259.36954","1117026.13278","1117775.19684","1121675.72593","1122442.30027","1123191.78325","1123958.62131","1124725.24914","1125491.89088","1111658.9388","1112425.67329","1124734.70363"
"Blocked","Female","tile","17","F_jolt.wav","None","730.24999979","110","1120909.08357","1113192.11469","1113958.87545","1114725.52368","1115492.57724","1116259.36954","1117026.13278","1117775.19684","1121675.72593","1122442.30027","1123191.78325","1123958.62131","1124725.24914","1125491.89088","1126258.5354","1112425.67329","1125501.71451"
"Blocked","Female","tile","17","F_dime.wav","None","730.302868295","110","1120909.08357","1113192.11469","1113958.87545","1114725.52368","1115492.57724","1116259.36954","1117026.13278","1117775.19684","1121675.72593","1122442.30027","1123191.78325","1123958.62131","1124725.24914","1125491.89088","1126258.5354","1127025.23031","1126267.47666"
"Blocked","Female","tile","17","F_tile.wav","None","728.590053972","110","1120909.08357","1127791.84268","1113958.87545","1114725.52368","1115492.57724","1116259.36954","1117026.13278","1117775.19684","1121675.72593","1122442.30027","1123191.78325","1123958.62131","1124725.24914","1125491.89088","1126258.5354","1127025.23031","1127034.75591"
"Blocked","Female","tile","17","F_knife.wav","space","499.209601199","110","1120909.08357","1127791.84268","1128558.48101","1114725.52368","1115492.57724","1116259.36954","1117026.13278","1117775.19684","1121675.72593","1122442.30027","1123191.78325","1123958.62131","1124725.24914","1125491.89088","1126258.5354","1127025.23031","1127801.20534"
"Blocked","Female","tile","17","F_done.wav","None","725.540688145","110","1120909.08357","1127791.84268","1128558.48101","1129324.89922","1115492.57724","1116259.36954","1117026.13278","1117775.19684","1121675.72593","1122442.30027","1123191.78325","1123958.62131","1124725.24914","1125491.89088","1126258.5354","1127025.23031","1128568.14048"
"Blocked","Female","tile","17","F_jolt.wav","None","725.213583908","110","1120909.08357","1127791.84268","1128558.48101","1129324.89922","1130091.78273","1116259.36954","1117026.13278","1117775.19684","1121675.72593","1122442.30027","1123191.78325","1123958.62131","1124725.24914","1125491.89088","1126258.5354","1127025.23031","1129334.06401"
"Blocked","Female","tile","17","F_park.wav","None","725.499877357","110","1120909.08357","1127791.84268","1128558.48101","1129324.89922","1130091.78273","1130858.89224","1117026.13278","1117775.19684","1121675.72593","1122442.30027","1123191.78325","1123958.62131","1124725.24914","1125491.89088","1126258.5354","1127025.23031","1130101.04986"
"Blocked","Female","tile","17","F_lash.wav","None","723.571570124","110","1120909.08357","1127791.84268","1128558.48101","1129324.89922","1130091.78273","1130858.89224","1131625.81625","1117775.19684","1121675.72593","1122442.30027","1123191.78325","1123958.62131","1124725.24914","1125491.89088","1126258.5354","1127025.23031","1130868.68496"
"Blocked","Female","tile","17","F_depth.wav","None","722.377237747","110","1120909.08357","1127791.84268","1128558.48101","1129324.89922","1130091.78273","1130858.89224","1131625.81625","1132392.17664","1121675.72593","1122442.30027","1123191.78325","1123958.62131","1124725.24914","1125491.89088","1126258.5354","1127025.23031","1131635.72615"
"Blocked","Female","cave","11","F_done.wav","None","721.998501802","110","1135508.63657","1127791.84268","1128558.48101","1129324.89922","1130091.78273","1130858.89224","1131625.81625","1132392.17664","1121675.72593","1122442.30027","1123191.78325","1123958.62131","1124725.24914","1125491.89088","1126258.5354","1127025.23031","1132401.94092"
"Blocked","Female","cave","11","F_cave.wav","None","721.448484226","110","1135508.63657","1127791.84268","1128558.48101","1129324.89922","1130091.78273","1130858.89224","1131625.81625","1132392.17664","1136275.63015","1122442.30027","1123191.78325","1123958.62131","1124725.24914","1125491.89088","1126258.5354","1127025.23031","1135518.62129"
"Blocked","Female","cave","11","F_ball.wav","space","382.841496961","110","1135508.63657","1127791.84268","1128558.48101","1129324.89922","1130091.78273","1130858.89224","1131625.81625","1132392.17664","1136275.63015","1137025.34996","1123191.78325","1123958.62131","1124725.24914","1125491.89088","1126258.5354","1127025.23031","1136285.45008"
"Blocked","Female","cave","11","F_jaw.wav","None","735.499435337","110","1135508.63657","1127791.84268","1128558.48101","1129324.89922","1130091.78273","1130858.89224","1131625.81625","1132392.17664","1136275.63015","1137025.34996","1137791.44477","1123958.62131","1124725.24914","1125491.89088","1126258.5354","1127025.23031","1137034.85855"
"Blocked","Female","cave","11","F_dime.wav","None","734.977243352","110","1135508.63657","1127791.84268","1128558.48101","1129324.89922","1130091.78273","1130858.89224","1131625.81625","1132392.17664","1136275.63015","1137025.34996","1137791.44477","1138558.13505","1124725.24914","1125491.89088","1126258.5354","1127025.23031","1137800.85845"
"Blocked","Female","cave","11","F_cave.wav","None","734.012935078","110","1135508.63657","1127791.84268","1128558.48101","1129324.89922","1130091.78273","1130858.89224","1131625.81625","1132392.17664","1136275.63015","1137025.34996","1137791.44477","1138558.13505","1139324.98084","1125491.89088","1126258.5354","1127025.23031","1138567.4603"
"Blocked","Female","cave","11","F_dime.wav","space","485.829863115","110","1135508.63657","1127791.84268","1128558.48101","1129324.89922","1130091.78273","1130858.89224","1131625.81625","1132392.17664","1136275.63015","1137025.34996","1137791.44477","1138558.13505","1139324.98084","1140091.54837","1126258.5354","1127025.23031","1139334.39297"
"Blocked","Female","cave","11","F_cave.wav","None","730.983047164","110","1135508.63657","1127791.84268","1128558.48101","1129324.89922","1130091.78273","1130858.89224","1131625.81625","1132392.17664","1136275.63015","1137025.34996","1137791.44477","1138558.13505","1139324.98084","1140091.54837","1140858.00275","1127025.23031","1140100.97658"
"Blocked","Female","cave","11","F_tile.wav","space","537.003125413","110","1135508.63657","1127791.84268","1128558.48101","1129324.89922","1130091.78273","1130858.89224","1131625.81625","1132392.17664","1136275.63015","1137025.34996","1137791.44477","1138558.13505","1139324.98084","1140091.54837","1140858.00275","1141624.94315","1140867.11097"
"Blocked","Female","cave","11","F_greet.wav","None","727.385209757","110","1135508.63657","1142391.3728","1128558.48101","1129324.89922","1130091.78273","1130858.89224","1131625.81625","1132392.17664","1136275.63015","1137025.34996","1137791.44477","1138558.13505","1139324.98084","1140091.54837","1140858.00275","1141624.94315","1141634.69784"
"Blocked","Female","cave","11","F_bluff.wav","None","727.197233005","110","1135508.63657","1142391.3728","1143158.24363","1129324.89922","1130091.78273","1130858.89224","1131625.81625","1132392.17664","1136275.63015","1137025.34996","1137791.44477","1138558.13505","1139324.98084","1140091.54837","1140858.00275","1141624.94315","1142400.74412"
"Blocked","Female","cave","11","F_done.wav","None","725.850169547","110","1135508.63657","1142391.3728","1143158.24363","1143924.89031","1130091.78273","1130858.89224","1131625.81625","1132392.17664","1136275.63015","1137025.34996","1137791.44477","1138558.13505","1139324.98084","1140091.54837","1140858.00275","1141624.94315","1143167.77417"
"Blocked","Female","cave","11","F_cave.wav","None","724.983559805","110","1135508.63657","1142391.3728","1143158.24363","1143924.89031","1144691.97046","1130858.89224","1131625.81625","1132392.17664","1136275.63015","1137025.34996","1137791.44477","1138558.13505","1139324.98084","1140091.54837","1140858.00275","1141624.94315","1143934.3043"
"Blocked","Female","cave","11","F_jolt.wav","space","670.046125422","110","1135508.63657","1142391.3728","1143158.24363","1143924.89031","1144691.97046","1145458.6731","1131625.81625","1132392.17664","1136275.63015","1137025.34996","1137791.44477","1138558.13505","1139324.98084","1140091.54837","1140858.00275","1141624.94315","1144702.0538"
"Blocked","Female","cave","11","F_priest.wav","None","721.493932651","110","1135508.63657","1142391.3728","1143158.24363","1143924.89031","1144691.97046","1145458.6731","1146225.21683","1132392.17664","1136275.63015","1137025.34996","1137791.44477","1138558.13505","1139324.98084","1140091.54837","1140858.00275","1141624.94315","1145468.06483"
"Blocked","Female","cave","11","F_priest.wav","None","720.351541182","110","1135508.63657","1142391.3728","1143158.24363","1143924.89031","1144691.97046","1145458.6731","1146225.21683","1146991.74201","1136275.63015","1137025.34996","1137791.44477","1138558.13505","1139324.98084","1140091.54837","1140858.00275","1141624.94315","1146234.94988"
"Blocked","Female","done","21","F_romp.wav","None","720.094309887","110","1150108.23718","1142391.3728","1143158.24363","1143924.89031","1144691.97046","1145458.6731","1146225.21683","1146991.74201","1136275.63015","1137025.34996","1137791.44477","1138558.13505","1139324.98084","1140091.54837","1140858.00275","1141624.94315","1147001.35758"
"Blocked","Female","done","21","F_reek.wav","None","721.600906225","110","1150108.23718","1142391.3728","1143158.24363","1143924.89031","1144691.97046","1145458.6731","1146225.21683","1146991.74201","1150875.07061","1137025.34996","1137791.44477","1138558.13505","1139324.98084","1140091.54837","1140858.00275","1141624.94315","1150118.17522"
"Blocked","Female","done","21","F_romp.wav","None","720.62825039","110","1150108.23718","1142391.3728","1143158.24363","1143924.89031","1144691.97046","1145458.6731","1146225.21683","1146991.74201","1150875.07061","1151641.8558","1137791.44477","1138558.13505","1139324.98084","1140091.54837","1140858.00275","1141624.94315","1150884.88744"
"Blocked","Female","done","21","F_bluff.wav","None","720.243330928","110","1150108.23718","1142391.3728","1143158.24363","1143924.89031","1144691.97046","1145458.6731","1146225.21683","1146991.74201","1150875.07061","1151641.8558","1152408.2434","1138558.13505","1139324.98084","1140091.54837","1140858.00275","1141624.94315","1151651.11798"
"Blocked","Female","done","21","F_tile.wav","None","719.426188734","110","1150108.23718","1142391.3728","1143158.24363","1143924.89031","1144691.97046","1145458.6731","1146225.21683","1146991.74201","1150875.07061","1151641.8558","1152408.2434","1153157.74524","1139324.98084","1140091.54837","1140858.00275","1141624.94315","1152417.85278"
"Blocked","Female","done","21","F_lash.wav","None","735.485213343","110","1150108.23718","1142391.3728","1143158.24363","1143924.89031","1144691.97046","1145458.6731","1146225.21683","1146991.74201","1150875.07061","1151641.8558","1152408.2434","1153157.74524","1153924.37616","1140091.54837","1140858.00275","1141624.94315","1153167.65607"
"Blocked","Female","done","21","F_priest.wav","None","735.397717683","110","1150108.23718","1142391.3728","1143158.24363","1143924.89031","1144691.97046","1145458.6731","1146225.21683","1146991.74201","1150875.07061","1151641.8558","1152408.2434","1153157.74524","1153924.37616","1154691.05283","1140858.00275","1141624.94315","1153933.61268"
"Blocked","Female","done","21","F_done.wav","None","734.724649577","110","1150108.23718","1142391.3728","1143158.24363","1143924.89031","1144691.97046","1145458.6731","1146225.21683","1146991.74201","1150875.07061","1151641.8558","1152408.2434","1153157.74524","1153924.37616","1154691.05283","1155457.67633","1141624.94315","1154700.07974"
"Blocked","Female","done","21","F_cad.wav","space","512.908095727","110","1150108.23718","1142391.3728","1143158.24363","1143924.89031","1144691.97046","1145458.6731","1146225.21683","1146991.74201","1150875.07061","1151641.8558","1152408.2434","1153157.74524","1153924.37616","1154691.05283","1155457.67633","1156224.6294","1155466.95335"
"Blocked","Female","done","21","F_done.wav","None","731.236877618","110","1150108.23718","1156991.14964","1143158.24363","1143924.89031","1144691.97046","1145458.6731","1146225.21683","1146991.74201","1150875.07061","1151641.8558","1152408.2434","1153157.74524","1153924.37616","1154691.05283","1155457.67633","1156224.6294","1156234.50158"
"Blocked","Female","done","21","F_dime.wav","space","595.329087577","110","1150108.23718","1156991.14964","1157757.90082","1143924.89031","1144691.97046","1145458.6731","1146225.21683","1146991.74201","1150875.07061","1151641.8558","1152408.2434","1153157.74524","1153924.37616","1154691.05283","1155457.67633","1156224.6294","1157000.47551"
"Blocked","Female","done","21","F_park.wav","None","728.642922477","110","1150108.23718","1156991.14964","1157757.90082","1158524.54936","1144691.97046","1145458.6731","1146225.21683","1146991.74201","1150875.07061","1151641.8558","1152408.2434","1153157.74524","1153924.37616","1154691.05283","1155457.67633","1156224.6294","1157767.41714"
"Blocked","Female","done","21","F_done.wav","None","728.101871093","110","1150108.23718","1156991.14964","1157757.90082","1158524.54936","1159291.19975","1145458.6731","1146225.21683","1146991.74201","1150875.07061","1151641.8558","1152408.2434","1153157.74524","1153924.37616","1154691.05283","1155457.67633","1156224.6294","1158534.10804"
"Blocked","Female","done","21","F_jolt.wav","space","511.150760693","110","1150108.23718","1156991.14964","1157757.90082","1158524.54936","1159291.19975","1160057.63094","1146225.21683","1146991.74201","1150875.07061","1151641.8558","1152408.2434","1153157.74524","1153924.37616","1154691.05283","1155457.67633","1156224.6294","1159300.64002"
"Blocked","Female","done","21","F_done.wav","None","725.675487309","110","1150108.23718","1156991.14964","1157757.90082","1158524.54936","1159291.19975","1160057.63094","1160824.54784","1146991.74201","1150875.07061","1151641.8558","1152408.2434","1153157.74524","1153924.37616","1154691.05283","1155457.67633","1156224.6294","1160067.07523"
"Blocked","Female","done","21","F_park.wav","space","505.52104332","110","1150108.23718","1156991.14964","1157757.90082","1158524.54936","1159291.19975","1160057.63094","1160824.54784","1161590.58639","1150875.07061","1151641.8558","1152408.2434","1153157.74524","1153924.37616","1154691.05283","1155457.67633","1156224.6294","1160834.21566"
"Blocked","Female","ball","5","F_done.wav","None","725.877995137","110","1164724.84783","1156991.14964","1157757.90082","1158524.54936","1159291.19975","1160057.63094","1160824.54784","1161590.58639","1150875.07061","1151641.8558","1152408.2434","1153157.74524","1153924.37616","1154691.05283","1155457.67633","1156224.6294","1161599.40676"
"Blocked","Female","ball","5","F_knife.wav","None","721.056454","110","1164724.84783","1156991.14964","1157757.90082","1158524.54936","1159291.19975","1160057.63094","1160824.54784","1161590.58639","1165491.34302","1151641.8558","1152408.2434","1153157.74524","1153924.37616","1154691.05283","1155457.67633","1156224.6294","1164734.8004"
"Blocked","Female","ball","5","F_greet.wav","None","720.293107675","110","1164724.84783","1156991.14964","1157757.90082","1158524.54936","1159291.19975","1160057.63094","1160824.54784","1161590.58639","1165491.34302","1166258.13162","1152408.2434","1153157.74524","1153924.37616","1154691.05283","1155457.67633","1156224.6294","1165501.40132"
"Blocked","Female","ball","5","F_romp.wav","None","719.61045533","110","1164724.84783","1156991.14964","1157757.90082","1158524.54936","1159291.19975","1160057.63094","1160824.54784","1161590.58639","1165491.34302","1166258.13162","1167024.7783","1153157.74524","1153924.37616","1154691.05283","1155457.67633","1156224.6294","1166267.82231"
"Blocked","Female","ball","5","F_ball.wav","None","718.675518408","110","1164724.84783","1156991.14964","1157757.90082","1158524.54936","1159291.19975","1160057.63094","1160824.54784","1161590.58639","1165491.34302","1166258.13162","1167024.7783","1167774.47245","1153924.37616","1154691.05283","1155457.67633","1156224.6294","1167034.82021"
"Blocked","Female","ball","5","F_priest.wav","space","379.809135571","110","1164724.84783","1156991.14964","1157757.90082","1158524.54936","1159291.19975","1160057.63094","1160824.54784","1161590.58639","1165491.34302","1166258.13162","1167024.7783","1167774.47245","1168540.91601","1154691.05283","1155457.67633","1156224.6294","1167783.83326"
"Blocked","Female","ball","5","F_bluff.wav","None","733.508675243","110","1164724.84783","1156991.14964","1157757.90082","1158524.54936","1159291.19975","1160057.63094","1160824.54784","1161590.58639","1165491.34302","1166258.13162","1167024.7783","1167774.47245","1168540.91601","1169307.63628","1155457.67633","1156224.6294","1168550.74738"
"Blocked","Female","ball","5","F_ball.wav","None","733.111079666","110","1164724.84783","1156991.14964","1157757.90082","1158524.54936","1159291.19975","1160057.63094","1160824.54784","1161590.58639","1165491.34302","1166258.13162","1167024.7783","1167774.47245","1168540.91601","1169307.63628","1170074.29285","1156224.6294","1169317.06325"
"Blocked","Female","ball","5","F_cad.wav","space","479.639925645","110","1164724.84783","1156991.14964","1157757.90082","1158524.54936","1159291.19975","1160057.63094","1160824.54784","1161590.58639","1165491.34302","1166258.13162","1167024.7783","1167774.47245","1168540.91601","1169307.63628","1170074.29285","1170840.91233","1170083.89172"
"Blocked","Female","ball","5","F_ball.wav","None","730.700463755","110","1164724.84783","1171607.95692","1157757.90082","1158524.54936","1159291.19975","1160057.63094","1160824.54784","1161590.58639","1165491.34302","1166258.13162","1167024.7783","1167774.47245","1168540.91601","1169307.63628","1170074.29285","1170840.91233","1170850.356"
"Blocked","Female","ball","5","F_cave.wav","None","729.773256113","110","1164724.84783","1171607.95692","1172374.38935","1158524.54936","1159291.19975","1160057.63094","1160824.54784","1161590.58639","1165491.34302","1166258.13162","1167024.7783","1167774.47245","1168540.91601","1169307.63628","1170074.29285","1170840.91233","1171617.47571"
"Blocked","Female","ball","5","F_jolt.wav","space","35.5344027048","110","1164724.84783","1171607.95692","1172374.38935","1173140.78962","1159291.19975","1160057.63094","1160824.54784","1161590.58639","1165491.34302","1166258.13162","1167024.7783","1167774.47245","1168540.91601","1169307.63628","1170074.29285","1170840.91233","1172384.00584"
"Blocked","Female","ball","5","F_ball.wav","None","727.544742636","110","1164724.84783","1171607.95692","1172374.38935","1173140.78962","1173907.62644","1160057.63094","1160824.54784","1161590.58639","1165491.34302","1166258.13162","1167024.7783","1167774.47245","1168540.91601","1169307.63628","1170074.29285","1170840.91233","1173150.31305"
"Blocked","Female","ball","5","F_jaw.wav","space","550.828071544","110","1164724.84783","1171607.95692","1172374.38935","1173140.78962","1173907.62644","1174674.24097","1160824.54784","1161590.58639","1165491.34302","1166258.13162","1167024.7783","1167774.47245","1168540.91601","1169307.63628","1170074.29285","1170840.91233","1173916.67592"
"Blocked","Female","ball","5","F_jolt.wav","None","727.514443803","110","1164724.84783","1171607.95692","1172374.38935","1173140.78962","1173907.62644","1174674.24097","1175440.73616","1161590.58639","1165491.34302","1166258.13162","1167024.7783","1167774.47245","1168540.91601","1169307.63628","1170074.29285","1170840.91233","1174681.6843"
"Blocked","Female","ball","5","F_jaw.wav","None","724.705613917","110","1164724.84783","1171607.95692","1172374.38935","1173140.78962","1173907.62644","1174674.24097","1175440.73616","1176207.25145","1165491.34302","1166258.13162","1167024.7783","1167774.47245","1168540.91601","1169307.63628","1170074.29285","1170840.91233","1175450.39223"
"Blocked","Female","ball","1","F_reek.wav","None","724.615335697","110","1179340.96443","1171607.95692","1172374.38935","1173140.78962","1173907.62644","1174674.24097","1175440.73616","1176207.25145","1165491.34302","1166258.13162","1167024.7783","1167774.47245","1168540.91601","1169307.63628","1170074.29285","1170840.91233","1176216.56093"
"Blocked","Female","ball","1","F_ball.wav","None","721.569061512","110","1179340.96443","1171607.95692","1172374.38935","1173140.78962","1173907.62644","1174674.24097","1175440.73616","1176207.25145","1180107.70881","1166258.13162","1167024.7783","1167774.47245","1168540.91601","1169307.63628","1170074.29285","1170840.91233","1179351.00789"
"Blocked","Female","ball","1","F_cave.wav","space","581.844230997","110","1179340.96443","1171607.95692","1172374.38935","1173140.78962","1173907.62644","1174674.24097","1175440.73616","1176207.25145","1180107.70881","1180874.71599","1167024.7783","1167774.47245","1168540.91601","1169307.63628","1170074.29285","1170840.91233","1180117.47618"
"Blocked","Female","ball","1","F_ball.wav","None","718.652021489","110","1179340.96443","1171607.95692","1172374.38935","1173140.78962","1173907.62644","1174674.24097","1175440.73616","1176207.25145","1180107.70881","1180874.71599","1181624.06758","1167774.47245","1168540.91601","1169307.63628","1170074.29285","1170840.91233","1180884.4849"
"Blocked","Female","ball","1","F_romp.wav","space","385.698248516","110","1179340.96443","1171607.95692","1172374.38935","1173140.78962","1173907.62644","1174674.24097","1175440.73616","1176207.25145","1180107.70881","1180874.71599","1181624.06758","1182390.38097","1168540.91601","1169307.63628","1170074.29285","1170840.91233","1181633.58482"
"Blocked","Female","ball","1","F_ball.wav","None","734.50111819","110","1179340.96443","1171607.95692","1172374.38935","1173140.78962","1173907.62644","1174674.24097","1175440.73616","1176207.25145","1180107.70881","1180874.71599","1181624.06758","1182390.38097","1183157.37887","1169307.63628","1170074.29285","1170840.91233","1182399.43632"
"Blocked","Female","ball","1","F_romp.wav","space","460.456715315","110","1179340.96443","1171607.95692","1172374.38935","1173140.78962","1173907.62644","1174674.24097","1175440.73616","1176207.25145","1180107.70881","1180874.71599","1181624.06758","1182390.38097","1183157.37887","1183924.10718","1170074.29285","1170840.91233","1183166.78977"
"Blocked","Female","ball","1","F_romp.wav","None","730.352026643","110","1179340.96443","1171607.95692","1172374.38935","1173140.78962","1173907.62644","1174674.24097","1175440.73616","1176207.25145","1180107.70881","1180874.71599","1181624.06758","1182390.38097","1183157.37887","1183924.10718","1184690.526","1170840.91233","1183933.99265"
"Blocked","Female","ball","1","F_cad.wav","None","731.016128557","110","1179340.96443","1171607.95692","1172374.38935","1173140.78962","1173907.62644","1174674.24097","1175440.73616","1176207.25145","1180107.70881","1180874.71599","1181624.06758","1182390.38097","1183157.37887","1183924.10718","1184690.526","1185457.31583","1184699.83858"
"Blocked","Female","ball","1","F_romp.wav","None","730.420353706","110","1179340.96443","1186224.20429","1172374.38935","1173140.78962","1173907.62644","1174674.24097","1175440.73616","1176207.25145","1180107.70881","1180874.71599","1181624.06758","1182390.38097","1183157.37887","1183924.10718","1184690.526","1185457.31583","1185466.31646"
"Blocked","Female","ball","1","F_priest.wav","None","729.330830625","110","1179340.96443","1186224.20429","1186990.45369","1173140.78962","1173907.62644","1174674.24097","1175440.73616","1176207.25145","1180107.70881","1180874.71599","1181624.06758","1182390.38097","1183157.37887","1183924.10718","1184690.526","1185457.31583","1186233.3122"
"Blocked","Female","ball","1","F_lash.wav","None","728.762262966","110","1179340.96443","1186224.20429","1186990.45369","1187757.24228","1173907.62644","1174674.24097","1175440.73616","1176207.25145","1180107.70881","1180874.71599","1181624.06758","1182390.38097","1183157.37887","1183924.10718","1184690.526","1185457.31583","1186999.97094"
"Blocked","Female","ball","1","F_knife.wav","None","727.976347087","110","1179340.96443","1186224.20429","1186990.45369","1187757.24228","1188523.90381","1174674.24097","1175440.73616","1176207.25145","1180107.70881","1180874.71599","1181624.06758","1182390.38097","1183157.37887","1183924.10718","1184690.526","1185457.31583","1187766.83219"
"Blocked","Female","ball","1","F_ball.wav","None","727.204034803","110","1179340.96443","1186224.20429","1186990.45369","1187757.24228","1188523.90381","1189290.42899","1175440.73616","1176207.25145","1180107.70881","1180874.71599","1181624.06758","1182390.38097","1183157.37887","1183924.10718","1184690.526","1185457.31583","1188533.35644"
"Blocked","Female","ball","1","F_tile.wav","space","463.387049851","110","1179340.96443","1186224.20429","1186990.45369","1187757.24228","1188523.90381","1189290.42899","1190057.707","1176207.25145","1180107.70881","1180874.71599","1181624.06758","1182390.38097","1183157.37887","1183924.10718","1184690.526","1185457.31583","1189299.75331"
"Blocked","Female","ball","1","F_priest.wav","None","723.601868958","110","1179340.96443","1186224.20429","1186990.45369","1187757.24228","1188523.90381","1189290.42899","1190057.707","1190824.39017","1180107.70881","1180874.71599","1181624.06758","1182390.38097","1183157.37887","1183924.10718","1184690.526","1185457.31583","1190067.46046"
"Blocked","Female","done","24","F_cling.wav","None","722.866966506","110","1193957.3398","1186224.20429","1186990.45369","1187757.24228","1188523.90381","1189290.42899","1190057.707","1190824.39017","1180107.70881","1180874.71599","1181624.06758","1182390.38097","1183157.37887","1183924.10718","1184690.526","1185457.31583","1190834.29945"
"Blocked","Female","done","24","F_done.wav","None","721.701078117","110","1193957.3398","1186224.20429","1186990.45369","1187757.24228","1188523.90381","1189290.42899","1190057.707","1190824.39017","1194724.07985","1180874.71599","1181624.06758","1182390.38097","1183157.37887","1183924.10718","1184690.526","1185457.31583","1193967.21259"
"Blocked","Female","done","24","F_reek.wav","space","533.252247726","110","1193957.3398","1186224.20429","1186990.45369","1187757.24228","1188523.90381","1189290.42899","1190057.707","1190824.39017","1194724.07985","1195490.59761","1181624.06758","1182390.38097","1183157.37887","1183924.10718","1184690.526","1185457.31583","1194733.84413"
"Blocked","Female","done","24","F_done.wav","None","718.884518952","110","1193957.3398","1186224.20429","1186990.45369","1187757.24228","1188523.90381","1189290.42899","1190057.707","1190824.39017","1194724.07985","1195490.59761","1196240.65658","1182390.38097","1183157.37887","1183924.10718","1184690.526","1185457.31583","1195500.68095"
"Blocked","Female","done","24","F_lash.wav","space","432.767867576","110","1193957.3398","1186224.20429","1186990.45369","1187757.24228","1188523.90381","1189290.42899","1190057.707","1190824.39017","1194724.07985","1195490.59761","1196240.65658","1197006.86486","1183157.37887","1183924.10718","1184690.526","1185457.31583","1196250.20166"
"Blocked","Female","done","24","F_reek.wav","None","733.724168269","110","1193957.3398","1186224.20429","1186990.45369","1187757.24228","1188523.90381","1189290.42899","1190057.707","1190824.39017","1194724.07985","1195490.59761","1196240.65658","1197006.86486","1197773.78423","1183924.10718","1184690.526","1185457.31583","1197016.45724"
"Blocked","Female","done","24","F_tile.wav","None","732.994521852","110","1193957.3398","1186224.20429","1186990.45369","1187757.24228","1188523.90381","1189290.42899","1190057.707","1190824.39017","1194724.07985","1195490.59761","1196240.65658","1197006.86486","1197773.78423","1198540.35826","1184690.526","1185457.31583","1197783.16947"
"Blocked","Female","done","24","F_romp.wav","None","732.170268544","110","1193957.3398","1186224.20429","1186990.45369","1187757.24228","1188523.90381","1189290.42899","1190057.707","1190824.39017","1194724.07985","1195490.59761","1196240.65658","1197006.86486","1197773.78423","1198540.35826","1199306.76719","1185457.31583","1198549.73329"
"Blocked","Female","done","24","F_done.wav","None","732.263947721","110","1193957.3398","1186224.20429","1186990.45369","1187757.24228","1188523.90381","1189290.42899","1190057.707","1190824.39017","1194724.07985","1195490.59761","1196240.65658","1197006.86486","1197773.78423","1198540.35826","1199306.76719","1200073.69028","1199316.01948"
"Blocked","Female","done","24","F_cling.wav","space","471.274652169","110","1193957.3398","1200841.04435","1186990.45369","1187757.24228","1188523.90381","1189290.42899","1190057.707","1190824.39017","1194724.07985","1195490.59761","1196240.65658","1197006.86486","1197773.78423","1198540.35826","1199306.76719","1200073.69028","1200083.60388"
"Blocked","Female","done","24","F_bluff.wav","None","728.957968997","110","1193957.3398","1200841.04435","1201606.97468","1187757.24228","1188523.90381","1189290.42899","1190057.707","1190824.39017","1194724.07985","1195490.59761","1196240.65658","1197006.86486","1197773.78423","1198540.35826","1199306.76719","1200073.69028","1200850.05672"
"Blocked","Female","done","24","F_gnash.wav","None","728.866453981","110","1193957.3398","1200841.04435","1201606.97468","1202373.73514","1188523.90381","1189290.42899","1190057.707","1190824.39017","1194724.07985","1195490.59761","1196240.65658","1197006.86486","1197773.78423","1198540.35826","1199306.76719","1200073.69028","1201616.23531"
"Blocked","Female","done","24","F_jaw.wav","None","728.402695619","110","1193957.3398","1200841.04435","1201606.97468","1202373.73514","1203140.02349","1189290.42899","1190057.707","1190824.39017","1194724.07985","1195490.59761","1196240.65658","1197006.86486","1197773.78423","1198540.35826","1199306.76719","1200073.69028","1202383.04586"
"Blocked","Female","done","24","F_done.wav","None","728.658071952","110","1193957.3398","1200841.04435","1201606.97468","1202373.73514","1203140.02349","1203906.79168","1190057.707","1190824.39017","1194724.07985","1195490.59761","1196240.65658","1197006.86486","1197773.78423","1198540.35826","1199306.76719","1200073.69028","1203148.83459"
"Blocked","Female","done","24","F_tile.wav","space","470.749677857","110","1193957.3398","1200841.04435","1201606.97468","1202373.73514","1203140.02349","1203906.79168","1204673.55647","1190824.39017","1194724.07985","1195490.59761","1196240.65658","1197006.86486","1197773.78423","1198540.35826","1199306.76719","1200073.69028","1203916.08354"
"Blocked","Female","done","24","F_ball.wav","None","725.311282324","110","1193957.3398","1200841.04435","1201606.97468","1202373.73514","1203140.02349","1203906.79168","1204673.55647","1205440.08536","1194724.07985","1195490.59761","1196240.65658","1197006.86486","1197773.78423","1198540.35826","1199306.76719","1200073.69028","1204683.01126"
"Blocked","Female","tile","14","F_reek.wav","None","724.704068038","110","1208573.81286","1200841.04435","1201606.97468","1202373.73514","1203140.02349","1203906.79168","1204673.55647","1205440.08536","1194724.07985","1195490.59761","1196240.65658","1197006.86486","1197773.78423","1198540.35826","1199306.76719","1200073.69028","1205449.38866"
"Blocked","Female","tile","14","F_tile.wav","None","721.284004743","110","1208573.81286","1200841.04435","1201606.97468","1202373.73514","1203140.02349","1203906.79168","1204673.55647","1205440.08536","1209340.42245","1195490.59761","1196240.65658","1197006.86486","1197773.78423","1198540.35826","1199306.76719","1200073.69028","1208583.92898"
"Blocked","Female","tile","14","F_cave.wav","space","524.759904481","110","1208573.81286","1200841.04435","1201606.97468","1202373.73514","1203140.02349","1203906.79168","1204673.55647","1205440.08536","1209340.42245","1210107.25278","1196240.65658","1197006.86486","1197773.78423","1198540.35826","1199306.76719","1200073.69028","1209349.99226"
"Blocked","Female","tile","14","F_romp.wav","None","719.018699718","110","1208573.81286","1200841.04435","1201606.97468","1202373.73514","1203140.02349","1203906.79168","1204673.55647","1205440.08536","1209340.42245","1210107.25278","1210856.69063","1197006.86486","1197773.78423","1198540.35826","1199306.76719","1200073.69028","1210116.9175"
"Blocked","Female","tile","14","F_greet.wav","None","735.851273406","110","1208573.81286","1200841.04435","1201606.97468","1202373.73514","1203140.02349","1203906.79168","1204673.55647","1205440.08536","1209340.42245","1210107.25278","1210856.69063","1211623.26435","1197773.78423","1198540.35826","1199306.76719","1200073.69028","1210865.91169"
"Blocked","Female","tile","14","F_tile.wav","None","735.036913538","110","1208573.81286","1200841.04435","1201606.97468","1202373.73514","1203140.02349","1203906.79168","1204673.55647","1205440.08536","1209340.42245","1210107.25278","1210856.69063","1211623.26435","1212389.81333","1198540.35826","1199306.76719","1200073.69028","1211632.89475"
"Blocked","Female","tile","14","F_bluff.wav","space","483.561775531","110","1208573.81286","1200841.04435","1201606.97468","1202373.73514","1203140.02349","1203906.79168","1204673.55647","1205440.08536","1209340.42245","1210107.25278","1210856.69063","1211623.26435","1212389.81333","1213156.4427","1199306.76719","1200073.69028","1212399.12776"
"Blocked","Female","tile","14","F_bluff.wav","None","733.521351242","110","1208573.81286","1200841.04435","1201606.97468","1202373.73514","1203140.02349","1203906.79168","1204673.55647","1205440.08536","1209340.42245","1210107.25278","1210856.69063","1211623.26435","1212389.81333","1213156.4427","1213923.37011","1200073.69028","1213165.72343"
"Blocked","Female","tile","14","F_tile.wav","None","732.77129943","110","1208573.81286","1200841.04435","1201606.97468","1202373.73514","1203140.02349","1203906.79168","1204673.55647","1205440.08536","1209340.42245","1210107.25278","1210856.69063","1211623.26435","1212389.81333","1213156.4427","1213923.37011","1214690.00103","1213932.72288"
"Blocked","Female","tile","14","F_cling.wav","space","535.343488795","110","1208573.81286","1215456.72686","1201606.97468","1202373.73514","1203140.02349","1203906.79168","1204673.55647","1205440.08536","1209340.42245","1210107.25278","1210856.69063","1211623.26435","1212389.81333","1213156.4427","1213923.37011","1214690.00103","1214699.31824"
"Blocked","Female","tile","14","F_romp.wav","None","729.599501356","110","1208573.81286","1215456.72686","1216223.37416","1202373.73514","1203140.02349","1203906.79168","1204673.55647","1205440.08536","1209340.42245","1210107.25278","1210856.69063","1211623.26435","1212389.81333","1213156.4427","1213923.37011","1214690.00103","1215466.78454"
"Blocked","Female","tile","14","F_gnash.wav","None","729.89816172","110","1208573.81286","1215456.72686","1216223.37416","1216989.89501","1203140.02349","1203906.79168","1204673.55647","1205440.08536","1209340.42245","1210107.25278","1210856.69063","1211623.26435","1212389.81333","1213156.4427","1213923.37011","1214690.00103","1216232.75971"
"Blocked","Female","tile","14","F_priest.wav","None","729.797989945","110","1208573.81286","1215456.72686","1216223.37416","1216989.89501","1217756.64898","1203906.79168","1204673.55647","1205440.08536","1209340.42245","1210107.25278","1210856.69063","1211623.26435","1212389.81333","1213156.4427","1213923.37011","1214690.00103","1216999.25242"
"Blocked","Female","tile","14","F_tile.wav","None","729.18428306","110","1208573.81286","1215456.72686","1216223.37416","1216989.89501","1217756.64898","1218523.2295","1204673.55647","1205440.08536","1209340.42245","1210107.25278","1210856.69063","1211623.26435","1212389.81333","1213156.4427","1213923.37011","1214690.00103","1217766.16005"
"Blocked","Female","tile","14","F_gnash.wav","space","597.558219451","110","1208573.81286","1215456.72686","1216223.37416","1216989.89501","1217756.64898","1218523.2295","1219289.917","1205440.08536","1209340.42245","1210107.25278","1210856.69063","1211623.26435","1212389.81333","1213156.4427","1213923.37011","1214690.00103","1218532.94926"
"Blocked","Female","tile","14","F_done.wav","None","727.409943473","110","1208573.81286","1215456.72686","1216223.37416","1216989.89501","1217756.64898","1218523.2295","1219289.917","1220056.25915","1209340.42245","1210107.25278","1210856.69063","1211623.26435","1212389.81333","1213156.4427","1213923.37011","1214690.00103","1219299.26544"
"Blocked","Female","tile","13","F_ball.wav","None","727.291839779","110","1223190.25749","1215456.72686","1216223.37416","1216989.89501","1217756.64898","1218523.2295","1219289.917","1220056.25915","1209340.42245","1210107.25278","1210856.69063","1211623.26435","1212389.81333","1213156.4427","1213923.37011","1214690.00103","1220065.57636"
"Blocked","Female","tile","13","F_romp.wav","None","721.513410448","110","1223190.25749","1215456.72686","1216223.37416","1216989.89501","1217756.64898","1218523.2295","1219289.917","1220056.25915","1223956.88037","1210107.25278","1210856.69063","1211623.26435","1212389.81333","1213156.4427","1213923.37011","1214690.00103","1223199.85172"
"Blocked","Female","tile","13","F_greet.wav","None","720.675553777","110","1223190.25749","1215456.72686","1216223.37416","1216989.89501","1217756.64898","1218523.2295","1219289.917","1220056.25915","1223956.88037","1224723.57744","1210856.69063","1211623.26435","1212389.81333","1213156.4427","1213923.37011","1214690.00103","1223967.05584"
"Blocked","Female","tile","13","F_gnash.wav","None","720.511074062","110","1223190.25749","1215456.72686","1216223.37416","1216989.89501","1217756.64898","1218523.2295","1219289.917","1220056.25915","1223956.88037","1224723.57744","1225490.05099","1211623.26435","1212389.81333","1213156.4427","1213923.37011","1214690.00103","1224733.53495"
"Blocked","Female","tile","13","F_tile.wav","None","720.886409166","110","1223190.25749","1215456.72686","1216223.37416","1216989.89501","1217756.64898","1218523.2295","1219289.917","1220056.25915","1223956.88037","1224723.57744","1225490.05099","1226256.78363","1212389.81333","1213156.4427","1213923.37011","1214690.00103","1225499.6038"
"Blocked","Female","tile","13","F_lash.wav","space","543.92178182","110","1223190.25749","1215456.72686","1216223.37416","1216989.89501","1217756.64898","1218523.2295","1219289.917","1220056.25915","1223956.88037","1224723.57744","1225490.05099","1226256.78363","1227006.3065","1213156.4427","1213923.37011","1214690.00103","1226266.45639"
"Blocked","Female","tile","13","F_reek.wav","None","735.186862177","110","1223190.25749","1215456.72686","1216223.37416","1216989.89501","1217756.64898","1218523.2295","1219289.917","1220056.25915","1223956.88037","1224723.57744","1225490.05099","1226256.78363","1227006.3065","1227772.84713","1213923.37011","1214690.00103","1227016.20372"
"Blocked","Female","tile","13","F_knife.wav","None","735.761613352","110","1223190.25749","1215456.72686","1216223.37416","1216989.89501","1217756.64898","1218523.2295","1219289.917","1220056.25915","1223956.88037","1224723.57744","1225490.05099","1226256.78363","1227006.3065","1227772.84713","1228539.46939","1214690.00103","1227782.11921"
"Blocked","Female","tile","13","F_tile.wav","None","735.528497491","110","1223190.25749","1215456.72686","1216223.37416","1216989.89501","1217756.64898","1218523.2295","1219289.917","1220056.25915","1223956.88037","1224723.57744","1225490.05099","1226256.78363","1227006.3065","1227772.84713","1228539.46939","1229306.16462","1228548.67129"
"Blocked","Female","tile","13","F_lash.wav","space","542.773207068","110","1223190.25749","1230073.08492","1216223.37416","1216989.89501","1217756.64898","1218523.2295","1219289.917","1220056.25915","1223956.88037","1224723.57744","1225490.05099","1226256.78363","1227006.3065","1227772.84713","1228539.46939","1229306.16462","1229315.52666"
"Blocked","Female","tile","13","F_tile.wav","None","732.383597409","110","1223190.25749","1230073.08492","1230839.40821","1216989.89501","1217756.64898","1218523.2295","1219289.917","1220056.25915","1223956.88037","1224723.57744","1225490.05099","1226256.78363","1227006.3065","1227772.84713","1228539.46939","1229306.16462","1230082.78056"
"Blocked","Female","tile","13","F_cad.wav","space","641.877751448","110","1223190.25749","1230073.08492","1230839.40821","1231606.37025","1217756.64898","1218523.2295","1219289.917","1220056.25915","1223956.88037","1224723.57744","1225490.05099","1226256.78363","1227006.3065","1227772.84713","1228539.46939","1229306.16462","1230848.39801"
"Blocked","Female","tile","13","F_ball.wav","None","723.555493169","110","1223190.25749","1230073.08492","1230839.40821","1231606.37025","1232373.08217","1218523.2295","1219289.917","1220056.25915","1223956.88037","1224723.57744","1225490.05099","1226256.78363","1227006.3065","1227772.84713","1228539.46939","1229306.16462","1231622.51151"
"Blocked","Female","tile","13","F_tile.wav","None","729.864462046","110","1223190.25749","1230073.08492","1230839.40821","1231606.37025","1232373.08217","1233139.36588","1219289.917","1220056.25915","1223956.88037","1224723.57744","1225490.05099","1226256.78363","1227006.3065","1227772.84713","1228539.46939","1229306.16462","1232382.56572"
"Blocked","Female","tile","13","F_ball.wav","space","541.832086747","110","1223190.25749","1230073.08492","1230839.40821","1231606.37025","1232373.08217","1233139.36588","1233906.30411","1220056.25915","1223956.88037","1224723.57744","1225490.05099","1226256.78363","1227006.3065","1227772.84713","1228539.46939","1229306.16462","1233148.43545"
"Blocked","Female","tile","13","F_cling.wav","None","728.311180603","110","1223190.25749","1230073.08492","1230839.40821","1231606.37025","1232373.08217","1233139.36588","1233906.30411","1234672.88216","1223956.88037","1224723.57744","1225490.05099","1226256.78363","1227006.3065","1227772.84713","1228539.46939","1229306.16462","1233915.39502"
"Blocked","Female","ball","6","F_cave.wav","None","728.153811884","110","1237806.50455","1230073.08492","1230839.40821","1231606.37025","1232373.08217","1233139.36588","1233906.30411","1234672.88216","1223956.88037","1224723.57744","1225490.05099","1226256.78363","1227006.3065","1227772.84713","1228539.46939","1229306.16462","1234682.52401"
"Blocked","Female","ball","6","F_ball.wav","None","721.62594914","110","1237806.50455","1230073.08492","1230839.40821","1231606.37025","1232373.08217","1233139.36588","1233906.30411","1234672.88216","1238573.35529","1224723.57744","1225490.05099","1226256.78363","1227006.3065","1227772.84713","1228539.46939","1229306.16462","1237816.23389"
"Blocked","Female","ball","6","F_greet.wav","space","395.14562476","110","1237806.50455","1230073.08492","1230839.40821","1231606.37025","1232373.08217","1233139.36588","1233906.30411","1234672.88216","1238573.35529","1239340.39308","1225490.05099","1226256.78363","1227006.3065","1227772.84713","1228539.46939","1229306.16462","1238582.98075"
"Blocked","Female","ball","6","F_reek.wav","None","718.176514492","110","1237806.50455","1230073.08492","1230839.40821","1231606.37025","1232373.08217","1233139.36588","1233906.30411","1234672.88216","1238573.35529","1239340.39308","1240089.75672","1226256.78363","1227006.3065","1227772.84713","1228539.46939","1229306.16462","1239350.24918"
"Blocked","Female","ball","6","F_ball.wav","None","735.161819262","110","1237806.50455","1230073.08492","1230839.40821","1231606.37025","1232373.08217","1233139.36588","1233906.30411","1234672.88216","1238573.35529","1239340.39308","1240089.75672","1240855.99653","1227006.3065","1227772.84713","1228539.46939","1229306.16462","1240099.60942"
