"Condition","Talker","Target","Trial","current_stimulus","response_response","response_time_response","subject_nr","time_Audio1","time_Audio10","time_Audio11","time_Audio12","time_Audio13","time_Audio14","time_Audio15","time_Audio16","time_Audio2","time_Audio3","time_Audio4","time_Audio5","time_Audio6","time_Audio7","time_Audio8","time_Audio9","time_response","title"
"Mixed","Female","cave","21","M_depth.wav","NA","NA","208","20983.3588554","NA","NA","NA","NA","NA","NA","NA","NA","NA","NA","NA","NA","NA","NA","NA","NA","Mapping"
"Mixed","Female","cave","21","F_cad.wav","None","716.809302568","208","20983.3588554","NA","NA","NA","NA","NA","NA","NA","21750.532161","NA","NA","NA","NA","NA","NA","NA","20997.6033042","Mapping"
"Mixed","Female","cave","21","F_cave.wav","None","719.674702268","208","20983.3588554","NA","NA","NA","NA","NA","NA","NA","21750.532161","22501.4912877","NA","NA","NA","NA","NA","NA","21760.1622283","Mapping"
"Mixed","Female","cave","21","F_knife.wav","space","574.269590899","208","20983.3588554","NA","NA","NA","NA","NA","NA","NA","21750.532161","22501.4912877","23267.9470065","NA","NA","NA","NA","NA","22511.0808532","Mapping"
"Mixed","Female","cave","21","F_cave.wav","None","733.705513645","208","20983.3588554","NA","NA","NA","NA","NA","NA","NA","21750.532161","22501.4912877","23267.9470065","24035.4242278","NA","NA","NA","NA","23277.02644","Mapping"
"Mixed","Female","cave","21","M_ball.wav","None","731.00397503","208","20983.3588554","NA","NA","NA","NA","NA","NA","NA","21750.532161","22501.4912877","23267.9470065","24035.4242278","24802.4179046","NA","NA","NA","24045.428392","Mapping"
"Mixed","Female","cave","21","M_priest.wav","None","729.91260048","208","20983.3588554","NA","NA","NA","NA","NA","NA","NA","21750.532161","22501.4912877","23267.9470065","24035.4242278","24802.4179046","25569.7284825","NA","NA","24812.0179824","Mapping"
"Mixed","Female","cave","21","F_greet.wav","None","728.578526061","208","20983.3588554","NA","NA","NA","NA","NA","NA","NA","21750.532161","22501.4912877","23267.9470065","24035.4242278","24802.4179046","25569.7284825","26337.0164908","NA","25578.8740786","Mapping"
"Mixed","Female","cave","21","F_cave.wav","None","726.757507306","208","20983.3588554","NA","NA","NA","NA","NA","NA","NA","21750.532161","22501.4912877","23267.9470065","24035.4242278","24802.4179046","25569.7284825","26337.0164908","27104.2989339","26346.3871633","Mapping"
"Mixed","Female","cave","21","M_dime.wav","space","451.885063667","208","20983.3588554","27871.605183","NA","NA","NA","NA","NA","NA","21750.532161","22501.4912877","23267.9470065","24035.4242278","24802.4179046","25569.7284825","26337.0164908","27104.2989339","27113.3950623","Mapping"
"Mixed","Female","cave","21","M_depth.wav","None","723.69794827","208","20983.3588554","27871.605183","28638.7995123","NA","NA","NA","NA","NA","21750.532161","22501.4912877","23267.9470065","24035.4242278","24802.4179046","25569.7284825","26337.0164908","27104.2989339","27881.0887034","Mapping"
"Mixed","Female","cave","21","M_jaw.wav","None","722.057794686","208","20983.3588554","27871.605183","28638.7995123","29405.8333817","NA","NA","NA","NA","21750.532161","22501.4912877","23267.9470065","24035.4242278","24802.4179046","25569.7284825","26337.0164908","27104.2989339","28648.1151525","Mapping"
"Mixed","Female","cave","21","F_cave.wav","None","720.267383382","208","20983.3588554","27871.605183","28638.7995123","29405.8333817","30156.7207808","NA","NA","NA","21750.532161","22501.4912877","23267.9470065","24035.4242278","24802.4179046","25569.7284825","26337.0164908","27104.2989339","29415.3629686","Mapping"
"Mixed","Female","cave","21","M_reek.wav","space","503.251090646","208","20983.3588554","27871.605183","28638.7995123","29405.8333817","30156.7207808","30923.8276146","NA","NA","21750.532161","22501.4912877","23267.9470065","24035.4242278","24802.4179046","25569.7284825","26337.0164908","27104.2989339","30165.9381045","Mapping"
"Mixed","Female","cave","21","F_knife.wav","None","733.853606507","208","20983.3588554","27871.605183","28638.7995123","29405.8333817","30156.7207808","30923.8276146","31691.1728196","NA","21750.532161","22501.4912877","23267.9470065","24035.4242278","24802.4179046","25569.7284825","26337.0164908","27104.2989339","30933.3238108","Mapping"
"Mixed","Female","cave","21","M_romp.wav","None","732.593115419","208","20983.3588554","27871.605183","28638.7995123","29405.8333817","30156.7207808","30923.8276146","31691.1728196","32458.2873825","21750.532161","22501.4912877","23267.9470065","24035.4242278","24802.4179046","25569.7284825","26337.0164908","27104.2989339","31700.2485427","Mapping"
"Mixed","Female","cave","24","F_romp.wav","None","731.253167149","208","35611.1710388","27871.605183","28638.7995123","29405.8333817","30156.7207808","30923.8276146","31691.1728196","32458.2873825","21750.532161","22501.4912877","23267.9470065","24035.4242278","24802.4179046","25569.7284825","26337.0164908","27104.2989339","32467.6156985","Mapping"
"Mixed","Female","cave","24","M_knife.wav","None","722.306059208","208","35611.1710388","27871.605183","28638.7995123","29405.8333817","30156.7207808","30923.8276146","31691.1728196","32458.2873825","36377.7123983","22501.4912877","23267.9470065","24035.4242278","24802.4179046","25569.7284825","26337.0164908","27104.2989339","35620.1601936","Mapping"
"Mixed","Female","cave","24","M_lash.wav","None","720.789573621","208","35611.1710388","27871.605183","28638.7995123","29405.8333817","30156.7207808","30923.8276146","31691.1728196","32458.2873825","36377.7123983","37128.3221613","23267.9470065","24035.4242278","24802.4179046","25569.7284825","26337.0164908","27104.2989339","36387.1983918","Mapping"
"Mixed","Female","cave","24","F_cave.wav","None","741.782922763","208","35611.1710388","27871.605183","28638.7995123","29405.8333817","30156.7207808","30923.8276146","31691.1728196","32458.2873825","36377.7123983","37128.3221613","37895.7115775","24035.4242278","24802.4179046","25569.7284825","26337.0164908","27104.2989339","37131.9410112","Mapping"
"Mixed","Female","cave","24","M_jolt.wav","space","476.261055563","208","35611.1710388","27871.605183","28638.7995123","29405.8333817","30156.7207808","30923.8276146","31691.1728196","32458.2873825","36377.7123983","37128.3221613","37895.7115775","38662.9763981","24802.4179046","25569.7284825","26337.0164908","27104.2989339","37904.7396886","Mapping"
"Mixed","Female","cave","24","M_gnash.wav","None","733.168483246","208","35611.1710388","27871.605183","28638.7995123","29405.8333817","30156.7207808","30923.8276146","31691.1728196","32458.2873825","36377.7123983","37128.3221613","37895.7115775","38662.9763981","39430.2069005","25569.7284825","26337.0164908","27104.2989339","38671.8428121","Mapping"
"Mixed","Female","cave","24","M_cad.wav","None","730.996245518","208","35611.1710388","27871.605183","28638.7995123","29405.8333817","30156.7207808","30923.8276146","31691.1728196","32458.2873825","36377.7123983","37128.3221613","37895.7115775","38662.9763981","39430.2069005","40197.4788317","26337.0164908","27104.2989339","39439.7386513","Mapping"
"Mixed","Female","cave","24","F_cave.wav","None","729.582095984","208","35611.1710388","27871.605183","28638.7995123","29405.8333817","30156.7207808","30923.8276146","31691.1728196","32458.2873825","36377.7123983","37128.3221613","37895.7115775","38662.9763981","39430.2069005","40197.4788317","40964.406346","27104.2989339","40206.6949187","Mapping"
"Mixed","Female","cave","24","F_dime.wav","space","622.873790096","208","35611.1710388","27871.605183","28638.7995123","29405.8333817","30156.7207808","30923.8276146","31691.1728196","32458.2873825","36377.7123983","37128.3221613","37895.7115775","38662.9763981","39430.2069005","40197.4788317","40964.406346","41731.5079239","40974.0286842","Mapping"
"Mixed","Female","cave","24","M_reek.wav","None","726.64496908","208","35611.1710388","42498.8818821","28638.7995123","29405.8333817","30156.7207808","30923.8276146","31691.1728196","32458.2873825","36377.7123983","37128.3221613","37895.7115775","38662.9763981","39430.2069005","40197.4788317","40964.406346","41731.5079239","41740.5972509","Mapping"
"Mixed","Female","cave","24","F_cave.wav","None","725.197428837","208","35611.1710388","42498.8818821","43266.1658707","29405.8333817","30156.7207808","30923.8276146","31691.1728196","32458.2873825","36377.7123983","37128.3221613","37895.7115775","38662.9763981","39430.2069005","40197.4788317","40964.406346","41731.5079239","42507.9508033","Mapping"
"Mixed","Female","cave","24","F_depth.wav","space","705.395935569","208","35611.1710388","42498.8818821","43266.1658707","44033.4946895","30156.7207808","30923.8276146","31691.1728196","32458.2873825","36377.7123983","37128.3221613","37895.7115775","38662.9763981","39430.2069005","40197.4788317","40964.406346","41731.5079239","43275.4972787","Mapping"
"Mixed","Female","cave","24","M_priest.wav","None","721.055770759","208","35611.1710388","42498.8818821","43266.1658707","44033.4946895","44800.5044437","30923.8276146","31691.1728196","32458.2873825","36377.7123983","37128.3221613","37895.7115775","38662.9763981","39430.2069005","40197.4788317","40964.406346","41731.5079239","44043.006035","Mapping"
"Mixed","Female","cave","24","F_cave.wav","None","719.762506895","208","35611.1710388","42498.8818821","43266.1658707","44033.4946895","44800.5044437","45551.00476","31691.1728196","32458.2873825","36377.7123983","37128.3221613","37895.7115775","38662.9763981","39430.2069005","40197.4788317","40964.406346","41731.5079239","44810.0003307","Mapping"
"Mixed","Female","cave","24","F_lash.wav","space","564.31365665","208","35611.1710388","42498.8818821","43266.1658707","44033.4946895","44800.5044437","45551.00476","46318.503005","32458.2873825","36377.7123983","37128.3221613","37895.7115775","38662.9763981","39430.2069005","40197.4788317","40964.406346","41731.5079239","45560.5213614","Mapping"
"Mixed","Female","cave","24","M_done.wav","None","732.933512889","208","35611.1710388","42498.8818821","43266.1658707","44033.4946895","44800.5044437","45551.00476","46318.503005","47085.1095994","36377.7123983","37128.3221613","37895.7115775","38662.9763981","39430.2069005","40197.4788317","40964.406346","41731.5079239","46327.6550933","Mapping"
"Mixed","Male","cave","13","F_jolt.wav","None","731.812767219","208","50221.3576762","42498.8818821","43266.1658707","44033.4946895","44800.5044437","45551.00476","46318.503005","47085.1095994","36377.7123983","37128.3221613","37895.7115775","38662.9763981","39430.2069005","40197.4788317","40964.406346","41731.5079239","47094.4045251","Mapping"
"Mixed","Male","cave","13","F_knife.wav","None","721.998743247","208","50221.3576762","42498.8818821","43266.1658707","44033.4946895","44800.5044437","45551.00476","46318.503005","47085.1095994","50988.4441048","37128.3221613","37895.7115775","38662.9763981","39430.2069005","40197.4788317","40964.406346","41731.5079239","50230.850162","Mapping"
"Mixed","Male","cave","13","M_cave.wav","None","720.447630621","208","50221.3576762","42498.8818821","43266.1658707","44033.4946895","44800.5044437","45551.00476","46318.503005","47085.1095994","50988.4441048","51738.9110303","37895.7115775","38662.9763981","39430.2069005","40197.4788317","40964.406346","41731.5079239","50998.0531484","Mapping"
"Mixed","Male","cave","13","F_tile.wav","space","576.359588187","208","50221.3576762","42498.8818821","43266.1658707","44033.4946895","44800.5044437","45551.00476","46318.503005","47085.1095994","50988.4441048","51738.9110303","52506.2639648","38662.9763981","39430.2069005","40197.4788317","40964.406346","41731.5079239","51748.3061277","Mapping"
"Mixed","Male","cave","13","M_gnash.wav","None","734.161541332","208","50221.3576762","42498.8818821","43266.1658707","44033.4946895","44800.5044437","45551.00476","46318.503005","47085.1095994","50988.4441048","51738.9110303","52506.2639648","53273.7606633","39430.2069005","40197.4788317","40964.406346","41731.5079239","52515.4080149","Mapping"
"Mixed","Male","cave","13","F_cad.wav","None","731.914484408","208","50221.3576762","42498.8818821","43266.1658707","44033.4946895","44800.5044437","45551.00476","46318.503005","47085.1095994","50988.4441048","51738.9110303","52506.2639648","53273.7606633","54040.6683912","40197.4788317","40964.406346","41731.5079239","53283.3088003","Mapping"
"Mixed","Male","cave","13","M_priest.wav","None","731.212047394","208","50221.3576762","42498.8818821","43266.1658707","44033.4946895","44800.5044437","45551.00476","46318.503005","47085.1095994","50988.4441048","51738.9110303","52506.2639648","53273.7606633","54040.6683912","54808.0253443","40964.406346","41731.5079239","54049.9948519","Mapping"
"Mixed","Male","cave","13","M_cave.wav","None","729.183574207","208","50221.3576762","42498.8818821","43266.1658707","44033.4946895","44800.5044437","45551.00476","46318.503005","47085.1095994","50988.4441048","51738.9110303","52506.2639648","53273.7606633","54040.6683912","54808.0253443","55575.4963821","41731.5079239","54817.3851962","Mapping"
"Mixed","Male","cave","13","M_reek.wav","space","635.428308975","208","50221.3576762","42498.8818821","43266.1658707","44033.4946895","44800.5044437","45551.00476","46318.503005","47085.1095994","50988.4441048","51738.9110303","52506.2639648","53273.7606633","54040.6683912","54808.0253443","55575.4963821","56342.6260944","55585.1845737","Mapping"
"Mixed","Male","cave","13","M_cave.wav","None","725.655930117","208","50221.3576762","57110.5899513","43266.1658707","44033.4946895","44800.5044437","45551.00476","46318.503005","47085.1095994","50988.4441048","51738.9110303","52506.2639648","53273.7606633","54040.6683912","54808.0253443","55575.4963821","56342.6260944","56352.0623115","Mapping"
"Mixed","Male","cave","13","M_dime.wav","space","676.880758256","208","50221.3576762","57110.5899513","57877.1681022","44033.4946895","44800.5044437","45551.00476","46318.503005","47085.1095994","50988.4441048","51738.9110303","52506.2639648","53273.7606633","54040.6683912","54808.0253443","55575.4963821","56342.6260944","57119.639704","Mapping"
"Mixed","Male","cave","13","F_cad.wav","None","714.456509333","208","50221.3576762","57110.5899513","57877.1681022","58644.1283887","44800.5044437","45551.00476","46318.503005","47085.1095994","50988.4441048","51738.9110303","52506.2639648","53273.7606633","54040.6683912","54808.0253443","55575.4963821","56342.6260944","57894.7231569","Mapping"
"Mixed","Male","cave","13","F_tile.wav","None","721.17634723","208","50221.3576762","57110.5899513","57877.1681022","58644.1283887","59411.5638719","45551.00476","46318.503005","47085.1095994","50988.4441048","51738.9110303","52506.2639648","53273.7606633","54040.6683912","54808.0253443","55575.4963821","56342.6260944","58653.6598303","Mapping"
"Mixed","Male","cave","13","F_romp.wav","None","719.650277868","208","50221.3576762","57110.5899513","57877.1681022","58644.1283887","59411.5638719","60162.0292519","46318.503005","47085.1095994","50988.4441048","51738.9110303","52506.2639648","53273.7606633","54040.6683912","54808.0253443","55575.4963821","56342.6260944","59420.9756642","Mapping"
"Mixed","Male","cave","13","M_cave.wav","None","735.249515157","208","50221.3576762","57110.5899513","57877.1681022","58644.1283887","59411.5638719","60162.0292519","60929.3129314","47085.1095994","50988.4441048","51738.9110303","52506.2639648","53273.7606633","54040.6683912","54808.0253443","55575.4963821","56342.6260944","60171.2502856","Mapping"
"Mixed","Male","cave","13","F_greet.wav","space","633.378194179","208","50221.3576762","57110.5899513","57877.1681022","58644.1283887","59411.5638719","60162.0292519","60929.3129314","61696.4853099","50988.4441048","51738.9110303","52506.2639648","53273.7606633","54040.6683912","54808.0253443","55575.4963821","56342.6260944","60939.064194","Mapping"
"Mixed","Female","done","46","F_dime.wav","None","731.548116542","208","64832.0655762","57110.5899513","57877.1681022","58644.1283887","59411.5638719","60162.0292519","60929.3129314","61696.4853099","50988.4441048","51738.9110303","52506.2639648","53273.7606633","54040.6683912","54808.0253443","55575.4963821","56342.6260944","61705.7218021","Mapping"
"Mixed","Female","done","46","F_priest.wav","None","720.969202463","208","64832.0655762","57110.5899513","57877.1681022","58644.1283887","59411.5638719","60162.0292519","60929.3129314","61696.4853099","65599.9988248","51738.9110303","52506.2639648","53273.7606633","54040.6683912","54808.0253443","55575.4963821","56342.6260944","64842.5134015","Mapping"
"Mixed","Female","done","46","F_done.wav","None","719.520735089","208","64832.0655762","57110.5899513","57877.1681022","58644.1283887","59411.5638719","60162.0292519","60929.3129314","61696.4853099","65599.9988248","66350.1905883","52506.2639648","53273.7606633","54040.6683912","54808.0253443","55575.4963821","56342.6260944","65609.8221242","Mapping"
"Mixed","Female","done","46","M_lash.wav","space","668.408846948","208","64832.0655762","57110.5899513","57877.1681022","58644.1283887","59411.5638719","60162.0292519","60929.3129314","61696.4853099","65599.9988248","66350.1905883","67116.9727924","53273.7606633","54040.6683912","54808.0253443","55575.4963821","56342.6260944","66359.9347398","Mapping"
"Mixed","Female","done","46","M_bluff.wav","None","733.894417528","208","64832.0655762","57110.5899513","57877.1681022","58644.1283887","59411.5638719","60162.0292519","60929.3129314","61696.4853099","65599.9988248","66350.1905883","67116.9727924","67884.0802447","54040.6683912","54808.0253443","55575.4963821","56342.6260944","67126.4637327","Mapping"
"Mixed","Female","done","46","M_depth.wav","None","733.11963398","208","64832.0655762","57110.5899513","57877.1681022","58644.1283887","59411.5638719","60162.0292519","60929.3129314","61696.4853099","65599.9988248","66350.1905883","67116.9727924","67884.0802447","68651.4038076","54808.0253443","55575.4963821","56342.6260944","67893.4456613","Mapping"
"Mixed","Female","done","46","M_park.wav","None","731.849558651","208","64832.0655762","57110.5899513","57877.1681022","58644.1283887","59411.5638719","60162.0292519","60929.3129314","61696.4853099","65599.9988248","66350.1905883","67116.9727924","67884.0802447","68651.4038076","69418.6442033","55575.4963821","56342.6260944","68660.4986992","Mapping"
"Mixed","Female","done","46","F_tile.wav","None","730.079552624","208","64832.0655762","57110.5899513","57877.1681022","58644.1283887","59411.5638719","60162.0292519","60929.3129314","61696.4853099","65599.9988248","66350.1905883","67116.9727924","67884.0802447","68651.4038076","69418.6442033","70186.0608268","56342.6260944","69427.9644811","Mapping"
"Mixed","Female","done","46","F_done.wav","None","727.511576377","208","64832.0655762","57110.5899513","57877.1681022","58644.1283887","59411.5638719","60162.0292519","60929.3129314","61696.4853099","65599.9988248","66350.1905883","67116.9727924","67884.0802447","68651.4038076","69418.6442033","70186.0608268","70953.3268837","70196.384056","Mapping"
"Mixed","Female","done","46","M_cling.wav","space","448.859513737","208","64832.0655762","71720.5839748","57877.1681022","58644.1283887","59411.5638719","60162.0292519","60929.3129314","61696.4853099","65599.9988248","66350.1905883","67116.9727924","67884.0802447","68651.4038076","69418.6442033","70186.0608268","70953.3268837","70963.3403234","Mapping"
"Mixed","Female","done","46","F_done.wav","None","724.909281824","208","64832.0655762","71720.5839748","72487.7421311","58644.1283887","59411.5638719","60162.0292519","60929.3129314","61696.4853099","65599.9988248","66350.1905883","67116.9727924","67884.0802447","68651.4038076","69418.6442033","70186.0608268","70953.3268837","71730.3522415","Mapping"
"Mixed","Female","done","46","M_greet.wav","space","595.165550243","208","64832.0655762","71720.5839748","72487.7421311","73254.8165019","59411.5638719","60162.0292519","60929.3129314","61696.4853099","65599.9988248","66350.1905883","67116.9727924","67884.0802447","68651.4038076","69418.6442033","70186.0608268","70953.3268837","72496.96131","Mapping"
"Mixed","Female","done","46","F_done.wav","None","722.455698065","208","64832.0655762","71720.5839748","72487.7421311","73254.8165019","74022.1208963","60162.0292519","60929.3129314","61696.4853099","65599.9988248","66350.1905883","67116.9727924","67884.0802447","68651.4038076","69418.6442033","70186.0608268","70953.3268837","73263.9011913","Mapping"
"Mixed","Female","done","46","M_jaw.wav","space","484.899610747","208","64832.0655762","71720.5839748","72487.7421311","73254.8165019","74022.1208963","74788.9587511","60929.3129314","61696.4853099","65599.9988248","66350.1905883","67116.9727924","67884.0802447","68651.4038076","69418.6442033","70186.0608268","70953.3268837","74039.180968","Mapping"
"Mixed","Female","done","46","M_greet.wav","None","720.670852344","208","64832.0655762","71720.5839748","72487.7421311","73254.8165019","74022.1208963","74788.9587511","75539.7481429","61696.4853099","65599.9988248","66350.1905883","67116.9727924","67884.0802447","68651.4038076","69418.6442033","70186.0608268","70953.3268837","74798.1838039","Mapping"
"Mixed","Female","done","46","F_knife.wav","None","735.492832959","208","64832.0655762","71720.5839748","72487.7421311","73254.8165019","74022.1208963","74788.9587511","75539.7481429","76307.1131348","65599.9988248","66350.1905883","67116.9727924","67884.0802447","68651.4038076","69418.6442033","70186.0608268","70953.3268837","75549.2038373","Mapping"
"Mixed","Male","done","39","M_romp.wav","None","733.973874245","208","79443.165815","71720.5839748","72487.7421311","73254.8165019","74022.1208963","74788.9587511","75539.7481429","76307.1131348","65599.9988248","66350.1905883","67116.9727924","67884.0802447","68651.4038076","69418.6442033","70186.0608268","70953.3268837","76316.5258546","Mapping"
"Mixed","Male","done","39","M_done.wav","None","721.225196496","208","79443.165815","71720.5839748","72487.7421311","73254.8165019","74022.1208963","74788.9587511","75539.7481429","76307.1131348","80210.0519002","66350.1905883","67116.9727924","67884.0802447","68651.4038076","69418.6442033","70186.0608268","70953.3268837","79452.9501586","Mapping"
"Mixed","Male","done","39","M_jolt.wav","space","688.78694484","208","79443.165815","71720.5839748","72487.7421311","73254.8165019","74022.1208963","74788.9587511","75539.7481429","76307.1131348","80210.0519002","80960.433186","67116.9727924","67884.0802447","68651.4038076","69418.6442033","70186.0608268","70953.3268837","80219.1761634","Mapping"
"Mixed","Male","done","39","F_jolt.wav","None","735.290634912","208","79443.165815","71720.5839748","72487.7421311","73254.8165019","74022.1208963","74788.9587511","75539.7481429","76307.1131348","80210.0519002","80960.433186","81727.7193391","67884.0802447","68651.4038076","69418.6442033","70186.0608268","70953.3268837","80970.0759291","Mapping"
"Mixed","Male","done","39","M_done.wav","None","734.248728026","208","79443.165815","71720.5839748","72487.7421311","73254.8165019","74022.1208963","74788.9587511","75539.7481429","76307.1131348","80210.0519002","80960.433186","81727.7193391","82494.9594256","68651.4038076","69418.6442033","70186.0608268","70953.3268837","81737.0420899","Mapping"
"Mixed","Male","done","39","F_reek.wav","space","555.527318269","208","79443.165815","71720.5839748","72487.7421311","73254.8165019","74022.1208963","74788.9587511","75539.7481429","76307.1131348","80210.0519002","80960.433186","81727.7193391","82494.9594256","83262.5702089","69418.6442033","70186.0608268","70953.3268837","82504.4077002","Mapping"
"Mixed","Male","done","39","M_dime.wav","None","729.990511667","208","79443.165815","71720.5839748","72487.7421311","73254.8165019","74022.1208963","74788.9587511","75539.7481429","76307.1131348","80210.0519002","80960.433186","81727.7193391","82494.9594256","83262.5702089","84029.9772481","70186.0608268","70953.3268837","83272.3935079","Mapping"
"Mixed","Male","done","39","F_greet.wav","None","728.844104335","208","79443.165815","71720.5839748","72487.7421311","73254.8165019","74022.1208963","74788.9587511","75539.7481429","76307.1131348","80210.0519002","80960.433186","81727.7193391","82494.9594256","83262.5702089","84029.9772481","84797.0067891","70953.3268837","84039.4799365","Mapping"
"Mixed","Male","done","39","F_depth.wav","None","727.524252143","208","79443.165815","71720.5839748","72487.7421311","73254.8165019","74022.1208963","74788.9587511","75539.7481429","76307.1131348","80210.0519002","80960.433186","81727.7193391","82494.9594256","83262.5702089","84029.9772481","84797.0067891","85563.9318302","84806.531738","Mapping"
"Mixed","Male","done","39","F_tile.wav","None","725.474446546","208","79443.165815","86331.3200097","72487.7421311","73254.8165019","74022.1208963","74788.9587511","75539.7481429","76307.1131348","80210.0519002","80960.433186","81727.7193391","82494.9594256","83262.5702089","84029.9772481","84797.0067891","85563.9318302","85574.6257557","Mapping"
"Mixed","Male","done","39","M_done.wav","None","725.030476227","208","79443.165815","86331.3200097","87098.5155758","73254.8165019","74022.1208963","74788.9587511","75539.7481429","76307.1131348","80210.0519002","80960.433186","81727.7193391","82494.9594256","83262.5702089","84029.9772481","84797.0067891","85563.9318302","86340.771067","Mapping"
"Mixed","Male","done","39","F_jolt.wav","space","512.030628044","208","79443.165815","86331.3200097","87098.5155758","87865.8864419","74022.1208963","74788.9587511","75539.7481429","76307.1131348","80210.0519002","80960.433186","81727.7193391","82494.9594256","83262.5702089","84029.9772481","84797.0067891","85563.9318302","87107.7768016","Mapping"
"Mixed","Male","done","39","M_cling.wav","None","722.482905257","208","79443.165815","86331.3200097","87098.5155758","87865.8864419","88632.8346706","74788.9587511","75539.7481429","76307.1131348","80210.0519002","80960.433186","81727.7193391","82494.9594256","83262.5702089","84029.9772481","84797.0067891","85563.9318302","87875.5529914","Mapping"
"Mixed","Male","done","39","F_jolt.wav","None","721.943401266","208","79443.165815","86331.3200097","87098.5155758","87865.8864419","88632.8346706","89400.2414006","75539.7481429","76307.1131348","80210.0519002","80960.433186","81727.7193391","82494.9594256","83262.5702089","84029.9772481","84797.0067891","85563.9318302","88641.986141","Mapping"
"Mixed","Male","done","39","M_done.wav","None","719.242790248","208","79443.165815","86331.3200097","87098.5155758","87865.8864419","88632.8346706","89400.2414006","90150.8391062","76307.1131348","80210.0519002","80960.433186","81727.7193391","82494.9594256","83262.5702089","84029.9772481","84797.0067891","85563.9318302","89410.5504081","Mapping"
"Mixed","Male","done","39","F_knife.wav","space","579.241374042","208","79443.165815","86331.3200097","87098.5155758","87865.8864419","88632.8346706","89400.2414006","90150.8391062","90917.9490316","80210.0519002","80960.433186","81727.7193391","82494.9594256","83262.5702089","84029.9772481","84797.0067891","85563.9318302","90160.4803037","Mapping"
"Mixed","Male","tile","27","F_reek.wav","None","733.351822011","208","94053.7710702","86331.3200097","87098.5155758","87865.8864419","88632.8346706","89400.2414006","90150.8391062","90917.9490316","80210.0519002","80960.433186","81727.7193391","82494.9594256","83262.5702089","84029.9772481","84797.0067891","85563.9318302","90927.8428219","Mapping"
"Mixed","Male","tile","27","F_cave.wav","None","721.564975567","208","94053.7710702","86331.3200097","87098.5155758","87865.8864419","88632.8346706","89400.2414006","90150.8391062","90917.9490316","94821.0195047","80960.433186","81727.7193391","82494.9594256","83262.5702089","84029.9772481","84797.0067891","85563.9318302","94063.2675756","Mapping"
"Mixed","Male","tile","27","M_ball.wav","None","720.987753011","208","94053.7710702","86331.3200097","87098.5155758","87865.8864419","88632.8346706","89400.2414006","90150.8391062","90917.9490316","94821.0195047","95588.2877256","81727.7193391","82494.9594256","83262.5702089","84029.9772481","84797.0067891","85563.9318302","94830.475199","Mapping"
"Mixed","Male","tile","27","M_tile.wav","None","719.338015188","208","94053.7710702","86331.3200097","87098.5155758","87865.8864419","88632.8346706","89400.2414006","90150.8391062","90917.9490316","94821.0195047","95588.2877256","96339.2616925","82494.9594256","83262.5702089","84029.9772481","84797.0067891","85563.9318302","95598.295291","Mapping"
"Mixed","Male","tile","27","F_dime.wav","space","558.872860391","208","94053.7710702","86331.3200097","87098.5155758","87865.8864419","88632.8346706","89400.2414006","90150.8391062","90917.9490316","94821.0195047","95588.2877256","96339.2616925","97105.6663985","83262.5702089","84029.9772481","84797.0067891","85563.9318302","96348.7504688","Mapping"
"Mixed","Male","tile","27","F_jolt.wav","None","734.164942522","208","94053.7710702","86331.3200097","87098.5155758","87865.8864419","88632.8346706","89400.2414006","90150.8391062","90917.9490316","94821.0195047","95588.2877256","96339.2616925","97105.6663985","97873.2512109","84029.9772481","84797.0067891","85563.9318302","97114.8274527","Mapping"
"Mixed","Male","tile","27","M_tile.wav","None","731.585217174","208","94053.7710702","86331.3200097","87098.5155758","87865.8864419","88632.8346706","89400.2414006","90150.8391062","90917.9490316","94821.0195047","95588.2877256","96339.2616925","97105.6663985","97873.2512109","98640.4848052","84797.0067891","85563.9318302","97883.6137052","Mapping"
"Mixed","Male","tile","27","F_bluff.wav","space","553.428354207","208","94053.7710702","86331.3200097","87098.5155758","87865.8864419","88632.8346706","89400.2414006","90150.8391062","90917.9490316","94821.0195047","95588.2877256","96339.2616925","97105.6663985","97873.2512109","98640.4848052","99407.5786537","85563.9318302","98650.1297127","Mapping"
"Mixed","Male","tile","27","F_jaw.wav","None","730.114180129","208","94053.7710702","86331.3200097","87098.5155758","87865.8864419","88632.8346706","89400.2414006","90150.8391062","90917.9490316","94821.0195047","95588.2877256","96339.2616925","97105.6663985","97873.2512109","98640.4848052","99407.5786537","100175.115236","99416.7038444","Mapping"
"Mixed","Male","tile","27","M_tile.wav","None","728.118788917","208","94053.7710702","100942.154361","87098.5155758","87865.8864419","88632.8346706","89400.2414006","90150.8391062","90917.9490316","94821.0195047","95588.2877256","96339.2616925","97105.6663985","97873.2512109","98640.4848052","99407.5786537","100175.115236","100184.92524","Mapping"
"Mixed","Male","tile","27","F_cave.wav","space","516.17197739","208","94053.7710702","100942.154361","101709.557999","87865.8864419","88632.8346706","89400.2414006","90150.8391062","90917.9490316","94821.0195047","95588.2877256","96339.2616925","97105.6663985","97873.2512109","98640.4848052","99407.5786537","100175.115236","100951.312633","Mapping"
"Mixed","Male","tile","27","M_cling.wav","None","725.752391387","208","94053.7710702","100942.154361","101709.557999","102476.539","88632.8346706","89400.2414006","90150.8391062","90917.9490316","94821.0195047","95588.2877256","96339.2616925","97105.6663985","97873.2512109","98640.4848052","99407.5786537","100175.115236","101718.795728","Mapping"
"Mixed","Male","tile","27","M_jaw.wav","None","724.729652982","208","94053.7710702","100942.154361","101709.557999","102476.539","103244.052703","89400.2414006","90150.8391062","90917.9490316","94821.0195047","95588.2877256","96339.2616925","97105.6663985","97873.2512109","98640.4848052","99407.5786537","100175.115236","102485.849075","Mapping"
"Mixed","Male","tile","27","M_bluff.wav","None","721.550444607","208","94053.7710702","100942.154361","101709.557999","102476.539","103244.052703","104011.115635","90150.8391062","90917.9490316","94821.0195047","95588.2877256","96339.2616925","97105.6663985","97873.2512109","98640.4848052","99407.5786537","100175.115236","103254.590189","Mapping"
"Mixed","Male","tile","27","M_tile.wav","None","721.240963787","208","94053.7710702","100942.154361","101709.557999","102476.539","103244.052703","104011.115635","104778.213503","90917.9490316","94821.0195047","95588.2877256","96339.2616925","97105.6663985","97873.2512109","98640.4848052","99407.5786537","100175.115236","104021.087337","Mapping"
"Mixed","Male","tile","27","F_gnash.wav","space","463.489498943","208","94053.7710702","100942.154361","101709.557999","102476.539","103244.052703","104011.115635","104778.213503","105529.067511","94821.0195047","95588.2877256","96339.2616925","97105.6663985","97873.2512109","98640.4848052","99407.5786537","100175.115236","104787.887473","Mapping"
"Mixed","Female","tile","32","M_priest.wav","None","735.757483635","208","108681.01005","100942.154361","101709.557999","102476.539","103244.052703","104011.115635","104778.213503","105529.067511","94821.0195047","95588.2877256","96339.2616925","97105.6663985","97873.2512109","98640.4848052","99407.5786537","100175.115236","105538.627088","Mapping"
"Mixed","Female","tile","32","M_priest.wav","None","722.036461812","208","108681.01005","100942.154361","101709.557999","102476.539","103244.052703","104011.115635","104778.213503","105529.067511","109448.921348","95588.2877256","96339.2616925","97105.6663985","97873.2512109","98640.4848052","99407.5786537","100175.115236","108690.45245","Mapping"
"Mixed","Female","tile","32","M_lash.wav","None","720.45443207","208","108681.01005","100942.154361","101709.557999","102476.539","103244.052703","104011.115635","104778.213503","105529.067511","109448.921348","110215.348932","96339.2616925","97105.6663985","97873.2512109","98640.4848052","99407.5786537","100175.115236","109458.263886","Mapping"
"Mixed","Female","tile","32","F_lash.wav","None","720.497716218","208","108681.01005","100942.154361","101709.557999","102476.539","103244.052703","104011.115635","104778.213503","105529.067511","109448.921348","110215.348932","110966.017128","97105.6663985","97873.2512109","98640.4848052","99407.5786537","100175.115236","110224.479997","Mapping"
"Mixed","Female","tile","32","F_tile.wav","None","734.686823096","208","108681.01005","100942.154361","101709.557999","102476.539","103244.052703","104011.115635","104778.213503","105529.067511","109448.921348","110215.348932","110966.017128","111733.301736","97873.2512109","98640.4848052","99407.5786537","100175.115236","110976.556778","Mapping"
"Mixed","Female","tile","32","M_cad.wav","space","500.189676881","208","108681.01005","100942.154361","101709.557999","102476.539","103244.052703","104011.115635","104778.213503","105529.067511","109448.921348","110215.348932","110966.017128","111733.301736","112500.75546","98640.4848052","99407.5786537","100175.115236","111743.073403","Mapping"
"Mixed","Female","tile","32","M_reek.wav","None","732.514585834","208","108681.01005","100942.154361","101709.557999","102476.539","103244.052703","104011.115635","104778.213503","105529.067511","109448.921348","110215.348932","110966.017128","111733.301736","112500.75546","113267.759958","99407.5786537","100175.115236","112510.16045","Mapping"
"Mixed","Female","tile","32","F_tile.wav","None","731.878929771","208","108681.01005","100942.154361","101709.557999","102476.539","103244.052703","104011.115635","104778.213503","105529.067511","109448.921348","110215.348932","110966.017128","111733.301736","112500.75546","113267.759958","114035.234087","100175.115236","113276.977282","Mapping"
"Mixed","Female","tile","32","M_reek.wav","space","542.501931544","208","108681.01005","100942.154361","101709.557999","102476.539","103244.052703","104011.115635","104778.213503","105529.067511","109448.921348","110215.348932","110966.017128","111733.301736","112500.75546","113267.759958","114035.234087","114802.211069","114044.656392","Mapping"
"Mixed","Female","tile","32","F_done.wav","None","729.007965419","208","108681.01005","115569.743323","101709.557999","102476.539","103244.052703","104011.115635","104778.213503","105529.067511","109448.921348","110215.348932","110966.017128","111733.301736","112500.75546","113267.759958","114035.234087","114802.211069","114812.048899","Mapping"
"Mixed","Female","tile","32","M_jaw.wav","None","728.557193186","208","108681.01005","115569.743323","116336.659089","102476.539","103244.052703","104011.115635","104778.213503","105529.067511","109448.921348","110215.348932","110966.017128","111733.301736","112500.75546","113267.759958","114035.234087","114802.211069","115578.982598","Mapping"
"Mixed","Female","tile","32","F_tile.wav","None","727.655649651","208","108681.01005","115569.743323","116336.659089","117103.929165","103244.052703","104011.115635","104778.213503","105529.067511","109448.921348","110215.348932","110966.017128","111733.301736","112500.75546","113267.759958","114035.234087","114802.211069","116346.047693","Mapping"
"Mixed","Female","tile","32","M_bluff.wav","space","497.609023936","208","108681.01005","115569.743323","116336.659089","117103.929165","117871.159667","104011.115635","104778.213503","105529.067511","109448.921348","110215.348932","110966.017128","111733.301736","112500.75546","113267.759958","114035.234087","114802.211069","117113.482249","Mapping"
"Mixed","Female","tile","32","F_dime.wav","None","725.181661546","208","108681.01005","115569.743323","116336.659089","117103.929165","117871.159667","118638.715109","104778.213503","105529.067511","109448.921348","110215.348932","110966.017128","111733.301736","112500.75546","113267.759958","114035.234087","114802.211069","117880.801174","Mapping"
"Mixed","Female","tile","32","F_tile.wav","None","723.923952784","208","108681.01005","115569.743323","116336.659089","117103.929165","117871.159667","118638.715109","119405.6587","105529.067511","109448.921348","110215.348932","110966.017128","111733.301736","112500.75546","113267.759958","114035.234087","114802.211069","118648.317041","Mapping"
"Mixed","Female","tile","32","F_romp.wav","space","540.313617326","208","108681.01005","115569.743323","116336.659089","117103.929165","117871.159667","118638.715109","119405.6587","120173.178587","109448.921348","110215.348932","110966.017128","111733.301736","112500.75546","113267.759958","114035.234087","114802.211069","119414.722984","Mapping"
"Mixed","Female","ball","7","M_reek.wav","None","720.931174699","208","123292.027121","115569.743323","116336.659089","117103.929165","117871.159667","118638.715109","119405.6587","120173.178587","109448.921348","110215.348932","110966.017128","111733.301736","112500.75546","113267.759958","114035.234087","114802.211069","120182.77279","Mapping"
"Mixed","Female","ball","7","M_cave.wav","None","721.489846706","208","123292.027121","115569.743323","116336.659089","117103.929165","117871.159667","118638.715109","119405.6587","120173.178587","124059.492903","110215.348932","110966.017128","111733.301736","112500.75546","113267.759958","114035.234087","114802.211069","123301.602466","Mapping"
"Mixed","Female","ball","7","M_bluff.wav","None","720.12392804","208","123292.027121","115569.743323","116336.659089","117103.929165","117871.159667","118638.715109","119405.6587","120173.178587","124059.492903","124810.281986","110966.017128","111733.301736","112500.75546","113267.759958","114035.234087","114802.211069","124069.083397","Mapping"
"Mixed","Female","ball","7","F_dime.wav","None","735.46933569","208","123292.027121","115569.743323","116336.659089","117103.929165","117871.159667","118638.715109","119405.6587","120173.178587","124059.492903","124810.281986","125576.965564","111733.301736","112500.75546","113267.759958","114035.234087","114802.211069","124819.672136","Mapping"
"Mixed","Female","ball","7","F_greet.wav","None","735.176859889","208","123292.027121","115569.743323","116336.659089","117103.929165","117871.159667","118638.715109","119405.6587","120173.178587","124059.492903","124810.281986","125576.965564","126344.204105","112500.75546","113267.759958","114035.234087","114802.211069","125586.187216","Mapping"
"Mixed","Female","ball","7","F_ball.wav","None","733.555565588","208","123292.027121","115569.743323","116336.659089","117103.929165","117871.159667","118638.715109","119405.6587","120173.178587","124059.492903","124810.281986","125576.965564","126344.204105","127111.378338","113267.759958","114035.234087","114802.211069","126354.033588","Mapping"
"Mixed","Female","ball","7","M_tile.wav","space","409.929592628","208","123292.027121","115569.743323","116336.659089","117103.929165","117871.159667","118638.715109","119405.6587","120173.178587","124059.492903","124810.281986","125576.965564","126344.204105","127111.378338","127878.895133","114035.234087","114802.211069","127120.952445","Mapping"
"Mixed","Female","ball","7","M_depth.wav","None","729.617651086","208","123292.027121","115569.743323","116336.659089","117103.929165","117871.159667","118638.715109","119405.6587","120173.178587","124059.492903","124810.281986","125576.965564","126344.204105","127111.378338","127878.895133","128646.508698","114802.211069","127889.033478","Mapping"
"Mixed","Female","ball","7","F_ball.wav","None","728.542971425","208","123292.027121","115569.743323","116336.659089","117103.929165","117871.159667","118638.715109","119405.6587","120173.178587","124059.492903","124810.281986","125576.965564","126344.204105","127111.378338","127878.895133","128646.508698","129413.375616","128656.18947","Mapping"
"Mixed","Female","ball","7","M_greet.wav","space","436.199876945","208","123292.027121","130180.434528","116336.659089","117103.929165","117871.159667","118638.715109","119405.6587","120173.178587","124059.492903","124810.281986","125576.965564","126344.204105","127111.378338","127878.895133","128646.508698","129413.375616","129422.634986","Mapping"
"Mixed","Female","ball","7","F_ball.wav","None","727.107180282","208","123292.027121","130180.434528","130947.509826","117103.929165","117871.159667","118638.715109","119405.6587","120173.178587","124059.492903","124810.281986","125576.965564","126344.204105","127111.378338","127878.895133","128646.508698","129413.375616","130189.374215","Mapping"
"Mixed","Female","ball","7","F_tile.wav","space","565.239315387","208","123292.027121","130180.434528","130947.509826","131714.936652","117871.159667","118638.715109","119405.6587","120173.178587","124059.492903","124810.281986","125576.965564","126344.204105","127111.378338","127878.895133","128646.508698","129413.375616","130957.524193","Mapping"
"Mixed","Female","ball","7","F_jolt.wav","None","723.553256132","208","123292.027121","130180.434528","130947.509826","131714.936652","132482.267017","118638.715109","119405.6587","120173.178587","124059.492903","124810.281986","125576.965564","126344.204105","127111.378338","127878.895133","128646.508698","129413.375616","131724.839099","Mapping"
"Mixed","Female","ball","7","M_knife.wav","None","722.758994903","208","123292.027121","130180.434528","130947.509826","131714.936652","132482.267017","133249.294084","119405.6587","120173.178587","124059.492903","124810.281986","125576.965564","126344.204105","127111.378338","127878.895133","128646.508698","129413.375616","132491.833395","Mapping"
"Mixed","Female","ball","7","F_ball.wav","None","722.03831654","208","123292.027121","130180.434528","130947.509826","131714.936652","132482.267017","133249.294084","134016.39288","120173.178587","124059.492903","124810.281986","125576.965564","126344.204105","127111.378338","127878.895133","128646.508698","129413.375616","133258.775131","Mapping"
"Mixed","Female","ball","7","M_priest.wav","space","408.338597044","208","123292.027121","130180.434528","130947.509826","131714.936652","132482.267017","133249.294084","134016.39288","134767.036033","124059.492903","124810.281986","125576.965564","126344.204105","127111.378338","127878.895133","128646.508698","129413.375616","134026.33892","Mapping"
"Mixed","Male","tile","26","F_gnash.wav","None","735.991835594","208","137902.708433","130180.434528","130947.509826","131714.936652","132482.267017","133249.294084","134016.39288","134767.036033","124059.492903","124810.281986","125576.965564","126344.204105","127111.378338","127878.895133","128646.508698","129413.375616","134776.558509","Mapping"
"Mixed","Male","tile","26","M_tile.wav","None","506.837787107","208","137902.708433","130180.434528","130947.509826","131714.936652","132482.267017","133249.294084","134016.39288","134767.036033","138669.710767","124810.281986","125576.965564","126344.204105","127111.378338","127878.895133","128646.508698","129413.375616","138127.164933","Mapping"
"Mixed","Male","tile","26","F_reek.wav","space","531.832739711","208","137902.708433","130180.434528","130947.509826","131714.936652","132482.267017","133249.294084","134016.39288","134767.036033","138669.710767","139437.186752","125576.965564","126344.204105","127111.378338","127878.895133","128646.508698","129413.375616","138678.727438","Mapping"
"Mixed","Male","tile","26","M_tile.wav","None","719.354091678","208","137902.708433","130180.434528","130947.509826","131714.936652","132482.267017","133249.294084","134016.39288","134767.036033","138669.710767","139437.186752","140187.559689","126344.204105","127111.378338","127878.895133","128646.508698","129413.375616","139447.334062","Mapping"
"Mixed","Male","tile","26","F_cling.wav","space","525.697235484","208","137902.708433","130180.434528","130947.509826","131714.936652","132482.267017","133249.294084","134016.39288","134767.036033","138669.710767","139437.186752","140187.559689","140954.648282","127111.378338","127878.895133","128646.508698","129413.375616","140196.843484","Mapping"
"Mixed","Male","tile","26","F_cad.wav","None","734.612931497","208","137902.708433","130180.434528","130947.509826","131714.936652","132482.267017","133249.294084","134016.39288","134767.036033","138669.710767","139437.186752","140187.559689","140954.648282","141722.230312","127878.895133","128646.508698","129413.375616","140963.822631","Mapping"
"Mixed","Male","tile","26","F_romp.wav","None","733.205274213","208","137902.708433","130180.434528","130947.509826","131714.936652","132482.267017","133249.294084","134016.39288","134767.036033","138669.710767","139437.186752","140187.559689","140954.648282","141722.230312","142489.593449","128646.508698","129413.375616","141731.568522","Mapping"
"Mixed","Male","tile","26","F_depth.wav","None","732.065050863","208","137902.708433","130180.434528","130947.509826","131714.936652","132482.267017","133249.294084","134016.39288","134767.036033","138669.710767","139437.186752","140187.559689","140954.648282","141722.230312","142489.593449","143256.579088","129413.375616","142499.172194","Mapping"
"Mixed","Male","tile","26","M_romp.wav","None","731.336025055","208","137902.708433","130180.434528","130947.509826","131714.936652","132482.267017","133249.294084","134016.39288","134767.036033","138669.710767","139437.186752","140187.559689","140954.648282","141722.230312","142489.593449","143256.579088","144023.925838","143266.310563","Mapping"
"Mixed","Male","tile","26","M_tile.wav","None","730.494151358","208","137902.708433","144791.557027","130947.509826","131714.936652","132482.267017","133249.294084","134016.39288","134767.036033","138669.710767","139437.186752","140187.559689","140954.648282","141722.230312","142489.593449","143256.579088","144023.925838","144033.611247","Mapping"
"Mixed","Male","tile","26","F_lash.wav","space","449.255871121","208","137902.708433","144791.557027","145558.512985","131714.936652","132482.267017","133249.294084","134016.39288","134767.036033","138669.710767","139437.186752","140187.559689","140954.648282","141722.230312","142489.593449","143256.579088","144023.925838","144801.171635","Mapping"
"Mixed","Male","tile","26","M_park.wav","None","722.662533633","208","137902.708433","144791.557027","145558.512985","146325.52614","132482.267017","133249.294084","134016.39288","134767.036033","138669.710767","139437.186752","140187.559689","140954.648282","141722.230312","142489.593449","143256.579088","144023.925838","145573.288899","Mapping"
"Mixed","Male","tile","26","F_priest.wav","None","727.180453949","208","137902.708433","144791.557027","145558.512985","146325.52614","147092.862379","133249.294084","134016.39288","134767.036033","138669.710767","139437.186752","140187.559689","140954.648282","141722.230312","142489.593449","143256.579088","144023.925838","146334.892484","Mapping"
"Mixed","Male","tile","26","M_tile.wav","None","726.579115726","208","137902.708433","144791.557027","145558.512985","146325.52614","147092.862379","147860.059181","134016.39288","134767.036033","138669.710767","139437.186752","140187.559689","140954.648282","141722.230312","142489.593449","143256.579088","144023.925838","147102.460911","Mapping"
"Mixed","Male","tile","26","M_depth.wav","space","460.856905673","208","137902.708433","144791.557027","145558.512985","146325.52614","147092.862379","147860.059181","148627.258766","134767.036033","138669.710767","139437.186752","140187.559689","140954.648282","141722.230312","142489.593449","143256.579088","144023.925838","147869.518277","Mapping"
"Mixed","Male","tile","26","M_bluff.wav","None","723.805848975","208","137902.708433","144791.557027","145558.512985","146325.52614","147092.862379","147860.059181","148627.258766","149394.395899","138669.710767","139437.186752","140187.559689","140954.648282","141722.230312","142489.593449","143256.579088","144023.925838","148637.180692","Mapping"
"Mixed","Female","cave","23","M_cling.wav","None","723.07435004","208","152530.323056","144791.557027","145558.512985","146325.52614","147092.862379","147860.059181","148627.258766","149394.395899","138669.710767","139437.186752","140187.559689","140954.648282","141722.230312","142489.593449","143256.579088","144023.925838","149404.446439","Mapping"
"Mixed","Female","cave","23","F_gnash.wav","None","722.041408531","208","152530.323056","144791.557027","145558.512985","146325.52614","147092.862379","147860.059181","148627.258766","149394.395899","153297.308076","139437.186752","140187.559689","140954.648282","141722.230312","142489.593449","143256.579088","144023.925838","152539.397542","Mapping"
"Mixed","Female","cave","23","F_lash.wav","None","721.359995194","208","152530.323056","144791.557027","145558.512985","146325.52614","147092.862379","147860.059181","148627.258766","149394.395899","153297.308076","154064.527757","140187.559689","140954.648282","141722.230312","142489.593449","143256.579088","144023.925838","153306.510869","Mapping"
"Mixed","Female","cave","23","M_tile.wav","None","720.236466732","208","152530.323056","144791.557027","145558.512985","146325.52614","147092.862379","147860.059181","148627.258766","149394.395899","153297.308076","154064.527757","154815.085271","140954.648282","141722.230312","142489.593449","143256.579088","144023.925838","154074.298807","Mapping"
"Mixed","Female","cave","23","F_cave.wav","None","736.771565396","208","152530.323056","144791.557027","145558.512985","146325.52614","147092.862379","147860.059181","148627.258766","149394.395899","153297.308076","154064.527757","154815.085271","155582.317628","141722.230312","142489.593449","143256.579088","144023.925838","154824.03207","Mapping"
"Mixed","Female","cave","23","F_lash.wav","space","410.268444102","208","152530.323056","144791.557027","145558.512985","146325.52614","147092.862379","147860.059181","148627.258766","149394.395899","153297.308076","154064.527757","154815.085271","155582.317628","156349.766405","142489.593449","143256.579088","144023.925838","155591.929454","Mapping"
"Mixed","Female","cave","23","F_cave.wav","None","733.915131539","208","152530.323056","144791.557027","145558.512985","146325.52614","147092.862379","147860.059181","148627.258766","149394.395899","153297.308076","154064.527757","154815.085271","155582.317628","156349.766405","157116.796874","143256.579088","144023.925838","156359.135841","Mapping"
"Mixed","Female","cave","23","M_reek.wav","space","547.544206493","208","152530.323056","144791.557027","145558.512985","146325.52614","147092.862379","147860.059181","148627.258766","149394.395899","153297.308076","154064.527757","154815.085271","155582.317628","156349.766405","157116.796874","157884.416623","144023.925838","157126.564831","Mapping"
"Mixed","Female","cave","23","M_bluff.wav","None","730.489513837","208","152530.323056","144791.557027","145558.512985","146325.52614","147092.862379","147860.059181","148627.258766","149394.395899","153297.308076","154064.527757","154815.085271","155582.317628","156349.766405","157116.796874","157884.416623","158651.314148","157894.264656","Mapping"
"Mixed","Female","cave","23","M_romp.wav","None","730.173231568","208","152530.323056","159418.594427","145558.512985","146325.52614","147092.862379","147860.059181","148627.258766","149394.395899","153297.308076","154064.527757","154815.085271","155582.317628","156349.766405","157116.796874","157884.416623","158651.314148","158660.869705","Mapping"
"Mixed","Female","cave","23","F_cave.wav","None","729.134725407","208","152530.323056","159418.594427","160185.770206","146325.52614","147092.862379","147860.059181","148627.258766","149394.395899","153297.308076","154064.527757","154815.085271","155582.317628","156349.766405","157116.796874","157884.416623","158651.314148","159428.235933","Mapping"
"Mixed","Female","cave","23","M_jaw.wav","space","390.670385677","208","152530.323056","159418.594427","160185.770206","160953.159313","147092.862379","147860.059181","148627.258766","149394.395899","153297.308076","154064.527757","154815.085271","155582.317628","156349.766405","157116.796874","157884.416623","158651.314148","160195.37894","Mapping"
"Mixed","Female","cave","23","M_bluff.wav","None","726.201926358","208","152530.323056","159418.594427","160185.770206","160953.159313","161719.946464","147860.059181","148627.258766","149394.395899","153297.308076","154064.527757","154815.085271","155582.317628","156349.766405","157116.796874","157884.416623","158651.314148","160962.876567","Mapping"
"Mixed","Female","cave","23","F_cave.wav","None","726.383410394","208","152530.323056","159418.594427","160185.770206","160953.159313","161719.946464","162488.203724","148627.258766","149394.395899","153297.308076","154064.527757","154815.085271","155582.317628","156349.766405","157116.796874","157884.416623","158651.314148","161729.083712","Mapping"
"Mixed","Female","cave","23","M_dime.wav","space","488.082219847","208","152530.323056","159418.594427","160185.770206","160953.159313","161719.946464","162488.203724","163254.838762","149394.395899","153297.308076","154064.527757","154815.085271","155582.317628","156349.766405","157116.796874","157884.416623","158651.314148","162497.916649","Mapping"
"Mixed","Female","cave","23","F_park.wav","None","722.636254504","208","152530.323056","159418.594427","160185.770206","160953.159313","161719.946464","162488.203724","163254.838762","164022.128007","153297.308076","154064.527757","154815.085271","155582.317628","156349.766405","157116.796874","157884.416623","158651.314148","163264.746156","Mapping"
"Mixed","Male","cave","17","F_jaw.wav","None","721.749551129","208","167157.962413","159418.594427","160185.770206","160953.159313","161719.946464","162488.203724","163254.838762","164022.128007","153297.308076","154064.527757","154815.085271","155582.317628","156349.766405","157116.796874","157884.416623","158651.314148","164031.848352","Mapping"
"Mixed","Male","cave","17","M_cave.wav","None","721.94556566","208","167157.962413","159418.594427","160185.770206","160953.159313","161719.946464","162488.203724","163254.838762","164022.128007","167924.945887","154064.527757","154815.085271","155582.317628","156349.766405","157116.796874","157884.416623","158651.314148","167167.084511","Mapping"
"Mixed","Male","cave","17","F_park.wav","space","467.123807408","208","167157.962413","159418.594427","160185.770206","160953.159313","161719.946464","162488.203724","163254.838762","164022.128007","167924.945887","168675.567399","154815.085271","155582.317628","156349.766405","157116.796874","157884.416623","158651.314148","167934.724666","Mapping"
"Mixed","Male","cave","17","F_bluff.wav","None","735.943913925","208","167157.962413","159418.594427","160185.770206","160953.159313","161719.946464","162488.203724","163254.838762","164022.128007","167924.945887","168675.567399","169442.511608","155582.317628","156349.766405","157116.796874","157884.416623","158651.314148","168685.019074","Mapping"
"Mixed","Male","cave","17","M_tile.wav","None","735.331445467","208","167157.962413","159418.594427","160185.770206","160953.159313","161719.946464","162488.203724","163254.838762","164022.128007","167924.945887","168675.567399","169442.511608","170209.599583","156349.766405","157116.796874","157884.416623","158651.314148","169451.956791","Mapping"
"Mixed","Male","cave","17","F_ball.wav","None","734.930450562","208","167157.962413","159418.594427","160185.770206","160953.159313","161719.946464","162488.203724","163254.838762","164022.128007","167924.945887","168675.567399","169442.511608","170209.599583","170976.86935","157116.796874","157884.416623","158651.314148","170218.585955","Mapping"
"Mixed","Male","cave","17","M_priest.wav","None","733.515064232","208","167157.962413","159418.594427","160185.770206","160953.159313","161719.946464","162488.203724","163254.838762","164022.128007","167924.945887","168675.567399","169442.511608","170209.599583","170976.86935","171744.209299","157884.416623","158651.314148","170986.814772","Mapping"
"Mixed","Male","cave","17","F_gnash.wav","None","733.208057005","208","167157.962413","159418.594427","160185.770206","160953.159313","161719.946464","162488.203724","163254.838762","164022.128007","167924.945887","168675.567399","169442.511608","170209.599583","170976.86935","171744.209299","172511.949625","158651.314148","171753.645207","Mapping"
"Mixed","Male","cave","17","M_reek.wav","None","731.043548789","208","167157.962413","159418.594427","160185.770206","160953.159313","161719.946464","162488.203724","163254.838762","164022.128007","167924.945887","168675.567399","169442.511608","170209.599583","170976.86935","171744.209299","172511.949625","173278.812523","172521.913906","Mapping"
"Mixed","Male","cave","17","M_priest.wav","None","731.482572388","208","167157.962413","174046.142578","160185.770206","160953.159313","161719.946464","162488.203724","163254.838762","164022.128007","167924.945887","168675.567399","169442.511608","170209.599583","170976.86935","171744.209299","172511.949625","173278.812523","173288.086424","Mapping"
"Mixed","Male","cave","17","M_cave.wav","None","730.200129561","208","167157.962413","174046.142578","174813.333506","160953.159313","161719.946464","162488.203724","163254.838762","164022.128007","167924.945887","168675.567399","169442.511608","170209.599583","170976.86935","171744.209299","172511.949625","173278.812523","174055.760278","Mapping"
"Mixed","Male","cave","17","F_knife.wav","space","426.801688038","208","167157.962413","174046.142578","174813.333506","175580.653978","161719.946464","162488.203724","163254.838762","164022.128007","167924.945887","168675.567399","169442.511608","170209.599583","170976.86935","171744.209299","172511.949625","173278.812523","174822.898339","Mapping"
"Mixed","Male","cave","17","M_cave.wav","None","727.348642889","208","167157.962413","174046.142578","174813.333506","175580.653978","176347.780908","162488.203724","163254.838762","164022.128007","167924.945887","168675.567399","169442.511608","170209.599583","170976.86935","171744.209299","172511.949625","173278.812523","175590.441722","Mapping"
"Mixed","Male","cave","17","F_gnash.wav","space","588.708198629","208","167157.962413","174046.142578","174813.333506","175580.653978","176347.780908","177115.213299","163254.838762","164022.128007","167924.945887","168675.567399","169442.511608","170209.599583","170976.86935","171744.209299","172511.949625","173278.812523","176356.96515","Mapping"
"Mixed","Male","cave","17","M_cave.wav","None","724.995231256","208","167157.962413","174046.142578","174813.333506","175580.653978","176347.780908","177115.213299","177882.118553","164022.128007","167924.945887","168675.567399","169442.511608","170209.599583","170976.86935","171744.209299","172511.949625","173278.812523","177124.563257","Mapping"
"Mixed","Male","cave","17","F_dime.wav","space","550.014793873","208","167157.962413","174046.142578","174813.333506","175580.653978","176347.780908","177115.213299","177882.118553","178649.312573","167924.945887","168675.567399","169442.511608","170209.599583","170976.86935","171744.209299","172511.949625","173278.812523","177891.591252","Mapping"
"Mixed","Male","cave","18","M_priest.wav","None","722.726223059","208","181785.079579","174046.142578","174813.333506","175580.653978","176347.780908","177115.213299","177882.118553","178649.312573","167924.945887","168675.567399","169442.511608","170209.599583","170976.86935","171744.209299","172511.949625","173278.812523","178658.50609","Mapping"
"Mixed","Male","cave","18","F_knife.wav","None","721.884040162","208","181785.079579","174046.142578","174813.333506","175580.653978","176347.780908","177115.213299","177882.118553","178649.312573","182552.341308","168675.567399","169442.511608","170209.599583","170976.86935","171744.209299","172511.949625","173278.812523","181794.744274","Mapping"
"Mixed","Male","cave","18","F_ball.wav","None","721.367106307","208","181785.079579","174046.142578","174813.333506","175580.653978","176347.780908","177115.213299","177882.118553","178649.312573","182552.341308","183319.335912","169442.511608","170209.599583","170976.86935","171744.209299","172511.949625","173278.812523","182561.711362","Mapping"
"Mixed","Male","cave","18","M_cave.wav","None","720.672088675","208","181785.079579","174046.142578","174813.333506","175580.653978","176347.780908","177115.213299","177882.118553","178649.312573","182552.341308","183319.335912","184086.865383","170209.599583","170976.86935","171744.209299","172511.949625","173278.812523","183328.904145","Mapping"
"Mixed","Male","cave","18","F_romp.wav","space","542.385682929","208","181785.079579","174046.142578","174813.333506","175580.653978","176347.780908","177115.213299","177882.118553","178649.312573","182552.341308","183319.335912","184086.865383","184836.869789","170976.86935","171744.209299","172511.949625","173278.812523","184091.122981","Mapping"
"Mixed","Male","cave","18","M_cave.wav","None","734.447833616","208","181785.079579","174046.142578","174813.333506","175580.653978","176347.780908","177115.213299","177882.118553","178649.312573","182552.341308","183319.335912","184086.865383","184836.869789","185604.549517","171744.209299","172511.949625","173278.812523","184846.917547","Mapping"
"Mixed","Male","cave","18","M_lash.wav","space","571.031948552","208","181785.079579","174046.142578","174813.333506","175580.653978","176347.780908","177115.213299","177882.118553","178649.312573","182552.341308","183319.335912","184086.865383","184836.869789","185604.549517","186372.012826","172511.949625","173278.812523","185614.405898","Mapping"
"Mixed","Male","cave","18","F_lash.wav","None","732.2344766","208","181785.079579","174046.142578","174813.333506","175580.653978","176347.780908","177115.213299","177882.118553","178649.312573","182552.341308","183319.335912","184086.865383","184836.869789","185604.549517","186372.012826","187139.103273","173278.812523","186381.314244","Mapping"
"Mixed","Male","cave","18","M_jaw.wav","None","731.719397008","208","181785.079579","174046.142578","174813.333506","175580.653978","176347.780908","177115.213299","177882.118553","178649.312573","182552.341308","183319.335912","184086.865383","184836.869789","185604.549517","186372.012826","187139.103273","187906.415706","187148.573499","Mapping"
"Mixed","Male","cave","18","F_lash.wav","None","730.848771054","208","181785.079579","188673.996499","174813.333506","175580.653978","176347.780908","177115.213299","177882.118553","178649.312573","182552.341308","183319.335912","184086.865383","184836.869789","185604.549517","186372.012826","187139.103273","187906.415706","187916.014856","Mapping"
"Mixed","Male","cave","18","M_cave.wav","None","730.296591297","208","181785.079579","188673.996499","189440.909792","175580.653978","176347.780908","177115.213299","177882.118553","178649.312573","182552.341308","183319.335912","184086.865383","184836.869789","185604.549517","186372.012826","187139.103273","187906.415706","188683.124163","Mapping"
"Mixed","Male","cave","18","F_romp.wav","space","526.955871843","208","181785.079579","188673.996499","189440.909792","190208.014771","176347.780908","177115.213299","177882.118553","178649.312573","182552.341308","183319.335912","184086.865383","184836.869789","185604.549517","186372.012826","187139.103273","187906.415706","189450.431958","Mapping"
"Mixed","Male","cave","18","F_tile.wav","None","727.494262625","208","181785.079579","188673.996499","189440.909792","190208.014771","190975.252075","177115.213299","177882.118553","178649.312573","182552.341308","183319.335912","184086.865383","184836.869789","185604.549517","186372.012826","187139.103273","187906.415706","190217.9537","Mapping"
"Mixed","Male","cave","18","M_cave.wav","None","726.034664549","208","181785.079579","188673.996499","189440.909792","190208.014771","190975.252075","191742.321808","177882.118553","178649.312573","182552.341308","183319.335912","184086.865383","184836.869789","185604.549517","186372.012826","187139.103273","187906.415706","190985.740711","Mapping"
"Mixed","Male","cave","18","F_tile.wav","space","441.861730535","208","181785.079579","188673.996499","189440.909792","190208.014771","190975.252075","191742.321808","192509.854062","178649.312573","182552.341308","183319.335912","184086.865383","184836.869789","185604.549517","186372.012826","187139.103273","187906.415706","191751.456892","Mapping"
"Mixed","Male","cave","18","M_cad.wav","None","723.899527919","208","181785.079579","188673.996499","189440.909792","190208.014771","190975.252075","191742.321808","192509.854062","193276.815894","182552.341308","183319.335912","184086.865383","184836.869789","185604.549517","186372.012826","187139.103273","187906.415706","192519.852661","Mapping"
"Mixed","Male","tile","30","F_park.wav","None","723.873866722","208","196412.645971","188673.996499","189440.909792","190208.014771","190975.252075","191742.321808","192509.854062","193276.815894","182552.341308","183319.335912","184086.865383","184836.869789","185604.549517","186372.012826","187139.103273","187906.415706","193286.37949","Mapping"
"Mixed","Male","tile","30","F_lash.wav","None","721.273736097","208","196412.645971","188673.996499","189440.909792","190208.014771","190975.252075","191742.321808","192509.854062","193276.815894","197179.839682","183319.335912","184086.865383","184836.869789","185604.549517","186372.012826","187139.103273","187906.415706","196422.263981","Mapping"
"Mixed","Male","tile","30","M_tile.wav","None","721.17634723","208","196412.645971","188673.996499","189440.909792","190208.014771","190975.252075","191742.321808","192509.854062","193276.815894","197179.839682","197947.18736","184086.865383","184836.869789","185604.549517","186372.012826","187139.103273","187906.415706","197189.332168","Mapping"
"Mixed","Male","tile","30","F_cad.wav","space","492.125561927","208","196412.645971","188673.996499","189440.909792","190208.014771","190975.252075","191742.321808","192509.854062","193276.815894","197179.839682","197947.18736","198697.178472","184836.869789","185604.549517","186372.012826","187139.103273","187906.415706","197957.008186","Mapping"
"Mixed","Male","tile","30","F_bluff.wav","None","736.109629739","208","196412.645971","188673.996499","189440.909792","190208.014771","190975.252075","191742.321808","192509.854062","193276.815894","197179.839682","197947.18736","198697.178472","199464.676407","185604.549517","186372.012826","187139.103273","187906.415706","198706.757217","Mapping"
"Mixed","Male","tile","30","M_depth.wav","None","735.851780977","208","196412.645971","188673.996499","189440.909792","190208.014771","190975.252075","191742.321808","192509.854062","193276.815894","197179.839682","197947.18736","198697.178472","199464.676407","200232.10447","186372.012826","187139.103273","187906.415706","199473.891567","Mapping"
"Mixed","Male","tile","30","M_cad.wav","None","735.001868568","208","196412.645971","188673.996499","189440.909792","190208.014771","190975.252075","191742.321808","192509.854062","193276.815894","197179.839682","197947.18736","198697.178472","199464.676407","200232.10447","200999.262935","187139.103273","187906.415706","200241.291495","Mapping"
"Mixed","Male","tile","30","M_tile.wav","None","734.198951162","208","196412.645971","188673.996499","189440.909792","190208.014771","190975.252075","191742.321808","192509.854062","193276.815894","197179.839682","197947.18736","198697.178472","199464.676407","200232.10447","200999.262935","201766.774165","187906.415706","201008.858067","Mapping"
"Mixed","Male","tile","30","M_greet.wav","space","505.441260058","208","196412.645971","188673.996499","189440.909792","190208.014771","190975.252075","191742.321808","192509.854062","193276.815894","197179.839682","197947.18736","198697.178472","199464.676407","200232.10447","200999.262935","201766.774165","202533.531636","201775.642435","Mapping"
"Mixed","Male","tile","30","M_tile.wav","None","735.603206791","208","196412.645971","203300.982886","189440.909792","190208.014771","190975.252075","191742.321808","192509.854062","193276.815894","197179.839682","197947.18736","198697.178472","199464.676407","200232.10447","200999.262935","201766.774165","202533.531636","202542.951467","Mapping"
"Mixed","Male","tile","30","F_depth.wav","None","734.753913712","208","196412.645971","203300.982886","204067.92184","190208.014771","190975.252075","191742.321808","192509.854062","193276.815894","197179.839682","197947.18736","198697.178472","199464.676407","200232.10447","200999.262935","201766.774165","202533.531636","203310.634286","Mapping"
"Mixed","Male","tile","30","F_greet.wav","space","0.0392645597458","208","196412.645971","203300.982886","204067.92184","204835.407409","190975.252075","191742.321808","192509.854062","193276.815894","197179.839682","197947.18736","198697.178472","199464.676407","200232.10447","200999.262935","201766.774165","202533.531636","204077.522845","Mapping"
"Mixed","Male","tile","30","M_cave.wav","None","732.581985649","208","196412.645971","203300.982886","204067.92184","204835.407409","205602.337397","191742.321808","192509.854062","193276.815894","197179.839682","197947.18736","198697.178472","199464.676407","200232.10447","200999.262935","201766.774165","202533.531636","204845.090344","Mapping"
"Mixed","Male","tile","30","F_knife.wav","None","732.501910068","208","196412.645971","203300.982886","204067.92184","204835.407409","205602.337397","206370.005685","192509.854062","193276.815894","197179.839682","197947.18736","198697.178472","199464.676407","200232.10447","200999.262935","201766.774165","202533.531636","205611.815661","Mapping"
"Mixed","Male","tile","30","M_tile.wav","None","731.469586957","208","196412.645971","203300.982886","204067.92184","204835.407409","205602.337397","206370.005685","207137.486307","193276.815894","197179.839682","197947.18736","198697.178472","199464.676407","200232.10447","200999.262935","201766.774165","202533.531636","206379.695114","Mapping"
"Mixed","Male","tile","30","F_jaw.wav","space","397.977648769","208","196412.645971","203300.982886","204067.92184","204835.407409","205602.337397","206370.005685","207137.486307","207904.451541","197179.839682","197947.18736","198697.178472","199464.676407","200232.10447","200999.262935","201766.774165","202533.531636","207146.899955","Mapping"
"Mixed","Female","ball","11","F_done.wav","None","729.457500391","208","211039.901646","203300.982886","204067.92184","204835.407409","205602.337397","206370.005685","207137.486307","207904.451541","197179.839682","197947.18736","198697.178472","199464.676407","200232.10447","200999.262935","201766.774165","202533.531636","207914.370374","Mapping"
"Mixed","Female","ball","11","F_ball.wav","None","721.269716974","208","211039.901646","203300.982886","204067.92184","204835.407409","205602.337397","206370.005685","207137.486307","207904.451541","211807.301265","197947.18736","198697.178472","199464.676407","200232.10447","200999.262935","201766.774165","202533.531636","211049.681043","Mapping"
"Mixed","Female","ball","11","F_gnash.wav","space","471.667697653","208","211039.901646","203300.982886","204067.92184","204835.407409","205602.337397","206370.005685","207137.486307","207904.451541","211807.301265","212557.848576","198697.178472","199464.676407","200232.10447","200999.262935","201766.774165","202533.531636","211817.121473","Mapping"
"Mixed","Female","ball","11","F_ball.wav","None","735.279195942","208","211039.901646","203300.982886","204067.92184","204835.407409","205602.337397","206370.005685","207137.486307","207904.451541","211807.301265","212557.848576","213324.949536","199464.676407","200232.10447","200999.262935","201766.774165","202533.531636","212567.541405","Mapping"
"Mixed","Female","ball","11","F_done.wav","space","450.152158737","208","211039.901646","203300.982886","204067.92184","204835.407409","205602.337397","206370.005685","207137.486307","207904.451541","211807.301265","212557.848576","213324.949536","214092.382236","200232.10447","200999.262935","201766.774165","202533.531636","213334.657823","Mapping"
"Mixed","Female","ball","11","F_ball.wav","None","733.671504539","208","211039.901646","203300.982886","204067.92184","204835.407409","205602.337397","206370.005685","207137.486307","207904.451541","211807.301265","212557.848576","213324.949536","214092.382236","214859.644892","200999.262935","201766.774165","202533.531636","214101.624293","Mapping"
"Mixed","Female","ball","11","M_priest.wav","space","395.546943881","208","211039.901646","203300.982886","204067.92184","204835.407409","205602.337397","206370.005685","207137.486307","207904.451541","211807.301265","212557.848576","213324.949536","214092.382236","214859.644892","215626.79841","201766.774165","202533.531636","214869.235694","Mapping"
"Mixed","Female","ball","11","M_dime.wav","None","731.409916654","208","211039.901646","203300.982886","204067.92184","204835.407409","205602.337397","206370.005685","207137.486307","207904.451541","211807.301265","212557.848576","213324.949536","214092.382236","214859.644892","215626.79841","216393.773847","202533.531636","215636.016971","Mapping"
"Mixed","Female","ball","11","F_ball.wav","None","730.801776983","208","211039.901646","203300.982886","204067.92184","204835.407409","205602.337397","206370.005685","207137.486307","207904.451541","211807.301265","212557.848576","213324.949536","214092.382236","214859.644892","215626.79841","216393.773847","217161.360205","216403.300342","Mapping"
"Mixed","Female","ball","11","M_bluff.wav","space","381.410086993","208","211039.901646","217928.446634","204067.92184","204835.407409","205602.337397","206370.005685","207137.486307","207904.451541","211807.301265","212557.848576","213324.949536","214092.382236","214859.644892","215626.79841","216393.773847","217161.360205","217171.251522","Mapping"
"Mixed","Female","ball","11","M_done.wav","None","728.46907936","208","211039.901646","217928.446634","218695.822447","204835.407409","205602.337397","206370.005685","207137.486307","207904.451541","211807.301265","212557.848576","213324.949536","214092.382236","214859.644892","215626.79841","216393.773847","217161.360205","217938.346608","Mapping"
"Mixed","Female","ball","11","M_reek.wav","None","728.086016141","208","211039.901646","217928.446634","218695.822447","219463.059441","205602.337397","206370.005685","207137.486307","207904.451541","211807.301265","212557.848576","213324.949536","214092.382236","214859.644892","215626.79841","216393.773847","217161.360205","218705.458697","Mapping"
"Mixed","Female","ball","11","M_done.wav","None","727.457161993","208","211039.901646","217928.446634","218695.822447","219463.059441","220230.192864","206370.005685","207137.486307","207904.451541","211807.301265","212557.848576","213324.949536","214092.382236","214859.644892","215626.79841","216393.773847","217161.360205","219472.921387","Mapping"
"Mixed","Female","ball","11","F_cave.wav","None","727.24847123","208","211039.901646","217928.446634","218695.822447","219463.059441","220230.192864","220997.226733","207137.486307","207904.451541","211807.301265","212557.848576","213324.949536","214092.382236","214859.644892","215626.79841","216393.773847","217161.360205","220239.769754","Mapping"
"Mixed","Female","ball","11","M_gnash.wav","None","727.019065991","208","211039.901646","217928.446634","218695.822447","219463.059441","220230.192864","220997.226733","221764.604401","207904.451541","211807.301265","212557.848576","213324.949536","214092.382236","214859.644892","215626.79841","216393.773847","217161.360205","221006.751064","Mapping"
"Mixed","Female","ball","11","M_park.wav","None","726.537995506","208","211039.901646","217928.446634","218695.822447","219463.059441","220230.192864","220997.226733","221764.604401","222532.03401","211807.301265","212557.848576","213324.949536","214092.382236","214859.644892","215626.79841","216393.773847","217161.360205","221774.084211","Mapping"
"Mixed","Male","done","38","M_reek.wav","None","724.415535107","208","225667.527709","217928.446634","218695.822447","219463.059441","220230.192864","220997.226733","221764.604401","222532.03401","211807.301265","212557.848576","213324.949536","214092.382236","214859.644892","215626.79841","216393.773847","217161.360205","222542.917457","Mapping"
"Mixed","Male","done","38","F_jaw.wav","None","722.1629126","208","225667.527709","217928.446634","218695.822447","219463.059441","220230.192864","220997.226733","221764.604401","222532.03401","226434.702869","212557.848576","213324.949536","214092.382236","214859.644892","215626.79841","216393.773847","217161.360205","225677.106454","Mapping"
"Mixed","Male","done","38","F_priest.wav","None","720.79823073","208","225667.527709","217928.446634","218695.822447","219463.059441","220230.192864","220997.226733","221764.604401","222532.03401","226434.702869","227202.050857","213324.949536","214092.382236","214859.644892","215626.79841","216393.773847","217161.360205","226445.202017","Mapping"
"Mixed","Male","done","38","M_lash.wav","None","721.280228812","208","225667.527709","217928.446634","218695.822447","219463.059441","220230.192864","220997.226733","221764.604401","222532.03401","226434.702869","227202.050857","227969.283832","214092.382236","214859.644892","215626.79841","216393.773847","217161.360205","227211.470687","Mapping"
"Mixed","Male","done","38","M_done.wav","None","720.395380631","208","225667.527709","217928.446634","218695.822447","219463.059441","220230.192864","220997.226733","221764.604401","222532.03401","226434.702869","227202.050857","227969.283832","228736.493311","214859.644892","215626.79841","216393.773847","217161.360205","227979.174222","Mapping"
"Mixed","Male","done","38","M_jolt.wav","space","454.787873197","208","225667.527709","217928.446634","218695.822447","219463.059441","220230.192864","220997.226733","221764.604401","222532.03401","226434.702869","227202.050857","227969.283832","228736.493311","229486.946943","215626.79841","216393.773847","217161.360205","228745.565015","Mapping"
"Mixed","Male","done","38","F_bluff.wav","None","735.262500122","208","225667.527709","217928.446634","218695.822447","219463.059441","220230.192864","220997.226733","221764.604401","222532.03401","226434.702869","227202.050857","227969.283832","228736.493311","229486.946943","230253.80242","216393.773847","217161.360205","229496.514557","Mapping"
"Mixed","Male","done","38","M_romp.wav","None","735.421723686","208","225667.527709","217928.446634","218695.822447","219463.059441","220230.192864","220997.226733","221764.604401","222532.03401","226434.702869","227202.050857","227969.283832","228736.493311","229486.946943","230253.80242","231021.387233","217161.360205","230263.048806","Mapping"
"Mixed","Male","done","38","F_ball.wav","None","733.850205783","208","225667.527709","217928.446634","218695.822447","219463.059441","220230.192864","220997.226733","221764.604401","222532.03401","226434.702869","227202.050857","227969.283832","228736.493311","229486.946943","230253.80242","231021.387233","231788.456966","231031.517539","Mapping"
"Mixed","Male","done","38","M_done.wav","None","734.54986047","208","225667.527709","232555.867715","218695.822447","219463.059441","220230.192864","220997.226733","221764.604401","222532.03401","226434.702869","227202.050857","227969.283832","228736.493311","229486.946943","230253.80242","231021.387233","231788.456966","231797.596379","Mapping"
"Mixed","Male","done","38","F_cad.wav","space","546.855372377","208","225667.527709","232555.867715","233323.327623","219463.059441","220230.192864","220997.226733","221764.604401","222532.03401","226434.702869","227202.050857","227969.283832","228736.493311","229486.946943","230253.80242","231021.387233","231788.456966","232565.474286","Mapping"
"Mixed","Male","done","38","M_done.wav","None","731.808438897","208","225667.527709","232555.867715","233323.327623","234090.322536","220230.192864","220997.226733","221764.604401","222532.03401","226434.702869","227202.050857","227969.283832","228736.493311","229486.946943","230253.80242","231021.387233","231788.456966","233332.459924","Mapping"
"Mixed","Male","done","38","F_cave.wav","space","508.822666481","208","225667.527709","232555.867715","233323.327623","234090.322536","234857.852008","220997.226733","221764.604401","222532.03401","226434.702869","227202.050857","227969.283832","228736.493311","229486.946943","230253.80242","231021.387233","231788.456966","234099.45422","Mapping"
"Mixed","Male","done","38","F_bluff.wav","None","729.962376878","208","225667.527709","232555.867715","233323.327623","234090.322536","234857.852008","235624.599584","221764.604401","222532.03401","226434.702869","227202.050857","227969.283832","228736.493311","229486.946943","230253.80242","231021.387233","231788.456966","234867.246795","Mapping"
"Mixed","Male","done","38","M_done.wav","None","730.340184178","208","225667.527709","232555.867715","233323.327623","234090.322536","234857.852008","235624.599584","236392.267564","222532.03401","226434.702869","227202.050857","227969.283832","228736.493311","229486.946943","230253.80242","231021.387233","231788.456966","235634.231198","Mapping"
"Mixed","Male","done","38","F_bluff.wav","space","510.660071392","208","225667.527709","232555.867715","233323.327623","234090.322536","234857.852008","235624.599584","236392.267564","237159.217957","226434.702869","227202.050857","227969.283832","228736.493311","229486.946943","230253.80242","231021.387233","231788.456966","236401.556615","Mapping"
"Mixed","Female","done","47","F_ball.wav","None","727.974096779","208","240294.979707","232555.867715","233323.327623","234090.322536","234857.852008","235624.599584","236392.267564","237159.217957","226434.702869","227202.050857","227969.283832","228736.493311","229486.946943","230253.80242","231021.387233","231788.456966","237168.885434","Mapping"
"Mixed","Female","done","47","F_done.wav","None","721.28084721","208","240294.979707","232555.867715","233323.327623","234090.322536","234857.852008","235624.599584","236392.267564","237159.217957","241062.197534","227202.050857","227969.283832","228736.493311","229486.946943","230253.80242","231021.387233","231788.456966","240304.953264","Mapping"
"Mixed","Female","done","47","M_cling.wav","space","576.192636043","208","240294.979707","232555.867715","233323.327623","234090.322536","234857.852008","235624.599584","236392.267564","237159.217957","241062.197534","241812.811316","227969.283832","228736.493311","229486.946943","230253.80242","231021.387233","231788.456966","241071.882324","Mapping"
"Mixed","Female","done","47","F_done.wav","None","736.09107919","208","240294.979707","232555.867715","233323.327623","234090.322536","234857.852008","235624.599584","236392.267564","237159.217957","241062.197534","241812.811316","242579.783351","228736.493311","229486.946943","230253.80242","231021.387233","231788.456966","241822.200539","Mapping"
"Mixed","Female","done","47","M_cave.wav","space","674.815185368","208","240294.979707","232555.867715","233323.327623","234090.322536","234857.852008","235624.599584","236392.267564","237159.217957","241062.197534","241812.811316","242579.783351","243347.115261","229486.946943","230253.80242","231021.387233","231788.456966","242589.230389","Mapping"
"Mixed","Female","done","47","F_cad.wav","None","733.886379283","208","240294.979707","232555.867715","233323.327623","234090.322536","234857.852008","235624.599584","236392.267564","237159.217957","241062.197534","241812.811316","242579.783351","243347.115261","244114.732537","230253.80242","231021.387233","231788.456966","243356.682876","Mapping"
"Mixed","Female","done","47","F_done.wav","None","732.285798993","208","240294.979707","232555.867715","233323.327623","234090.322536","234857.852008","235624.599584","236392.267564","237159.217957","241062.197534","241812.811316","242579.783351","243347.115261","244114.732537","244881.76517","231021.387233","231788.456966","244125.175725","Mapping"
"Mixed","Female","done","47","M_jaw.wav","space","420.370616019","208","240294.979707","232555.867715","233323.327623","234090.322536","234857.852008","235624.599584","236392.267564","237159.217957","241062.197534","241812.811316","242579.783351","243347.115261","244114.732537","244881.76517","245649.103573","231788.456966","244891.62928","Mapping"
"Mixed","Female","done","47","F_cave.wav","None","731.391057372","208","240294.979707","232555.867715","233323.327623","234090.322536","234857.852008","235624.599584","236392.267564","237159.217957","241062.197534","241812.811316","242579.783351","243347.115261","244114.732537","244881.76517","245649.103573","246416.065406","245658.630996","Mapping"
"Mixed","Female","done","47","M_park.wav","None","731.555227656","208","240294.979707","247183.550047","233323.327623","234090.322536","234857.852008","235624.599584","236392.267564","237159.217957","241062.197534","241812.811316","242579.783351","243347.115261","244114.732537","244881.76517","245649.103573","246416.065406","246425.276546","Mapping"
"Mixed","Female","done","47","F_greet.wav","None","730.680890847","208","240294.979707","247183.550047","247950.643277","234090.322536","234857.852008","235624.599584","236392.267564","237159.217957","241062.197534","241812.811316","242579.783351","243347.115261","244114.732537","244881.76517","245649.103573","246416.065406","247193.120135","Mapping"
"Mixed","Female","done","47","F_done.wav","None","729.929605033","208","240294.979707","247183.550047","247950.643277","248717.773299","234857.852008","235624.599584","236392.267564","237159.217957","241062.197534","241812.811316","242579.783351","243347.115261","244114.732537","244881.76517","245649.103573","246416.065406","247960.688252","Mapping"
"Mixed","Female","done","47","M_bluff.wav","space","504.930509254","208","240294.979707","247183.550047","247950.643277","248717.773299","249485.517644","235624.599584","236392.267564","237159.217957","241062.197534","241812.811316","242579.783351","243347.115261","244114.732537","244881.76517","245649.103573","246416.065406","248726.966507","Mapping"
"Mixed","Female","done","47","M_depth.wav","None","727.724285796","208","240294.979707","247183.550047","247950.643277","248717.773299","249485.517644","250252.426608","236392.267564","237159.217957","241062.197534","241812.811316","242579.783351","243347.115261","244114.732537","244881.76517","245649.103573","246416.065406","249495.064853","Mapping"
"Mixed","Female","done","47","M_tile.wav","None","728.05695422","208","240294.979707","247183.550047","247950.643277","248717.773299","249485.517644","250252.426608","251019.509945","237159.217957","241062.197534","241812.811316","242579.783351","243347.115261","244114.732537","244881.76517","245649.103573","246416.065406","250261.828198","Mapping"
"Mixed","Female","done","47","M_cave.wav","None","726.932807826","208","240294.979707","247183.550047","247950.643277","248717.773299","249485.517644","250252.426608","251019.509945","251786.923167","241062.197534","241812.811316","242579.783351","243347.115261","244114.732537","244881.76517","245649.103573","246416.065406","251029.761137","Mapping"
"Mixed","Female","done","44","M_depth.wav","None","727.230230346","208","254922.393369","247183.550047","247950.643277","248717.773299","249485.517644","250252.426608","251019.509945","251786.923167","241062.197534","241812.811316","242579.783351","243347.115261","244114.732537","244881.76517","245649.103573","246416.065406","251796.534066","Mapping"
"Mixed","Female","done","44","F_cad.wav","None","722.412104718","208","254922.393369","247183.550047","247950.643277","248717.773299","249485.517644","250252.426608","251019.509945","251786.923167","255689.885739","241812.811316","242579.783351","243347.115261","244114.732537","244881.76517","245649.103573","246416.065406","254931.652122","Mapping"
"Mixed","Female","done","44","M_park.wav","None","721.625264268","208","254922.393369","247183.550047","247950.643277","248717.773299","249485.517644","250252.426608","251019.509945","251786.923167","255689.885739","256456.768733","242579.783351","243347.115261","244114.732537","244881.76517","245649.103573","246416.065406","255699.516734","Mapping"
"Mixed","Female","done","44","F_park.wav","None","721.877857111","208","254922.393369","247183.550047","247950.643277","248717.773299","249485.517644","250252.426608","251019.509945","251786.923167","255689.885739","256456.768733","257224.241626","243347.115261","244114.732537","244881.76517","245649.103573","246416.065406","256466.396018","Mapping"
"Mixed","Female","done","44","F_done.wav","None","721.411317587","208","254922.393369","247183.550047","247950.643277","248717.773299","249485.517644","250252.426608","251019.509945","251786.923167","255689.885739","256456.768733","257224.241626","257991.418332","244114.732537","244881.76517","245649.103573","246416.065406","257233.754826","Mapping"
"Mixed","Female","done","44","M_ball.wav","space","477.379946504","208","254922.393369","247183.550047","247950.643277","248717.773299","249485.517644","250252.426608","251019.509945","251786.923167","255689.885739","256456.768733","257224.241626","257991.418332","258742.009236","244881.76517","245649.103573","246416.065406","258002.343209","Mapping"
"Mixed","Female","done","44","M_cad.wav","None","735.747280996","208","254922.393369","247183.550047","247950.643277","248717.773299","249485.517644","250252.426608","251019.509945","251786.923167","255689.885739","256456.768733","257224.241626","257991.418332","258742.009236","259509.336509","245649.103573","246416.065406","258751.843974","Mapping"
"Mixed","Female","done","44","M_park.wav","None","735.638452694","208","254922.393369","247183.550047","247950.643277","248717.773299","249485.517644","250252.426608","251019.509945","251786.923167","255689.885739","256456.768733","257224.241626","257991.418332","258742.009236","259509.336509","260276.269589","246416.065406","259519.306356","Mapping"
"Mixed","Female","done","44","F_tile.wav","None","736.127870623","208","254922.393369","247183.550047","247950.643277","248717.773299","249485.517644","250252.426608","251019.509945","251786.923167","255689.885739","256456.768733","257224.241626","257991.418332","258742.009236","259509.336509","260276.269589","261043.298202","260285.522776","Mapping"
"Mixed","Female","done","44","F_done.wav","None","736.158169806","208","254922.393369","261810.939284","247950.643277","248717.773299","249485.517644","250252.426608","251019.509945","251786.923167","255689.885739","256456.768733","257224.241626","257991.418332","258742.009236","259509.336509","260276.269589","261043.298202","261052.791615","Mapping"
"Mixed","Female","done","44","F_reek.wav","space","402.835038956","208","254922.393369","261810.939284","262578.060958","248717.773299","249485.517644","250252.426608","251019.509945","251786.923167","255689.885739","256456.768733","257224.241626","257991.418332","258742.009236","259509.336509","260276.269589","261043.298202","261820.773095","Mapping"
"Mixed","Female","done","44","M_depth.wav","None","733.987478074","208","254922.393369","261810.939284","262578.060958","263345.372772","249485.517644","250252.426608","251019.509945","251786.923167","255689.885739","256456.768733","257224.241626","257991.418332","258742.009236","259509.336509","260276.269589","261043.298202","262587.755024","Mapping"
"Mixed","Female","done","44","F_done.wav","None","740.370937623","208","254922.393369","261810.939284","262578.060958","263345.372772","264112.613477","250252.426608","251019.509945","251786.923167","255689.885739","256456.768733","257224.241626","257991.418332","258742.009236","259509.336509","260276.269589","261043.298202","263349.10818","Mapping"
"Mixed","Female","done","44","M_tile.wav","space","460.928014945","208","254922.393369","261810.939284","262578.060958","263345.372772","264112.613477","264879.709799","251019.509945","251786.923167","255689.885739","256456.768733","257224.241626","257991.418332","258742.009236","259509.336509","260276.269589","261043.298202","264122.614241","Mapping"
"Mixed","Female","done","44","F_done.wav","None","732.227056753","208","254922.393369","261810.939284","262578.060958","263345.372772","264112.613477","264879.709799","265646.978021","251786.923167","255689.885739","256456.768733","257224.241626","257991.418332","258742.009236","259509.336509","260276.269589","261043.298202","264889.695104","Mapping"
"Mixed","Female","done","44","M_ball.wav","space","558.981379494","208","254922.393369","261810.939284","262578.060958","263345.372772","264112.613477","264879.709799","265646.978021","266414.124119","255689.885739","256456.768733","257224.241626","257991.418332","258742.009236","259509.336509","260276.269589","261043.298202","265656.557384","Mapping"
"Mixed","Male","done","42","M_lash.wav","None","731.035510544","208","269549.901637","261810.939284","262578.060958","263345.372772","264112.613477","264879.709799","265646.978021","266414.124119","255689.885739","256456.768733","257224.241626","257991.418332","258742.009236","259509.336509","260276.269589","261043.298202","266423.206026","Mapping"
"Mixed","Male","done","42","M_done.wav","None","722.426944878","208","269549.901637","261810.939284","262578.060958","263345.372772","264112.613477","264879.709799","265646.978021","266414.124119","270317.073397","256456.768733","257224.241626","257991.418332","258742.009236","259509.336509","260276.269589","261043.298202","269559.163172","Mapping"
"Mixed","Male","done","42","F_cling.wav","space","440.624117851","208","269549.901637","261810.939284","262578.060958","263345.372772","264112.613477","264879.709799","265646.978021","266414.124119","270317.073397","271083.965975","257224.241626","257991.418332","258742.009236","259509.336509","260276.269589","261043.298202","270326.801471","Mapping"
"Mixed","Male","done","42","F_knife.wav","None","720.844915602","208","269549.901637","261810.939284","262578.060958","263345.372772","264112.613477","264879.709799","265646.978021","266414.124119","270317.073397","271083.965975","271851.438867","257991.418332","258742.009236","259509.336509","260276.269589","261043.298202","271093.386424","Mapping"
"Mixed","Male","done","42","M_jaw.wav","None","720.411148388","208","269549.901637","261810.939284","262578.060958","263345.372772","264112.613477","264879.709799","265646.978021","266414.124119","270317.073397","271083.965975","271851.438867","272618.814989","258742.009236","259509.336509","260276.269589","261043.298202","271860.969073","Mapping"
"Mixed","Male","done","42","F_cad.wav","None","721.453673672","208","269549.901637","261810.939284","262578.060958","263345.372772","264112.613477","264879.709799","265646.978021","266414.124119","270317.073397","271083.965975","271851.438867","272618.814989","273385.977783","259509.336509","260276.269589","261043.298202","272628.095384","Mapping"
"Mixed","Male","done","42","F_jolt.wav","None","721.812622156","208","269549.901637","261810.939284","262578.060958","263345.372772","264112.613477","264879.709799","265646.978021","266414.124119","270317.073397","271083.965975","271851.438867","272618.814989","273385.977783","274153.35607","260276.269589","261043.298202","273395.141311","Mapping"
"Mixed","Male","done","42","M_done.wav","None","721.087306272","208","269549.901637","261810.939284","262578.060958","263345.372772","264112.613477","264879.709799","265646.978021","266414.124119","270317.073397","271083.965975","271851.438867","272618.814989","273385.977783","274153.35607","274920.303371","261043.298202","274163.019836","Mapping"
"Mixed","Male","done","42","M_reek.wav","space","389.407111797","208","269549.901637","261810.939284","262578.060958","263345.372772","264112.613477","264879.709799","265646.978021","266414.124119","270317.073397","271083.965975","271851.438867","272618.814989","273385.977783","274153.35607","274920.303371","275671.294961","274929.872222","Mapping"
"Mixed","Male","done","42","F_gnash.wav","None","736.24968389","208","269549.901637","276438.266687","262578.060958","263345.372772","264112.613477","264879.709799","265646.978021","266414.124119","270317.073397","271083.965975","271851.438867","272618.814989","273385.977783","274153.35607","274920.303371","275671.294961","275680.394181","Mapping"
"Mixed","Male","done","42","M_cad.wav","None","735.601661261","208","269549.901637","276438.266687","277205.233466","263345.372772","264112.613477","264879.709799","265646.978021","266414.124119","270317.073397","271083.965975","271851.438867","272618.814989","273385.977783","274153.35607","274920.303371","275671.294961","276448.202524","Mapping"
"Mixed","Male","done","42","M_done.wav","None","735.58249278","208","269549.901637","276438.266687","277205.233466","277972.581762","264112.613477","264879.709799","265646.978021","266414.124119","270317.073397","271083.965975","271851.438867","272618.814989","273385.977783","274153.35607","274920.303371","275671.294961","277215.061094","Mapping"
"Mixed","Male","done","42","F_jolt.wav","space","584.406699054","208","269549.901637","276438.266687","277205.233466","277972.581762","278739.975507","264879.709799","265646.978021","266414.124119","270317.073397","271083.965975","271851.438867","272618.814989","273385.977783","274153.35607","274920.303371","275671.294961","277982.844085","Mapping"
"Mixed","Male","done","42","F_greet.wav","None","734.170507174","208","269549.901637","276438.266687","277205.233466","277972.581762","278739.975507","279507.329678","265646.978021","266414.124119","270317.073397","271083.965975","271851.438867","272618.814989","273385.977783","274153.35607","274920.303371","275671.294961","278749.098225","Mapping"
"Mixed","Male","done","42","M_done.wav","None","733.570714947","208","269549.901637","276438.266687","277205.233466","277972.581762","278739.975507","279507.329678","280275.01188","266414.124119","270317.073397","271083.965975","271851.438867","272618.814989","273385.977783","274153.35607","274920.303371","275671.294961","279516.826802","Mapping"
