"Condition","Talker","Target","Trial","current_stimulus","response_response","response_time_response","subject_nr","time_Audio1","time_Audio10","time_Audio11","time_Audio12","time_Audio13","time_Audio14","time_Audio15","time_Audio16","time_Audio2","time_Audio3","time_Audio4","time_Audio5","time_Audio6","time_Audio7","time_Audio8","time_Audio9","time_response","title"
"Mixed","Female","tile","32","M_depth.wav","NA","NA","212","36196.8249149","NA","NA","NA","NA","NA","NA","NA","NA","NA","NA","NA","NA","NA","NA","NA","NA","Mapping"
"Mixed","Female","tile","32","M_reek.wav","None","719.198697276","212","36196.8249149","NA","NA","NA","NA","NA","NA","NA","36963.1675784","NA","NA","NA","NA","NA","NA","NA","36209.8315223","Mapping"
"Mixed","Female","tile","32","F_lash.wav","None","722.08328321","212","36196.8249149","NA","NA","NA","NA","NA","NA","NA","36963.1675784","37730.0670628","NA","NA","NA","NA","NA","NA","36972.6860937","Mapping"
"Mixed","Female","tile","32","F_jaw.wav","None","721.329518943","212","36196.8249149","NA","NA","NA","NA","NA","NA","NA","36963.1675784","37730.0670628","38496.3413989","NA","NA","NA","NA","NA","37740.2042336","Mapping"
"Mixed","Female","tile","32","F_tile.wav","None","721.760815592","212","36196.8249149","NA","NA","NA","NA","NA","NA","NA","36963.1675784","37730.0670628","38496.3413989","39263.5890123","NA","NA","NA","NA","38505.4981816","Mapping"
"Mixed","Female","tile","32","M_cling.wav","space","518.624129792","212","36196.8249149","NA","NA","NA","NA","NA","NA","NA","36963.1675784","37730.0670628","38496.3413989","39263.5890123","40012.8838656","NA","NA","NA","39273.6253928","Mapping"
"Mixed","Female","tile","32","M_reek.wav","None","734.013967827","212","36196.8249149","NA","NA","NA","NA","NA","NA","NA","36963.1675784","37730.0670628","38496.3413989","39263.5890123","40012.8838656","40779.6188698","NA","NA","40024.7697201","Mapping"
"Mixed","Female","tile","32","F_jolt.wav","None","735.361653817","212","36196.8249149","NA","NA","NA","NA","NA","NA","NA","36963.1675784","37730.0670628","38496.3413989","39263.5890123","40012.8838656","40779.6188698","41546.5950292","NA","40789.2394123","Mapping"
"Mixed","Female","tile","32","F_tile.wav","None","734.142274683","212","36196.8249149","NA","NA","NA","NA","NA","NA","NA","36963.1675784","37730.0670628","38496.3413989","39263.5890123","40012.8838656","40779.6188698","41546.5950292","42312.7475511","41556.2378321","Mapping"
"Mixed","Female","tile","32","M_reek.wav","space","510.187411535","212","36196.8249149","43079.9030309","NA","NA","NA","NA","NA","NA","36963.1675784","37730.0670628","38496.3413989","39263.5890123","40012.8838656","40779.6188698","41546.5950292","42312.7475511","42321.9686418","Mapping"
"Mixed","Female","tile","32","M_cling.wav","None","732.17345975","212","36196.8249149","43079.9030309","43846.596606","NA","NA","NA","NA","NA","36963.1675784","37730.0670628","38496.3413989","39263.5890123","40012.8838656","40779.6188698","41546.5950292","42312.7475511","43089.6011759","Mapping"
"Mixed","Female","tile","32","F_tile.wav","None","731.387850654","212","36196.8249149","43079.9030309","43846.596606","44613.5158775","NA","NA","NA","NA","36963.1675784","37730.0670628","38496.3413989","39263.5890123","40012.8838656","40779.6188698","41546.5950292","42312.7475511","43856.1036819","Mapping"
"Mixed","Female","tile","32","F_priest.wav","space","449.254938954","212","36196.8249149","43079.9030309","43846.596606","44613.5158775","45380.1012419","NA","NA","NA","36963.1675784","37730.0670628","38496.3413989","39263.5890123","40012.8838656","40779.6188698","41546.5950292","42312.7475511","44622.8878447","Mapping"
"Mixed","Female","tile","32","F_tile.wav","None","729.521681234","212","36196.8249149","43079.9030309","43846.596606","44613.5158775","45380.1012419","46146.6791861","NA","NA","36963.1675784","37730.0670628","38496.3413989","39263.5890123","40012.8838656","40779.6188698","41546.5950292","42312.7475511","45389.6930312","Mapping"
"Mixed","Female","tile","32","M_reek.wav","space","531.853960187","212","36196.8249149","43079.9030309","43846.596606","44613.5158775","45380.1012419","46146.6791861","46913.2490919","NA","36963.1675784","37730.0670628","38496.3413989","39263.5890123","40012.8838656","40779.6188698","41546.5950292","42312.7475511","46156.2289279","Mapping"
"Mixed","Female","tile","32","M_bluff.wav","None","727.788147109","212","36196.8249149","43079.9030309","43846.596606","44613.5158775","45380.1012419","46146.6791861","46913.2490919","47680.0425299","36963.1675784","37730.0670628","38496.3413989","39263.5890123","40012.8838656","40779.6188698","41546.5950292","42312.7475511","46922.6059096","Mapping"
"Mixed","Male","done","39","F_dime.wav","None","726.510952605","212","50830.3421342","43079.9030309","43846.596606","44613.5158775","45380.1012419","46146.6791861","46913.2490919","47680.0425299","36963.1675784","37730.0670628","38496.3413989","39263.5890123","40012.8838656","40779.6188698","41546.5950292","42312.7475511","47689.6837869","Mapping"
"Mixed","Male","done","39","M_done.wav","None","721.577475866","212","50830.3421342","43079.9030309","43846.596606","44613.5158775","45380.1012419","46146.6791861","46913.2490919","47680.0425299","51596.5227909","37730.0670628","38496.3413989","39263.5890123","40012.8838656","40779.6188698","41546.5950292","42312.7475511","50839.9302134","Mapping"
"Mixed","Male","done","39","M_cave.wav","space","618.459247722","212","50830.3421342","43079.9030309","43846.596606","44613.5158775","45380.1012419","46146.6791861","46913.2490919","47680.0425299","51596.5227909","52362.9467669","38496.3413989","39263.5890123","40012.8838656","40779.6188698","41546.5950292","42312.7475511","51605.5426098","Mapping"
"Mixed","Male","done","39","M_jaw.wav","None","720.809180464","212","50830.3421342","43079.9030309","43846.596606","44613.5158775","45380.1012419","46146.6791861","46913.2490919","47680.0425299","51596.5227909","52362.9467669","53113.640938","39263.5890123","40012.8838656","40779.6188698","41546.5950292","42312.7475511","52371.8710513","Mapping"
"Mixed","Male","done","39","M_done.wav","None","735.440802149","212","50830.3421342","43079.9030309","43846.596606","44613.5158775","45380.1012419","46146.6791861","46913.2490919","47680.0425299","51596.5227909","52362.9467669","53113.640938","53879.7303886","40012.8838656","40779.6188698","41546.5950292","42312.7475511","53122.9819879","Mapping"
"Mixed","Male","done","39","F_knife.wav","space","566.924712912","212","50830.3421342","43079.9030309","43846.596606","44613.5158775","45380.1012419","46146.6791861","46913.2490919","47680.0425299","51596.5227909","52362.9467669","53113.640938","53879.7303886","54646.3936647","40779.6188698","41546.5950292","42312.7475511","53889.0232075","Mapping"
"Mixed","Male","done","39","F_jolt.wav","None","733.769721002","212","50830.3421342","43079.9030309","43846.596606","44613.5158775","45380.1012419","46146.6791861","46913.2490919","47680.0425299","51596.5227909","52362.9467669","53113.640938","53879.7303886","54646.3936647","55413.3546745","41546.5950292","42312.7475511","54655.849727","Mapping"
"Mixed","Male","done","39","M_done.wav","None","732.609703176","212","50830.3421342","43079.9030309","43846.596606","44613.5158775","45380.1012419","46146.6791861","46913.2490919","47680.0425299","51596.5227909","52362.9467669","53113.640938","53879.7303886","54646.3936647","55413.3546745","56179.9054116","42312.7475511","55423.0042793","Mapping"
"Mixed","Male","done","39","F_dime.wav","space","538.568892895","212","50830.3421342","43079.9030309","43846.596606","44613.5158775","45380.1012419","46146.6791861","46913.2490919","47680.0425299","51596.5227909","52362.9467669","53113.640938","53879.7303886","54646.3936647","55413.3546745","56179.9054116","56946.4512018","56189.3568363","Mapping"
"Mixed","Male","done","39","F_dime.wav","None","731.071875634","212","50830.3421342","57713.1191155","43846.596606","44613.5158775","45380.1012419","46146.6791861","46913.2490919","47680.0425299","51596.5227909","52362.9467669","53113.640938","53879.7303886","54646.3936647","55413.3546745","56179.9054116","56946.4512018","56956.4041055","Mapping"
"Mixed","Male","done","39","F_ball.wav","None","730.570087559","212","50830.3421342","57713.1191155","58479.7873383","44613.5158775","45380.1012419","46146.6791861","46913.2490919","47680.0425299","51596.5227909","52362.9467669","53113.640938","53879.7303886","54646.3936647","55413.3546745","56179.9054116","56946.4512018","57722.5974383","Mapping"
"Mixed","Male","done","39","M_done.wav","None","729.968436499","212","50830.3421342","57713.1191155","58479.7873383","59246.3625","45380.1012419","46146.6791861","46913.2490919","47680.0425299","51596.5227909","52362.9467669","53113.640938","53879.7303886","54646.3936647","55413.3546745","56179.9054116","56946.4512018","58489.0365638","Mapping"
"Mixed","Male","done","39","M_bluff.wav","space","615.79881236","212","50830.3421342","57713.1191155","58479.7873383","59246.3625","60012.6046822","46146.6791861","46913.2490919","47680.0425299","51596.5227909","52362.9467669","53113.640938","53879.7303886","54646.3936647","55413.3546745","56179.9054116","56946.4512018","59256.0621908","Mapping"
"Mixed","Male","done","39","M_jaw.wav","None","728.515631636","212","50830.3421342","57713.1191155","58479.7873383","59246.3625","60012.6046822","60779.3474158","46913.2490919","47680.0425299","51596.5227909","52362.9467669","53113.640938","53879.7303886","54646.3936647","55413.3546745","56179.9054116","56946.4512018","60021.7840345","Mapping"
"Mixed","Male","done","39","F_depth.wav","None","727.724148252","212","50830.3421342","57713.1191155","58479.7873383","59246.3625","60012.6046822","60779.3474158","61546.4862002","47680.0425299","51596.5227909","52362.9467669","53113.640938","53879.7303886","54646.3936647","55413.3546745","56179.9054116","56946.4512018","60788.3536311","Mapping"
"Mixed","Male","done","39","F_priest.wav","None","726.132524607","212","50830.3421342","57713.1191155","58479.7873383","59246.3625","60012.6046822","60779.3474158","61546.4862002","62313.0777481","51596.5227909","52362.9467669","53113.640938","53879.7303886","54646.3936647","55413.3546745","56179.9054116","56946.4512018","61555.9097994","Mapping"
"Mixed","Male","done","41","F_jolt.wav","None","725.103596225","212","65446.6560291","57713.1191155","58479.7873383","59246.3625","60012.6046822","60779.3474158","61546.4862002","62313.0777481","51596.5227909","52362.9467669","53113.640938","53879.7303886","54646.3936647","55413.3546745","56179.9054116","56946.4512018","62322.6896337","Mapping"
"Mixed","Male","done","41","M_done.wav","None","721.604992286","212","65446.6560291","57713.1191155","58479.7873383","59246.3625","60012.6046822","60779.3474158","61546.4862002","62313.0777481","66212.7232192","52362.9467669","53113.640938","53879.7303886","54646.3936647","55413.3546745","56179.9054116","56946.4512018","65456.6163529","Mapping"
"Mixed","Male","done","41","F_bluff.wav","space","578.151719325","212","65446.6560291","57713.1191155","58479.7873383","59246.3625","60012.6046822","60779.3474158","61546.4862002","62313.0777481","66212.7232192","66979.7154556","53113.640938","53879.7303886","54646.3936647","55413.3546745","56179.9054116","56946.4512018","66221.5918524","Mapping"
"Mixed","Male","done","41","F_bluff.wav","None","720.986336702","212","65446.6560291","57713.1191155","58479.7873383","59246.3625","60012.6046822","60779.3474158","61546.4862002","62313.0777481","66212.7232192","66979.7154556","67746.6424564","53879.7303886","54646.3936647","55413.3546745","56179.9054116","56946.4512018","66988.6527252","Mapping"
"Mixed","Male","done","41","M_done.wav","None","718.722261372","212","65446.6560291","57713.1191155","58479.7873383","59246.3625","60012.6046822","60779.3474158","61546.4862002","62313.0777481","66212.7232192","66979.7154556","67746.6424564","68496.2270049","54646.3936647","55413.3546745","56179.9054116","56946.4512018","67756.7493283","Mapping"
"Mixed","Male","done","41","F_romp.wav","space","630.056025286","212","65446.6560291","57713.1191155","58479.7873383","59246.3625","60012.6046822","60779.3474158","61546.4862002","62313.0777481","66212.7232192","66979.7154556","67746.6424564","68496.2270049","69262.7347668","55413.3546745","56179.9054116","56946.4512018","68505.6289619","Mapping"
"Mixed","Male","done","41","M_done.wav","None","734.695076389","212","65446.6560291","57713.1191155","58479.7873383","59246.3625","60012.6046822","60779.3474158","61546.4862002","62313.0777481","66212.7232192","66979.7154556","67746.6424564","68496.2270049","69262.7347668","70029.6157008","56179.9054116","56946.4512018","69272.1518733","Mapping"
"Mixed","Male","done","41","F_priest.wav","space","576.680054917","212","65446.6560291","57713.1191155","58479.7873383","59246.3625","60012.6046822","60779.3474158","61546.4862002","62313.0777481","66212.7232192","66979.7154556","67746.6424564","68496.2270049","69262.7347668","70029.6157008","70796.3216428","56946.4512018","70039.0096193","Mapping"
"Mixed","Male","done","41","M_bluff.wav","None","732.030930929","212","65446.6560291","57713.1191155","58479.7873383","59246.3625","60012.6046822","60779.3474158","61546.4862002","62313.0777481","66212.7232192","66979.7154556","67746.6424564","68496.2270049","69262.7347668","70029.6157008","70796.3216428","71562.5202315","70806.0633811","Mapping"
"Mixed","Male","done","41","F_dime.wav","None","732.183662505","212","65446.6560291","72329.6246977","58479.7873383","59246.3625","60012.6046822","60779.3474158","61546.4862002","62313.0777481","66212.7232192","66979.7154556","67746.6424564","68496.2270049","69262.7347668","70029.6157008","70796.3216428","71562.5202315","71571.7697661","Mapping"
"Mixed","Male","done","41","M_done.wav","None","730.972012738","212","65446.6560291","72329.6246977","73096.020539","59246.3625","60012.6046822","60779.3474158","61546.4862002","62313.0777481","66212.7232192","66979.7154556","67746.6424564","68496.2270049","69262.7347668","70029.6157008","70796.3216428","71562.5202315","72338.8785608","Mapping"
"Mixed","Male","done","41","F_reek.wav","space","574.446587707","212","65446.6560291","72329.6246977","73096.020539","73862.8377833","60012.6046822","60779.3474158","61546.4862002","62313.0777481","66212.7232192","66979.7154556","67746.6424564","68496.2270049","69262.7347668","70029.6157008","70796.3216428","71562.5202315","73105.1810317","Mapping"
"Mixed","Male","done","41","M_reek.wav","None","729.286091257","212","65446.6560291","72329.6246977","73096.020539","73862.8377833","74629.5662949","60779.3474158","61546.4862002","62313.0777481","66212.7232192","66979.7154556","67746.6424564","68496.2270049","69262.7347668","70029.6157008","70796.3216428","71562.5202315","73872.2351027","Mapping"
"Mixed","Male","done","41","F_cling.wav","None","729.254555568","212","65446.6560291","72329.6246977","73096.020539","73862.8377833","74629.5662949","75396.1340365","61546.4862002","62313.0777481","66212.7232192","66979.7154556","67746.6424564","68496.2270049","69262.7347668","70029.6157008","70796.3216428","71562.5202315","74638.7233868","Mapping"
"Mixed","Male","done","41","M_cave.wav","None","728.344349685","212","65446.6560291","72329.6246977","73096.020539","73862.8377833","74629.5662949","75396.1340365","76162.7095074","62313.0777481","66212.7232192","66979.7154556","67746.6424564","68496.2270049","69262.7347668","70029.6157008","70796.3216428","71562.5202315","75405.6228712","Mapping"
"Mixed","Male","done","41","M_dime.wav","None","727.617792669","212","65446.6560291","72329.6246977","73096.020539","73862.8377833","74629.5662949","75396.1340365","76162.7095074","76929.0858707","66212.7232192","66979.7154556","67746.6424564","68496.2270049","69262.7347668","70029.6157008","70796.3216428","71562.5202315","76172.253684","Mapping"
"Mixed","Male","done","42","F_priest.wav","None","727.872242191","212","80063.2988842","72329.6246977","73096.020539","73862.8377833","74629.5662949","75396.1340365","76162.7095074","76929.0858707","66212.7232192","66979.7154556","67746.6424564","68496.2270049","69262.7347668","70029.6157008","70796.3216428","71562.5202315","76937.9919139","Mapping"
"Mixed","Male","done","42","F_greet.wav","None","721.820795181","212","80063.2988842","72329.6246977","73096.020539","73862.8377833","74629.5662949","75396.1340365","76162.7095074","76929.0858707","80829.8369452","66979.7154556","67746.6424564","68496.2270049","69262.7347668","70029.6157008","70796.3216428","71562.5202315","80073.1299736","Mapping"
"Mixed","Male","done","42","M_done.wav","None","720.968095469","212","80063.2988842","72329.6246977","73096.020539","73862.8377833","74629.5662949","75396.1340365","76162.7095074","76929.0858707","80829.8369452","81596.3848996","67746.6424564","68496.2270049","69262.7347668","70029.6157008","70796.3216428","71562.5202315","80839.8145827","Mapping"
"Mixed","Male","done","42","F_tile.wav","None","720.970568858","212","80063.2988842","72329.6246977","73096.020539","73862.8377833","74629.5662949","75396.1340365","76162.7095074","76929.0858707","80829.8369452","81596.3848996","82362.4592007","68496.2270049","69262.7347668","70029.6157008","70796.3216428","71562.5202315","81606.2447421","Mapping"
"Mixed","Male","done","42","M_done.wav","space","12.0058136818","212","80063.2988842","72329.6246977","73096.020539","73862.8377833","74629.5662949","75396.1340365","76162.7095074","76929.0858707","80829.8369452","81596.3848996","82362.4592007","83129.6316851","69262.7347668","70029.6157008","70796.3216428","71562.5202315","82371.4484115","Mapping"
"Mixed","Male","done","42","F_jaw.wav","space","459.64284928","212","80063.2988842","72329.6246977","73096.020539","73862.8377833","74629.5662949","75396.1340365","76162.7095074","76929.0858707","80829.8369452","81596.3848996","82362.4592007","83129.6316851","83879.0004307","70029.6157008","70796.3216428","71562.5202315","83139.795754","Mapping"
"Mixed","Male","done","42","M_depth.wav","None","735.792022926","212","80063.2988842","72329.6246977","73096.020539","73862.8377833","74629.5662949","75396.1340365","76162.7095074","76929.0858707","80829.8369452","81596.3848996","82362.4592007","83129.6316851","83879.0004307","84645.9268132","70796.3216428","71562.5202315","83888.2116278","Mapping"
"Mixed","Male","done","42","M_done.wav","None","734.594285925","212","80063.2988842","72329.6246977","73096.020539","73862.8377833","74629.5662949","75396.1340365","76162.7095074","76929.0858707","80829.8369452","81596.3848996","82362.4592007","83129.6316851","83879.0004307","84645.9268132","85412.557626","71562.5202315","84655.3896773","Mapping"
"Mixed","Male","done","42","F_cling.wav","space","585.460882954","212","80063.2988842","72329.6246977","73096.020539","73862.8377833","74629.5662949","75396.1340365","76162.7095074","76929.0858707","80829.8369452","81596.3848996","82362.4592007","83129.6316851","83879.0004307","84645.9268132","85412.557626","86179.36003","85421.9221731","Mapping"
"Mixed","Male","done","42","M_depth.wav","None","732.737082493","212","80063.2988842","86945.81245","73096.020539","73862.8377833","74629.5662949","75396.1340365","76162.7095074","76929.0858707","80829.8369452","81596.3848996","82362.4592007","83129.6316851","83879.0004307","84645.9268132","85412.557626","86179.36003","86188.776209","Mapping"
"Mixed","Male","done","42","M_greet.wav","None","732.865698577","212","80063.2988842","86945.81245","87712.7168811","73862.8377833","74629.5662949","75396.1340365","76162.7095074","76929.0858707","80829.8369452","81596.3848996","82362.4592007","83129.6316851","83879.0004307","84645.9268132","85412.557626","86179.36003","86954.827013","Mapping"
"Mixed","Male","done","42","M_done.wav","None","731.617257174","212","80063.2988842","86945.81245","87712.7168811","88479.0354291","74629.5662949","75396.1340365","76162.7095074","76929.0858707","80829.8369452","81596.3848996","82362.4592007","83129.6316851","83879.0004307","84645.9268132","85412.557626","86179.36003","87722.032888","Mapping"
"Mixed","Male","done","42","F_lash.wav","space","606.953985436","212","80063.2988842","86945.81245","87712.7168811","88479.0354291","89246.0567277","75396.1340365","76162.7095074","76929.0858707","80829.8369452","81596.3848996","82362.4592007","83129.6316851","83879.0004307","84645.9268132","85412.557626","86179.36003","88488.3863725","Mapping"
"Mixed","Male","done","42","F_lash.wav","None","730.423539469","212","80063.2988842","86945.81245","87712.7168811","88479.0354291","89246.0567277","90012.2905622","76162.7095074","76929.0858707","80829.8369452","81596.3848996","82362.4592007","83129.6316851","83879.0004307","84645.9268132","85412.557626","86179.36003","89255.4419894","Mapping"
"Mixed","Male","done","42","F_reek.wav","None","730.284411518","212","80063.2988842","86945.81245","87712.7168811","88479.0354291","89246.0567277","90012.2905622","90779.2809435","76929.0858707","80829.8369452","81596.3848996","82362.4592007","83129.6316851","83879.0004307","84645.9268132","85412.557626","86179.36003","90021.4362147","Mapping"
"Mixed","Male","done","42","M_cad.wav","None","729.39028262","212","80063.2988842","86945.81245","87712.7168811","88479.0354291","89246.0567277","90012.2905622","90779.2809435","91545.475513","80829.8369452","81596.3848996","82362.4592007","83129.6316851","83879.0004307","84645.9268132","85412.557626","86179.36003","90788.2961249","Mapping"
"Mixed","Female","done","43","M_bluff.wav","None","729.613196512","212","94679.4365504","86945.81245","87712.7168811","88479.0354291","89246.0567277","90012.2905622","90779.2809435","91545.475513","80829.8369452","81596.3848996","82362.4592007","83129.6316851","83879.0004307","84645.9268132","85412.557626","86179.36003","91554.2816933","Mapping"
"Mixed","Female","done","43","M_gnash.wav","None","721.001486178","212","94679.4365504","86945.81245","87712.7168811","88479.0354291","89246.0567277","90012.2905622","90779.2809435","91545.475513","95446.0469579","81596.3848996","82362.4592007","83129.6316851","83879.0004307","84645.9268132","85412.557626","86179.36003","94689.605257","Mapping"
"Mixed","Female","done","43","F_done.wav","None","721.368474799","212","94679.4365504","86945.81245","87712.7168811","88479.0354291","89246.0567277","90012.2905622","90779.2809435","91545.475513","95446.0469579","96212.3611774","82362.4592007","83129.6316851","83879.0004307","84645.9268132","85412.557626","86179.36003","95455.1929194","Mapping"
"Mixed","Female","done","43","F_greet.wav","space","537.285824132","212","94679.4365504","86945.81245","87712.7168811","88479.0354291","89246.0567277","90012.2905622","90779.2809435","91545.475513","95446.0469579","96212.3611774","96979.4891408","83129.6316851","83879.0004307","84645.9268132","85412.557626","86179.36003","96221.9229769","Mapping"
"Mixed","Female","done","43","M_romp.wav","None","718.428856024","212","94679.4365504","86945.81245","87712.7168811","88479.0354291","89246.0567277","90012.2905622","90779.2809435","91545.475513","95446.0469579","96212.3611774","96979.4891408","97729.3519452","83879.0004307","84645.9268132","85412.557626","86179.36003","96989.8578823","Mapping"
"Mixed","Female","done","43","F_done.wav","None","735.681029706","212","94679.4365504","86945.81245","87712.7168811","88479.0354291","89246.0567277","90012.2905622","90779.2809435","91545.475513","95446.0469579","96212.3611774","96979.4891408","97729.3519452","98495.7029563","84645.9268132","85412.557626","86179.36003","97738.7542113","Mapping"
"Mixed","Female","done","43","F_cave.wav","space","533.961593872","212","94679.4365504","86945.81245","87712.7168811","88479.0354291","89246.0567277","90012.2905622","90779.2809435","91545.475513","95446.0469579","96212.3611774","96979.4891408","97729.3519452","98495.7029563","99261.8128123","85412.557626","86179.36003","98505.2072496","Mapping"
"Mixed","Female","done","43","M_gnash.wav","None","735.484086414","212","94679.4365504","86945.81245","87712.7168811","88479.0354291","89246.0567277","90012.2905622","90779.2809435","91545.475513","95446.0469579","96212.3611774","96979.4891408","97729.3519452","98495.7029563","99261.8128123","100028.638095","86179.36003","99270.8796256","Mapping"
"Mixed","Female","done","43","M_bluff.wav","None","734.40599945","212","94679.4365504","86945.81245","87712.7168811","88479.0354291","89246.0567277","90012.2905622","90779.2809435","91545.475513","95446.0469579","96212.3611774","96979.4891408","97729.3519452","98495.7029563","99261.8128123","100028.638095","100795.576845","100037.864133","Mapping"
"Mixed","Female","done","43","M_cling.wav","None","733.219392714","212","94679.4365504","101562.470145","87712.7168811","88479.0354291","89246.0567277","90012.2905622","90779.2809435","91545.475513","95446.0469579","96212.3611774","96979.4891408","97729.3519452","98495.7029563","99261.8128123","100028.638095","100795.576845","100805.110819","Mapping"
"Mixed","Female","done","43","F_done.wav","None","732.568273932","212","94679.4365504","101562.470145","102329.046853","88479.0354291","89246.0567277","90012.2905622","90779.2809435","91545.475513","95446.0469579","96212.3611774","96979.4891408","97729.3519452","98495.7029563","99261.8128123","100028.638095","100795.576845","101571.84675","Mapping"
"Mixed","Female","done","43","M_gnash.wav","space","532.737577189","212","94679.4365504","101562.470145","102329.046853","103095.2946","89246.0567277","90012.2905622","90779.2809435","91545.475513","95446.0469579","96212.3611774","96979.4891408","97729.3519452","98495.7029563","99261.8128123","100028.638095","100795.576845","102338.334725","Mapping"
"Mixed","Female","done","43","M_gnash.wav","None","731.321069266","212","94679.4365504","101562.470145","102329.046853","103095.2946","103862.25932","90012.2905622","90779.2809435","91545.475513","95446.0469579","96212.3611774","96979.4891408","97729.3519452","98495.7029563","99261.8128123","100028.638095","100795.576845","103104.630703","Mapping"
"Mixed","Female","done","43","F_done.wav","None","730.914815678","212","94679.4365504","101562.470145","102329.046853","103095.2946","103862.25932","104629.042865","90779.2809435","91545.475513","95446.0469579","96212.3611774","96979.4891408","97729.3519452","98495.7029563","99261.8128123","100028.638095","100795.576845","103871.70147","Mapping"
"Mixed","Female","done","43","F_jolt.wav","space","464.655165211","212","94679.4365504","101562.470145","102329.046853","103095.2946","103862.25932","104629.042865","105395.76983","91545.475513","95446.0469579","96212.3611774","96979.4891408","97729.3519452","98495.7029563","99261.8128123","100028.638095","100795.576845","104638.396282","Mapping"
"Mixed","Female","done","43","F_greet.wav","None","729.10460658","212","94679.4365504","101562.470145","102329.046853","103095.2946","103862.25932","104629.042865","105395.76983","106162.463715","95446.0469579","96212.3611774","96979.4891408","97729.3519452","98495.7029563","99261.8128123","100028.638095","100795.576845","105405.138397","Mapping"
"Mixed","Female","done","45","M_ball.wav","None","728.044451709","212","109296.085589","101562.470145","102329.046853","103095.2946","103862.25932","104629.042865","105395.76983","106162.463715","95446.0469579","96212.3611774","96979.4891408","97729.3519452","98495.7029563","99261.8128123","100028.638095","100795.576845","106172.298205","Mapping"
"Mixed","Female","done","45","F_knife.wav","None","721.61983262","212","109296.085589","101562.470145","102329.046853","103095.2946","103862.25932","104629.042865","105395.76983","106162.463715","110062.463189","96212.3611774","96979.4891408","97729.3519452","98495.7029563","99261.8128123","100028.638095","100795.576845","109305.89009","Mapping"
"Mixed","Female","done","45","F_done.wav","None","721.131029772","212","109296.085589","101562.470145","102329.046853","103095.2946","103862.25932","104629.042865","105395.76983","106162.463715","110062.463189","110829.374731","96979.4891408","97729.3519452","98495.7029563","99261.8128123","100028.638095","100795.576845","110072.324577","Mapping"
"Mixed","Female","done","45","F_ball.wav","space","544.130609604","212","109296.085589","101562.470145","102329.046853","103095.2946","103862.25932","104629.042865","105395.76983","106162.463715","110062.463189","110829.374731","111595.787577","97729.3519452","98495.7029563","99261.8128123","100028.638095","100795.576845","110838.789364","Mapping"
"Mixed","Female","done","45","F_knife.wav","None","718.950431183","212","109296.085589","101562.470145","102329.046853","103095.2946","103862.25932","104629.042865","105395.76983","106162.463715","110062.463189","110829.374731","111595.787577","112362.580087","98495.7029563","99261.8128123","100028.638095","100795.576845","111606.282152","Mapping"
"Mixed","Female","done","45","M_romp.wav","None","718.729681539","212","109296.085589","101562.470145","102329.046853","103095.2946","103862.25932","104629.042865","105395.76983","106162.463715","110062.463189","110829.374731","111595.787577","112362.580087","113111.945741","99261.8128123","100028.638095","100795.576845","112372.596062","Mapping"
"Mixed","Female","done","45","M_cave.wav","None","736.64379504","212","109296.085589","101562.470145","102329.046853","103095.2946","103862.25932","104629.042865","105395.76983","106162.463715","110062.463189","110829.374731","111595.787577","112362.580087","113111.945741","113878.435571","100028.638095","100795.576845","113120.903726","Mapping"
"Mixed","Female","done","45","M_romp.wav","None","735.820775997","212","109296.085589","101562.470145","102329.046853","103095.2946","103862.25932","104629.042865","105395.76983","106162.463715","110062.463189","110829.374731","111595.787577","112362.580087","113111.945741","113878.435571","114645.301665","100795.576845","113887.89658","Mapping"
"Mixed","Female","done","45","F_reek.wav","None","735.004558752","212","109296.085589","101562.470145","102329.046853","103095.2946","103862.25932","104629.042865","105395.76983","106162.463715","110062.463189","110829.374731","111595.787577","112362.580087","113111.945741","113878.435571","114645.301665","115411.579093","114654.898092","Mapping"
"Mixed","Female","done","45","M_priest.wav","None","735.479757976","212","109296.085589","116178.224437","102329.046853","103095.2946","103862.25932","104629.042865","105395.76983","106162.463715","110062.463189","110829.374731","111595.787577","112362.580087","113111.945741","113878.435571","114645.301665","115411.579093","115420.639413","Mapping"
"Mixed","Female","done","45","F_done.wav","None","734.516374301","212","109296.085589","116178.224437","116945.088676","103095.2946","103862.25932","104629.042865","105395.76983","106162.463715","110062.463189","110829.374731","111595.787577","112362.580087","113111.945741","113878.435571","114645.301665","115411.579093","116187.617737","Mapping"
"Mixed","Female","done","45","M_jaw.wav","space","500.91747148","212","109296.085589","116178.224437","116945.088676","117711.806984","103862.25932","104629.042865","105395.76983","106162.463715","110062.463189","110829.374731","111595.787577","112362.580087","113111.945741","113878.435571","114645.301665","115411.579093","116953.909696","Mapping"
"Mixed","Female","done","45","F_done.wav","None","733.734475245","212","109296.085589","116178.224437","116945.088676","117711.806984","118478.501796","104629.042865","105395.76983","106162.463715","110062.463189","110829.374731","111595.787577","112362.580087","113111.945741","113878.435571","114645.301665","115411.579093","117720.748583","Mapping"
"Mixed","Female","done","45","M_park.wav","space","463.152583456","212","109296.085589","116178.224437","116945.088676","117711.806984","118478.501796","119245.445801","105395.76983","106162.463715","110062.463189","110829.374731","111595.787577","112362.580087","113111.945741","113878.435571","114645.301665","115411.579093","118487.647449","Mapping"
"Mixed","Female","done","45","F_done.wav","None","732.034331828","212","109296.085589","116178.224437","116945.088676","117711.806984","118478.501796","119245.445801","120011.721374","106162.463715","110062.463189","110829.374731","111595.787577","112362.580087","113111.945741","113878.435571","114645.301665","115411.579093","119254.849923","Mapping"
"Mixed","Female","done","45","M_jaw.wav","space","442.089231714","212","109296.085589","116178.224437","116945.088676","117711.806984","118478.501796","119245.445801","120011.721374","120779.000833","110062.463189","110829.374731","111595.787577","112362.580087","113111.945741","113878.435571","114645.301665","115411.579093","120020.675958","Mapping"
"Mixed","Female","cave","24","M_cad.wav","None","730.132298311","212","123912.365166","116178.224437","116945.088676","117711.806984","118478.501796","119245.445801","120011.721374","120779.000833","110062.463189","110829.374731","111595.787577","112362.580087","113111.945741","113878.435571","114645.301665","115411.579093","120788.390732","Mapping"
"Mixed","Female","cave","24","F_cave.wav","None","720.788775012","212","123912.365166","116178.224437","116945.088676","117711.806984","118478.501796","119245.445801","120011.721374","120779.000833","124679.105117","110829.374731","111595.787577","112362.580087","113111.945741","113878.435571","114645.301665","115411.579093","123922.349914","Mapping"
"Mixed","Female","cave","24","F_jaw.wav","space","597.898302425","212","123912.365166","116178.224437","116945.088676","117711.806984","118478.501796","119245.445801","120011.721374","120779.000833","124679.105117","125445.837648","111595.787577","112362.580087","113111.945741","113878.435571","114645.301665","115411.579093","124688.778528","Mapping"
"Mixed","Female","cave","24","F_cave.wav","None","719.146446994","212","123912.365166","116178.224437","116945.088676","117711.806984","118478.501796","119245.445801","120011.721374","120779.000833","124679.105117","125445.837648","126212.140737","112362.580087","113111.945741","113878.435571","114645.301665","115411.579093","125455.751595","Mapping"
"Mixed","Female","cave","24","M_depth.wav","space","504.294570332","212","123912.365166","116178.224437","116945.088676","117711.806984","118478.501796","119245.445801","120011.721374","120779.000833","124679.105117","125445.837648","126212.140737","126961.695914","113111.945741","113878.435571","114645.301665","115411.579093","126222.395084","Mapping"
"Mixed","Female","cave","24","F_park.wav","None","735.5830218","212","123912.365166","116178.224437","116945.088676","117711.806984","118478.501796","119245.445801","120011.721374","120779.000833","124679.105117","125445.837648","126212.140737","126961.695914","127728.372484","113878.435571","114645.301665","115411.579093","126970.919478","Mapping"
"Mixed","Female","cave","24","F_cave.wav","None","734.908405866","212","123912.365166","116178.224437","116945.088676","117711.806984","118478.501796","119245.445801","120011.721374","120779.000833","124679.105117","125445.837648","126212.140737","126961.695914","127728.372484","128495.209516","114645.301665","115411.579093","127737.710752","Mapping"
"Mixed","Female","cave","24","F_jolt.wav","space","477.98609524","212","123912.365166","116178.224437","116945.088676","117711.806984","118478.501796","119245.445801","120011.721374","120779.000833","124679.105117","125445.837648","126212.140737","126961.695914","127728.372484","128495.209516","129261.360492","115411.579093","128504.59385","Mapping"
"Mixed","Female","cave","24","F_cave.wav","None","734.35096661","212","123912.365166","116178.224437","116945.088676","117711.806984","118478.501796","119245.445801","120011.721374","120779.000833","124679.105117","125445.837648","126212.140737","126961.695914","127728.372484","128495.209516","129261.360492","130028.570386","129270.232835","Mapping"
"Mixed","Female","cave","24","F_depth.wav","space","560.472268233","212","123912.365166","130794.75228","116945.088676","117711.806984","118478.501796","119245.445801","120011.721374","120779.000833","124679.105117","125445.837648","126212.140737","126961.695914","127728.372484","128495.209516","129261.360492","130028.570386","130038.129712","Mapping"
"Mixed","Female","cave","24","M_park.wav","None","732.578785828","212","123912.365166","130794.75228","131561.352175","117711.806984","118478.501796","119245.445801","120011.721374","120779.000833","124679.105117","125445.837648","126212.140737","126961.695914","127728.372484","128495.209516","129261.360492","130028.570386","130803.537436","Mapping"
"Mixed","Female","cave","24","M_bluff.wav","None","731.740926451","212","123912.365166","130794.75228","131561.352175","132328.559905","118478.501796","119245.445801","120011.721374","120779.000833","124679.105117","125445.837648","126212.140737","126961.695914","127728.372484","128495.209516","129261.360492","130028.570386","131570.390235","Mapping"
"Mixed","Female","cave","24","M_tile.wav","None","730.437452235","212","123912.365166","130794.75228","131561.352175","132328.559905","133094.725412","119245.445801","120011.721374","120779.000833","124679.105117","125445.837648","126212.140737","126961.695914","127728.372484","128495.209516","129261.360492","130028.570386","132337.887352","Mapping"
"Mixed","Female","cave","24","M_ball.wav","None","730.782489525","212","123912.365166","130794.75228","131561.352175","132328.559905","133094.725412","133861.752895","120011.721374","120779.000833","124679.105117","125445.837648","126212.140737","126961.695914","127728.372484","128495.209516","129261.360492","130028.570386","133103.812322","Mapping"
"Mixed","Female","cave","24","M_cad.wav","None","730.055314198","212","123912.365166","130794.75228","131561.352175","132328.559905","133094.725412","133861.752895","134628.013627","120779.000833","124679.105117","125445.837648","126212.140737","126961.695914","127728.372484","128495.209516","129261.360492","130028.570386","133871.046641","Mapping"
"Mixed","Female","cave","24","M_ball.wav","None","730.387057032","212","123912.365166","130794.75228","131561.352175","132328.559905","133094.725412","133861.752895","134628.013627","135395.116238","124679.105117","125445.837648","126212.140737","126961.695914","127728.372484","128495.209516","129261.360492","130028.570386","134637.008403","Mapping"
"Mixed","Male","tile","25","F_dime.wav","None","729.723262164","212","138528.857454","130794.75228","131561.352175","132328.559905","133094.725412","133861.752895","134628.013627","135395.116238","124679.105117","125445.837648","126212.140737","126961.695914","127728.372484","128495.209516","129261.360492","130028.570386","135403.995693","Mapping"
"Mixed","Male","tile","25","M_tile.wav","None","722.562501702","212","138528.857454","130794.75228","131561.352175","132328.559905","133094.725412","133861.752895","134628.013627","135395.116238","139295.389331","125445.837648","126212.140737","126961.695914","127728.372484","128495.209516","129261.360492","130028.570386","138538.427292","Mapping"
"Mixed","Male","tile","25","M_gnash.wav","space","469.033985253","212","138528.857454","130794.75228","131561.352175","132328.559905","133094.725412","133861.752895","134628.013627","135395.116238","139295.389331","140062.281395","126212.140737","126961.695914","127728.372484","128495.209516","129261.360492","130028.570386","139305.384591","Mapping"
"Mixed","Male","tile","25","M_tile.wav","None","720.987573382","212","138528.857454","130794.75228","131561.352175","132328.559905","133094.725412","133861.752895","134628.013627","135395.116238","139295.389331","140062.281395","140828.668889","126961.695914","127728.372484","128495.209516","129261.360492","130028.570386","140072.007675","Mapping"
"Mixed","Male","tile","25","F_lash.wav","space","496.118794254","212","138528.857454","130794.75228","131561.352175","132328.559905","133094.725412","133861.752895","134628.013627","135395.116238","139295.389331","140062.281395","140828.668889","141595.418115","127728.372484","128495.209516","129261.360492","130028.570386","140838.279847","Mapping"
"Mixed","Male","tile","25","M_tile.wav","None","720.061908854","212","138528.857454","130794.75228","131561.352175","132328.559905","133094.725412","133861.752895","134628.013627","135395.116238","139295.389331","140062.281395","140828.668889","141595.418115","142361.382969","128495.209516","129261.360492","130028.570386","141605.371637","Mapping"
"Mixed","Male","tile","25","F_gnash.wav","space","460.139072296","212","138528.857454","130794.75228","131561.352175","132328.559905","133094.725412","133861.752895","134628.013627","135395.116238","139295.389331","140062.281395","140828.668889","141595.418115","142361.382969","143127.99183","129261.360492","130028.570386","142370.240781","Mapping"
"Mixed","Male","tile","25","F_greet.wav","None","720.063454704","212","138528.857454","130794.75228","131561.352175","132328.559905","133094.725412","133861.752895","134628.013627","135395.116238","139295.389331","140062.281395","140828.668889","141595.418115","142361.382969","143127.99183","143878.281912","130028.570386","143137.315876","Mapping"
"Mixed","Male","tile","25","M_park.wav","None","736.808584363","212","138528.857454","130794.75228","131561.352175","132328.559905","133094.725412","133861.752895","134628.013627","135395.116238","139295.389331","140062.281395","140828.668889","141595.418115","142361.382969","143127.99183","143878.281912","144645.188508","143887.051919","Mapping"
"Mixed","Male","tile","25","M_tile.wav","None","735.392880306","212","138528.857454","145411.937734","131561.352175","132328.559905","133094.725412","133861.752895","134628.013627","135395.116238","139295.389331","140062.281395","140828.668889","141595.418115","142361.382969","143127.99183","143878.281912","144645.188508","144654.867484","Mapping"
"Mixed","Male","tile","25","F_dime.wav","space","504.946307454","212","138528.857454","145411.937734","146178.13354","132328.559905","133094.725412","133861.752895","134628.013627","135395.116238","139295.389331","140062.281395","140828.668889","141595.418115","142361.382969","143127.99183","143878.281912","144645.188508","145421.363497","Mapping"
"Mixed","Male","tile","25","F_knife.wav","None","734.867285879","212","138528.857454","145411.937734","146178.13354","146944.786304","133094.725412","133861.752895","134628.013627","135395.116238","139295.389331","140062.281395","140828.668889","141595.418115","142361.382969","143127.99183","143878.281912","144645.188508","146187.480464","Mapping"
"Mixed","Male","tile","25","M_greet.wav","None","734.668487479","212","138528.857454","145411.937734","146178.13354","146944.786304","147710.994477","133861.752895","134628.013627","135395.116238","139295.389331","140062.281395","140828.668889","141595.418115","142361.382969","143127.99183","143878.281912","144645.188508","146954.271429","Mapping"
"Mixed","Male","tile","25","F_jaw.wav","None","735.325171379","212","138528.857454","145411.937734","146178.13354","146944.786304","147710.994477","148478.028143","134628.013627","135395.116238","139295.389331","140062.281395","140828.668889","141595.418115","142361.382969","143127.99183","143878.281912","144645.188508","147720.155279","Mapping"
"Mixed","Male","tile","25","M_lash.wav","None","734.80947045","212","138528.857454","145411.937734","146178.13354","146944.786304","147710.994477","148478.028143","149244.436042","135395.116238","139295.389331","140062.281395","140828.668889","141595.418115","142361.382969","143127.99183","143878.281912","144645.188508","148487.426081","Mapping"
"Mixed","Male","tile","25","F_greet.wav","None","735.63867301","212","138528.857454","145411.937734","146178.13354","146944.786304","147710.994477","148478.028143","149244.436042","150011.679018","139295.389331","140062.281395","140828.668889","141595.418115","142361.382969","143127.99183","143878.281912","144645.188508","149253.115461","Mapping"
"Mixed","Male","cave","18","F_gnash.wav","None","734.309228254","212","153145.113842","145411.937734","146178.13354","146944.786304","147710.994477","148478.028143","149244.436042","150011.679018","139295.389331","140062.281395","140828.668889","141595.418115","142361.382969","143127.99183","143878.281912","144645.188508","150020.860534","Mapping"
"Mixed","Male","cave","18","M_cling.wav","None","721.597881289","212","153145.113842","145411.937734","146178.13354","146944.786304","147710.994477","148478.028143","149244.436042","150011.679018","153911.871416","140062.281395","140828.668889","141595.418115","142361.382969","143127.99183","143878.281912","144645.188508","153155.249776","Mapping"
"Mixed","Male","cave","18","F_cad.wav","None","719.586400461","212","153145.113842","145411.937734","146178.13354","146944.786304","147710.994477","148478.028143","149244.436042","150011.679018","153911.871416","154678.566537","140828.668889","141595.418115","142361.382969","143127.99183","143878.281912","144645.188508","153923.676886","Mapping"
"Mixed","Male","cave","18","M_cling.wav","None","721.350233565","212","153145.113842","145411.937734","146178.13354","146944.786304","147710.994477","148478.028143","149244.436042","150011.679018","153911.871416","154678.566537","155445.10027","141595.418115","142361.382969","143127.99183","143878.281912","144645.188508","154688.207485","Mapping"
"Mixed","Male","cave","18","F_greet.wav","None","720.793412649","212","153145.113842","145411.937734","146178.13354","146944.786304","147710.994477","148478.028143","149244.436042","150011.679018","153911.871416","154678.566537","155445.10027","156211.185083","142361.382969","143127.99183","143878.281912","144645.188508","155455.101095","Mapping"
"Mixed","Male","cave","18","M_cave.wav","None","722.125021624","212","153145.113842","145411.937734","146178.13354","146944.786304","147710.994477","148478.028143","149244.436042","150011.679018","153911.871416","154678.566537","155445.10027","156211.185083","156978.544617","143127.99183","143878.281912","144645.188508","156220.182332","Mapping"
"Mixed","Male","cave","18","F_knife.wav","space","514.023323427","212","153145.113842","145411.937734","146178.13354","146944.786304","147710.994477","148478.028143","149244.436042","150011.679018","153911.871416","154678.566537","155445.10027","156211.185083","156978.544617","157745.058871","143878.281912","144645.188508","156988.096832","Mapping"
"Mixed","Male","cave","18","M_cave.wav","None","719.549608853","212","153145.113842","145411.937734","146178.13354","146944.786304","147710.994477","148478.028143","149244.436042","150011.679018","153911.871416","154678.566537","155445.10027","156211.185083","156978.544617","157745.058871","158511.899613","144645.188508","157754.859352","Mapping"
"Mixed","Male","cave","18","F_jolt.wav","space","420.516980899","212","153145.113842","145411.937734","146178.13354","146944.786304","147710.994477","148478.028143","149244.436042","150011.679018","153911.871416","154678.566537","155445.10027","156211.185083","156978.544617","157745.058871","158511.899613","159261.242388","158521.557874","Mapping"
"Mixed","Male","cave","18","M_jolt.wav","None","735.17800495","212","153145.113842","160027.478696","146178.13354","146944.786304","147710.994477","148478.028143","149244.436042","150011.679018","153911.871416","154678.566537","155445.10027","156211.185083","156978.544617","157745.058871","158511.899613","159261.242388","159271.023082","Mapping"
"Mixed","Male","cave","18","M_cave.wav","None","736.117891473","212","153145.113842","160027.478696","160794.296558","146944.786304","147710.994477","148478.028143","149244.436042","150011.679018","153911.871416","154678.566537","155445.10027","156211.185083","156978.544617","157745.058871","158511.899613","159261.242388","160036.606416","Mapping"
"Mixed","Male","cave","18","F_gnash.wav","space","666.309674678","212","153145.113842","160027.478696","160794.296558","161560.776804","147710.994477","148478.028143","149244.436042","150011.679018","153911.871416","154678.566537","155445.10027","156211.185083","156978.544617","157745.058871","158511.899613","159261.242388","160803.711501","Mapping"
"Mixed","Male","cave","18","M_cave.wav","None","734.879034426","212","153145.113842","160027.478696","160794.296558","161560.776804","162327.935375","148478.028143","149244.436042","150011.679018","153911.871416","154678.566537","155445.10027","156211.185083","156978.544617","157745.058871","158511.899613","159261.242388","161569.826922","Mapping"
"Mixed","Male","cave","18","F_depth.wav","space","484.735964536","212","153145.113842","160027.478696","160794.296558","161560.776804","162327.935375","163094.640081","149244.436042","150011.679018","153911.871416","154678.566537","155445.10027","156211.185083","156978.544617","157745.058871","158511.899613","159261.242388","162337.266841","Mapping"
"Mixed","Male","cave","18","M_done.wav","None","732.522825478","212","153145.113842","160027.478696","160794.296558","161560.776804","162327.935375","163094.640081","163861.280169","150011.679018","153911.871416","154678.566537","155445.10027","156211.185083","156978.544617","157745.058871","158511.899613","159261.242388","163104.037091","Mapping"
"Mixed","Male","cave","18","F_tile.wav","None","732.300529955","212","153145.113842","160027.478696","160794.296558","161560.776804","162327.935375","163094.640081","163861.280169","164627.978381","153911.871416","154678.566537","155445.10027","156211.185083","156978.544617","157745.058871","158511.899613","159261.242388","163870.662029","Mapping"
"Mixed","Female","tile","33","M_knife.wav","None","731.246867683","212","167761.550788","160027.478696","160794.296558","161560.776804","162327.935375","163094.640081","163861.280169","164627.978381","153911.871416","154678.566537","155445.10027","156211.185083","156978.544617","157745.058871","158511.899613","159261.242388","164637.941488","Mapping"
"Mixed","Female","tile","33","M_park.wav","None","721.958686423","212","167761.550788","160027.478696","160794.296558","161560.776804","162327.935375","163094.640081","163861.280169","164627.978381","168528.221484","154678.566537","155445.10027","156211.185083","156978.544617","157745.058871","158511.899613","159261.242388","167771.595825","Mapping"
"Mixed","Female","tile","33","M_ball.wav","None","722.317018168","212","167761.550788","160027.478696","160794.296558","161560.776804","162327.935375","163094.640081","163861.280169","164627.978381","168528.221484","169294.965145","155445.10027","156211.185083","156978.544617","157745.058871","158511.899613","159261.242388","168537.779883","Mapping"
"Mixed","Female","tile","33","F_tile.wav","None","721.589842811","212","167761.550788","160027.478696","160794.296558","161560.776804","162327.935375","163094.640081","163861.280169","164627.978381","168528.221484","169294.965145","170061.160642","156211.185083","156978.544617","157745.058871","158511.899613","159261.242388","169304.964425","Mapping"
"Mixed","Female","tile","33","F_jolt.wav","space","334.092559642","212","167761.550788","160027.478696","160794.296558","161560.776804","162327.935375","163094.640081","163861.280169","164627.978381","168528.221484","169294.965145","170061.160642","170827.766103","156978.544617","157745.058871","158511.899613","159261.242388","170071.772085","Mapping"
"Mixed","Female","tile","33","M_bluff.wav","None","722.057931009","212","167761.550788","160027.478696","160794.296558","161560.776804","162327.935375","163094.640081","163861.280169","164627.978381","168528.221484","169294.965145","170061.160642","170827.766103","171594.890356","157745.058871","158511.899613","159261.242388","170836.697189","Mapping"
"Mixed","Female","tile","33","M_ball.wav","None","720.572353806","212","167761.550788","160027.478696","160794.296558","161560.776804","162327.935375","163094.640081","163861.280169","164627.978381","168528.221484","169294.965145","170061.160642","170827.766103","171594.890356","172361.478503","158511.899613","159261.242388","171604.718663","Mapping"
"Mixed","Female","tile","33","F_tile.wav","None","720.344802336","212","167761.550788","160027.478696","160794.296558","161560.776804","162327.935375","163094.640081","163861.280169","164627.978381","168528.221484","169294.965145","170061.160642","170827.766103","171594.890356","172361.478503","173127.455724","159261.242388","172371.448412","Mapping"
"Mixed","Female","tile","33","F_dime.wav","space","452.989132871","212","167761.550788","160027.478696","160794.296558","161560.776804","162327.935375","163094.640081","163861.280169","164627.978381","168528.221484","169294.965145","170061.160642","170827.766103","171594.890356","172361.478503","173127.455724","173894.988086","173136.776987","Mapping"
"Mixed","Female","tile","33","M_knife.wav","None","720.039957552","212","167761.550788","174661.359812","160794.296558","161560.776804","162327.935375","163094.640081","163861.280169","164627.978381","168528.221484","169294.965145","170061.160642","170827.766103","171594.890356","172361.478503","173127.455724","173894.988086","173903.976678","Mapping"
"Mixed","Female","tile","33","F_jaw.wav","None","719.180456043","212","167761.550788","174661.359812","175428.051223","161560.776804","162327.935375","163094.640081","163861.280169","164627.978381","168528.221484","169294.965145","170061.160642","170827.766103","171594.890356","172361.478503","173127.455724","173894.988086","174671.261393","Mapping"
"Mixed","Female","tile","33","F_tile.wav","None","719.224667817","212","167761.550788","174661.359812","175428.051223","176194.672451","162327.935375","163094.640081","163861.280169","164627.978381","168528.221484","169294.965145","170061.160642","170827.766103","171594.890356","172361.478503","173127.455724","173894.988086","175437.759879","Mapping"
"Mixed","Female","tile","33","F_park.wav","space","609.289788961","212","167761.550788","174661.359812","175428.051223","176194.672451","176944.187126","163094.640081","163861.280169","164627.978381","168528.221484","169294.965145","170061.160642","170827.766103","171594.890356","172361.478503","173127.455724","173894.988086","176204.474169","Mapping"
"Mixed","Female","tile","33","M_romp.wav","None","735.512530344","212","167761.550788","174661.359812","175428.051223","176194.672451","176944.187126","177710.789805","163861.280169","164627.978381","168528.221484","169294.965145","170061.160642","170827.766103","171594.890356","172361.478503","173127.455724","173894.988086","176953.652464","Mapping"
"Mixed","Female","tile","33","F_tile.wav","None","735.618885898","212","167761.550788","174661.359812","175428.051223","176194.672451","176944.187126","177710.789805","178477.112063","164627.978381","168528.221484","169294.965145","170061.160642","170827.766103","171594.890356","172361.478503","173127.455724","173894.988086","177720.185887","Mapping"
"Mixed","Female","tile","33","M_greet.wav","space","655.827775685","212","167761.550788","174661.359812","175428.051223","176194.672451","176944.187126","177710.789805","178477.112063","179244.005673","168528.221484","169294.965145","170061.160642","170827.766103","171594.890356","172361.478503","173127.455724","173894.988086","178485.882688","Mapping"
"Mixed","Female","done","44","M_knife.wav","None","735.031766002","212","182378.051114","174661.359812","175428.051223","176194.672451","176944.187126","177710.789805","178477.112063","179244.005673","168528.221484","169294.965145","170061.160642","170827.766103","171594.890356","172361.478503","173127.455724","173894.988086","179252.914498","Mapping"
"Mixed","Female","done","44","F_done.wav","None","722.514888999","212","182378.051114","174661.359812","175428.051223","176194.672451","176944.187126","177710.789805","178477.112063","179244.005673","183143.651762","169294.965145","170061.160642","170827.766103","171594.890356","172361.478503","173127.455724","173894.988086","182388.02566","Mapping"
"Mixed","Female","done","44","M_bluff.wav","space","445.135206071","212","182378.051114","174661.359812","175428.051223","176194.672451","176944.187126","177710.789805","178477.112063","179244.005673","183143.651762","183910.994601","170061.160642","170827.766103","171594.890356","172361.478503","173127.455724","173894.988086","183152.45145","Mapping"
"Mixed","Female","done","44","M_jaw.wav","None","725.663199701","212","182378.051114","174661.359812","175428.051223","176194.672451","176944.187126","177710.789805","178477.112063","179244.005673","183143.651762","183910.994601","184677.182987","170827.766103","171594.890356","172361.478503","173127.455724","173894.988086","183920.468904","Mapping"
"Mixed","Female","done","44","F_reek.wav","None","726.568149665","212","182378.051114","174661.359812","175428.051223","176194.672451","176944.187126","177710.789805","178477.112063","179244.005673","183143.651762","183910.994601","184677.182987","185444.002705","171594.890356","172361.478503","173127.455724","173894.988086","184686.096141","Mapping"
"Mixed","Female","done","44","M_cling.wav","None","726.396558544","212","182378.051114","174661.359812","175428.051223","176194.672451","176944.187126","177710.789805","178477.112063","179244.005673","183143.651762","183910.994601","184677.182987","185444.002705","186210.318779","172361.478503","173127.455724","173894.988086","185453.452583","Mapping"
"Mixed","Female","done","44","F_jaw.wav","None","727.32655151","212","182378.051114","174661.359812","175428.051223","176194.672451","176944.187126","177710.789805","178477.112063","179244.005673","183143.651762","183910.994601","184677.182987","185444.002705","186210.318779","186977.476114","173127.455724","173894.988086","186219.142892","Mapping"
"Mixed","Female","done","44","F_done.wav","None","726.419128187","212","182378.051114","174661.359812","175428.051223","176194.672451","176944.187126","177710.789805","178477.112063","179244.005673","183143.651762","183910.994601","184677.182987","185444.002705","186210.318779","186977.476114","187743.695417","173894.988086","186986.665978","Mapping"
"Mixed","Female","done","44","M_ball.wav","space","428.922163468","212","182378.051114","174661.359812","175428.051223","176194.672451","176944.187126","177710.789805","178477.112063","179244.005673","183143.651762","183910.994601","184677.182987","185444.002705","186210.318779","186977.476114","187743.695417","188511.086487","187752.660513","Mapping"
"Mixed","Female","done","44","F_done.wav","None","724.556668836","212","182378.051114","189277.502734","175428.051223","176194.672451","176944.187126","177710.789805","178477.112063","179244.005673","183143.651762","183910.994601","184677.182987","185444.002705","186210.318779","186977.476114","187743.695417","188511.086487","188520.553371","Mapping"
"Mixed","Female","done","44","M_romp.wav","space","518.483765161","212","182378.051114","189277.502734","190044.514139","176194.672451","176944.187126","177710.789805","178477.112063","179244.005673","183143.651762","183910.994601","184677.182987","185444.002705","186210.318779","186977.476114","187743.695417","188511.086487","189287.049693","Mapping"
"Mixed","Female","done","44","F_jaw.wav","None","723.11344833","212","182378.051114","189277.502734","190044.514139","190811.321181","176944.187126","177710.789805","178477.112063","179244.005673","183143.651762","183910.994601","184677.182987","185444.002705","186210.318779","186977.476114","187743.695417","188511.086487","190054.543408","Mapping"
"Mixed","Female","done","44","F_priest.wav","None","723.305754043","212","182378.051114","189277.502734","190044.514139","190811.321181","191577.906236","177710.789805","178477.112063","179244.005673","183143.651762","183910.994601","184677.182987","185444.002705","186210.318779","186977.476114","187743.695417","188511.086487","190821.128464","Mapping"
"Mixed","Female","done","44","F_done.wav","None","722.900427994","212","182378.051114","189277.502734","190044.514139","190811.321181","191577.906236","192344.451099","178477.112063","179244.005673","183143.651762","183910.994601","184677.182987","185444.002705","186210.318779","186977.476114","187743.695417","188511.086487","191588.060102","Mapping"
"Mixed","Female","done","44","M_cave.wav","space","538.985349209","212","182378.051114","189277.502734","190044.514139","190811.321181","191577.906236","192344.451099","193111.140036","179244.005673","183143.651762","183910.994601","184677.182987","185444.002705","186210.318779","186977.476114","187743.695417","188511.086487","192354.474185","Mapping"
"Mixed","Female","done","44","M_jolt.wav","None","722.014028433","212","182378.051114","189277.502734","190044.514139","190811.321181","191577.906236","192344.451099","193111.140036","193877.109218","183143.651762","183910.994601","184677.182987","185444.002705","186210.318779","186977.476114","187743.695417","188511.086487","193120.941754","Mapping"
"Mixed","Female","done","47","F_bluff.wav","None","723.319976008","212","197010.917833","189277.502734","190044.514139","190811.321181","191577.906236","192344.451099","193111.140036","193877.109218","183143.651762","183910.994601","184677.182987","185444.002705","186210.318779","186977.476114","187743.695417","188511.086487","193886.190253","Mapping"
"Mixed","Female","done","47","F_done.wav","None","721.8229594","212","197010.917833","189277.502734","190044.514139","190811.321181","191577.906236","192344.451099","193111.140036","193877.109218","197777.100654","183910.994601","184677.182987","185444.002705","186210.318779","186977.476114","187743.695417","188511.086487","197021.034289","Mapping"
"Mixed","Female","done","47","F_priest.wav","space","483.28841562","212","197010.917833","189277.502734","190044.514139","190811.321181","191577.906236","192344.451099","193111.140036","193877.109218","197777.100654","198544.43329","184677.182987","185444.002705","186210.318779","186977.476114","187743.695417","188511.086487","197786.081826","Mapping"
"Mixed","Female","done","47","M_ball.wav","None","720.355005033","212","197010.917833","189277.502734","190044.514139","190811.321181","191577.906236","192344.451099","193111.140036","193877.109218","197777.100654","198544.43329","199311.145106","185444.002705","186210.318779","186977.476114","187743.695417","188511.086487","198554.520993","Mapping"
"Mixed","Female","done","47","F_done.wav","None","720.802687836","212","197010.917833","189277.502734","190044.514139","190811.321181","191577.906236","192344.451099","193111.140036","193877.109218","197777.100654","198544.43329","199311.145106","200077.133457","186210.318779","186977.476114","187743.695417","188511.086487","199320.776779","Mapping"
"Mixed","Female","done","47","M_jolt.wav","space","447.0313653","212","197010.917833","189277.502734","190044.514139","190811.321181","191577.906236","192344.451099","193111.140036","193877.109218","197777.100654","198544.43329","199311.145106","200077.133457","200844.182272","186977.476114","187743.695417","188511.086487","200086.305699","Mapping"
"Mixed","Female","done","47","F_romp.wav","None","719.47417059","212","197010.917833","189277.502734","190044.514139","190811.321181","191577.906236","192344.451099","193111.140036","193877.109218","197777.100654","198544.43329","199311.145106","200077.133457","200844.182272","201610.929644","187743.695417","188511.086487","200854.196702","Mapping"
"Mixed","Female","done","47","M_cad.wav","None","719.555483141","212","197010.917833","189277.502734","190044.514139","190811.321181","191577.906236","192344.451099","193111.140036","193877.109218","197777.100654","198544.43329","199311.145106","200077.133457","200844.182272","201610.929644","202377.552418","188511.086487","201620.864306","Mapping"
"Mixed","Female","done","47","F_done.wav","None","719.231778814","212","197010.917833","189277.502734","190044.514139","190811.321181","191577.906236","192344.451099","193111.140036","193877.109218","197777.100654","198544.43329","199311.145106","200077.133457","200844.182272","201610.929644","202377.552418","203144.220641","202387.830263","Mapping"
"Mixed","Female","done","47","F_reek.wav","space","514.728238282","212","197010.917833","203894.156719","190044.514139","190811.321181","191577.906236","192344.451099","193111.140036","193877.109218","197777.100654","198544.43329","199311.145106","200077.133457","200844.182272","201610.929644","202377.552418","203144.220641","203154.520746","Mapping"
"Mixed","Female","done","47","M_knife.wav","None","735.418232478","212","197010.917833","203894.156719","204660.710239","190811.321181","191577.906236","192344.451099","193111.140036","193877.109218","197777.100654","198544.43329","199311.145106","200077.133457","200844.182272","201610.929644","202377.552418","203144.220641","203903.724702","Mapping"
"Mixed","Female","done","47","F_done.wav","None","735.464608471","212","197010.917833","203894.156719","204660.710239","205427.241189","191577.906236","192344.451099","193111.140036","193877.109218","197777.100654","198544.43329","199311.145106","200077.133457","200844.182272","201610.929644","202377.552418","203144.220641","204670.366027","Mapping"
"Mixed","Female","done","47","M_lash.wav","space","368.563825556","212","197010.917833","203894.156719","204660.710239","205427.241189","206193.381344","192344.451099","193111.140036","193877.109218","197777.100654","198544.43329","199311.145106","200077.133457","200844.182272","201610.929644","202377.552418","203144.220641","205436.677155","Mapping"
"Mixed","Female","done","47","M_reek.wav","None","735.361653817","212","197010.917833","203894.156719","204660.710239","205427.241189","206193.381344","206960.172308","193111.140036","193877.109218","197777.100654","198544.43329","199311.145106","200077.133457","200844.182272","201610.929644","202377.552418","203144.220641","206202.583575","Mapping"
"Mixed","Female","done","47","M_knife.wav","None","735.306930146","212","197010.917833","203894.156719","204660.710239","205427.241189","206193.381344","206960.172308","207744.08343","193877.109218","197777.100654","198544.43329","199311.145106","200077.133457","200844.182272","201610.929644","202377.552418","203144.220641","206969.631772","Mapping"
"Mixed","Female","done","47","M_ball.wav","None","709.862594143","212","197010.917833","203894.156719","204660.710239","205427.241189","206193.381344","206960.172308","207744.08343","208493.62624","197777.100654","198544.43329","199311.145106","200077.133457","200844.182272","201610.929644","202377.552418","203144.220641","207761.825334","Mapping"
"Mixed","Male","done","37","F_ball.wav","None","734.458868072","212","211627.373329","203894.156719","204660.710239","205427.241189","206193.381344","206960.172308","207744.08343","208493.62624","197777.100654","198544.43329","199311.145106","200077.133457","200844.182272","201610.929644","202377.552418","203144.220641","208503.738986","Mapping"
"Mixed","Male","done","37","M_jolt.wav","None","722.16861503","212","211627.373329","203894.156719","204660.710239","205427.241189","206193.381344","206960.172308","207744.08343","208493.62624","212394.059484","198544.43329","199311.145106","200077.133457","200844.182272","201610.929644","202377.552418","203144.220641","211637.524413","Mapping"
"Mixed","Male","done","37","M_done.wav","None","722.319182387","212","211627.373329","203894.156719","204660.710239","205427.241189","206193.381344","206960.172308","207744.08343","208493.62624","212394.059484","213161.043682","199311.145106","200077.133457","200844.182272","201610.929644","202377.552418","203144.220641","212404.030629","Mapping"
"Mixed","Male","done","37","F_depth.wav","space","609.979554371","212","211627.373329","203894.156719","204660.710239","205427.241189","206193.381344","206960.172308","207744.08343","208493.62624","212394.059484","213161.043682","213926.861679","200077.133457","200844.182272","201610.929644","202377.552418","203144.220641","213171.109125","Mapping"
"Mixed","Male","done","37","M_done.wav","None","720.650265459","212","211627.373329","203894.156719","204660.710239","205427.241189","206193.381344","206960.172308","207744.08343","208493.62624","212394.059484","213161.043682","213926.861679","214693.970164","200844.182272","201610.929644","202377.552418","203144.220641","213937.915548","Mapping"
"Mixed","Male","done","37","M_park.wav","space","644.727221137","212","211627.373329","203894.156719","204660.710239","205427.241189","206193.381344","206960.172308","207744.08343","208493.62624","212394.059484","213161.043682","213926.861679","214693.970164","215460.624165","201610.929644","202377.552418","203144.220641","214704.33736","Mapping"
"Mixed","Male","done","37","M_done.wav","None","719.752735633","212","211627.373329","203894.156719","204660.710239","205427.241189","206193.381344","206960.172308","207744.08343","208493.62624","212394.059484","213161.043682","213926.861679","214693.970164","215460.624165","216227.187887","202377.552418","203144.220641","215471.192633","Mapping"
"Mixed","Male","done","37","M_lash.wav","space","584.030956874","212","211627.373329","203894.156719","204660.710239","205427.241189","206193.381344","206960.172308","207744.08343","208493.62624","212394.059484","213161.043682","213926.861679","214693.970164","215460.624165","216227.187887","216993.459441","203144.220641","216237.025469","Mapping"
"Mixed","Male","done","37","M_priest.wav","None","720.777953975","212","211627.373329","203894.156719","204660.710239","205427.241189","206193.381344","206960.172308","207744.08343","208493.62624","212394.059484","213161.043682","213926.861679","214693.970164","215460.624165","216227.187887","216993.459441","217760.010487","217003.040409","Mapping"
"Mixed","Male","done","37","F_jaw.wav","None","721.368165629","212","211627.373329","218526.798978","204660.710239","205427.241189","206193.381344","206960.172308","207744.08343","208493.62624","212394.059484","213161.043682","213926.861679","214693.970164","215460.624165","216227.187887","216993.459441","217760.010487","217769.147792","Mapping"
"Mixed","Male","done","37","F_jaw.wav","None","719.808077643","212","211627.373329","218526.798978","219293.138241","205427.241189","206193.381344","206960.172308","207744.08343","208493.62624","212394.059484","213161.043682","213926.861679","214693.970164","215460.624165","216227.187887","216993.459441","217760.010487","218537.501318","Mapping"
"Mixed","Male","done","37","M_done.wav","None","721.474830352","212","211627.373329","218526.798978","219293.138241","220060.631956","206193.381344","206960.172308","207744.08343","208493.62624","212394.059484","213161.043682","213926.861679","214693.970164","215460.624165","216227.187887","216993.459441","217760.010487","219302.596158","Mapping"
"Mixed","Male","done","37","F_reek.wav","space","453.984361404","212","211627.373329","218526.798978","219293.138241","220060.631956","220827.339753","206960.172308","207744.08343","208493.62624","212394.059484","213161.043682","213926.861679","214693.970164","215460.624165","216227.187887","216993.459441","217760.010487","220071.005026","Mapping"
"Mixed","Male","done","37","F_reek.wav","None","719.1003802","212","211627.373329","218526.798978","219293.138241","220060.631956","220827.339753","221593.329959","207744.08343","208493.62624","212394.059484","213161.043682","213926.861679","214693.970164","215460.624165","216227.187887","216993.459441","217760.010487","220837.569985","Mapping"
"Mixed","Male","done","37","F_jolt.wav","None","720.576682215","212","211627.373329","218526.798978","219293.138241","220060.631956","220827.339753","221593.329959","222360.593959","208493.62624","212394.059484","213161.043682","213926.861679","214693.970164","215460.624165","216227.187887","216993.459441","217760.010487","221602.967815","Mapping"
"Mixed","Male","done","37","F_priest.wav","None","719.537241937","212","211627.373329","218526.798978","219293.138241","220060.631956","220827.339753","221593.329959","222360.593959","223126.654966","212394.059484","213161.043682","213926.861679","214693.970164","215460.624165","216227.187887","216993.459441","217760.010487","222370.73113","Mapping"
"Mixed","Male","ball","6","M_knife.wav","None","721.063629986","212","226260.293535","218526.798978","219293.138241","220060.631956","220827.339753","221593.329959","222360.593959","223126.654966","212394.059484","213161.043682","213926.861679","214693.970164","215460.624165","216227.187887","216993.459441","217760.010487","223136.102371","Mapping"
"Mixed","Male","ball","6","M_ball.wav","None","721.428454388","212","226260.293535","218526.798978","219293.138241","220060.631956","220827.339753","221593.329959","222360.593959","223126.654966","227026.588586","213161.043682","213926.861679","214693.970164","215460.624165","216227.187887","216993.459441","217760.010487","226270.904359","Mapping"
"Mixed","Male","ball","6","M_cave.wav","space","441.005270462","212","226260.293535","218526.798978","219293.138241","220060.631956","220827.339753","221593.329959","222360.593959","223126.654966","227026.588586","227793.871136","213926.861679","214693.970164","215460.624165","216227.187887","216993.459441","217760.010487","227035.869347","Mapping"
"Mixed","Male","ball","6","M_ball.wav","None","720.799596107","212","226260.293535","218526.798978","219293.138241","220060.631956","220827.339753","221593.329959","222360.593959","223126.654966","227026.588586","227793.871136","228560.412598","214693.970164","215460.624165","216227.187887","216993.459441","217760.010487","227804.042625","Mapping"
"Mixed","Male","ball","6","F_cave.wav","space","410.309318511","212","226260.293535","218526.798978","219293.138241","220060.631956","220827.339753","221593.329959","222360.593959","223126.654966","227026.588586","227793.871136","228560.412598","229327.062889","215460.624165","216227.187887","216993.459441","217760.010487","228570.519779","Mapping"
"Mixed","Male","ball","6","F_park.wav","None","720.565551979","212","226260.293535","218526.798978","219293.138241","220060.631956","220827.339753","221593.329959","222360.593959","223126.654966","227026.588586","227793.871136","228560.412598","229327.062889","230093.11462","216227.187887","216993.459441","217760.010487","229337.546024","Mapping"
"Mixed","Male","ball","6","F_priest.wav","None","722.402349958","212","226260.293535","218526.798978","219293.138241","220060.631956","220827.339753","221593.329959","222360.593959","223126.654966","227026.588586","227793.871136","228560.412598","229327.062889","230093.11462","230860.403354","216993.459441","217760.010487","230102.621078","Mapping"
"Mixed","Male","ball","6","M_knife.wav","None","721.041678713","212","226260.293535","218526.798978","219293.138241","220060.631956","220827.339753","221593.329959","222360.593959","223126.654966","227026.588586","227793.871136","228560.412598","229327.062889","230093.11462","230860.403354","231627.075286","217760.010487","230870.879378","Mapping"
"Mixed","Male","ball","6","F_dime.wav","None","721.580258425","212","226260.293535","218526.798978","219293.138241","220060.631956","220827.339753","221593.329959","222360.593959","223126.654966","227026.588586","227793.871136","228560.412598","229327.062889","230093.11462","230860.403354","231627.075286","232394.656807","231636.969756","Mapping"
"Mixed","Male","ball","6","M_ball.wav","None","721.019109071","212","226260.293535","233159.750102","219293.138241","220060.631956","220827.339753","221593.329959","222360.593959","223126.654966","227026.588586","227793.871136","228560.412598","229327.062889","230093.11462","230860.403354","231627.075286","232394.656807","232404.469964","Mapping"
"Mixed","Male","ball","6","M_romp.wav","space","539.858454315","212","226260.293535","233159.750102","233927.061405","220060.631956","220827.339753","221593.329959","222360.593959","223126.654966","227026.588586","227793.871136","228560.412598","229327.062889","230093.11462","230860.403354","231627.075286","232394.656807","233168.900082","Mapping"
"Mixed","Male","ball","6","F_greet.wav","None","720.686129527","212","226260.293535","233159.750102","233927.061405","234693.576278","220827.339753","221593.329959","222360.593959","223126.654966","227026.588586","227793.871136","228560.412598","229327.062889","230093.11462","230860.403354","231627.075286","232394.656807","233937.530937","Mapping"
"Mixed","Male","ball","6","F_gnash.wav","None","721.887267398","212","226260.293535","233159.750102","233927.061405","234693.576278","235460.253776","221593.329959","222360.593959","223126.654966","227026.588586","227793.871136","228560.412598","229327.062889","230093.11462","230860.403354","231627.075286","232394.656807","234703.391599","Mapping"
"Mixed","Male","ball","6","M_ball.wav","None","722.169233399","212","226260.293535","233159.750102","233927.061405","234693.576278","235460.253776","236226.460403","222360.593959","223126.654966","227026.588586","227793.871136","228560.412598","229327.062889","230093.11462","230860.403354","231627.075286","232394.656807","235470.488027","Mapping"
"Mixed","Male","ball","6","F_jaw.wav","space","449.069744209","212","226260.293535","233159.750102","233927.061405","234693.576278","235460.253776","236226.460403","236993.677408","223126.654966","227026.588586","227793.871136","228560.412598","229327.062889","230093.11462","230860.403354","231627.075286","232394.656807","236235.623987","Mapping"
"Mixed","Male","ball","6","F_cad.wav","None","721.134739841","212","226260.293535","233159.750102","233927.061405","234693.576278","235460.253776","236226.460403","236993.677408","237759.678435","227026.588586","227793.871136","228560.412598","229327.062889","230093.11462","230860.403354","231627.075286","232394.656807","237004.229489","Mapping"
"Mixed","Female","cave","19","M_priest.wav","None","723.611217196","212","240893.625251","233159.750102","233927.061405","234693.576278","235460.253776","236226.460403","236993.677408","237759.678435","227026.588586","227793.871136","228560.412598","229327.062889","230093.11462","230860.403354","231627.075286","232394.656807","237768.78946","Mapping"
"Mixed","Female","cave","19","M_cad.wav","None","721.550268616","212","240893.625251","233159.750102","233927.061405","234693.576278","235460.253776","236226.460403","236993.677408","237759.678435","241659.548675","227793.871136","228560.412598","229327.062889","230093.11462","230860.403354","231627.075286","232394.656807","240903.653283","Mapping"
"Mixed","Female","cave","19","F_cave.wav","None","721.685068129","212","240893.625251","233159.750102","233927.061405","234693.576278","235460.253776","236226.460403","236993.677408","237759.678435","241659.548675","242426.381378","228560.412598","229327.062889","230093.11462","230860.403354","231627.075286","232394.656807","241670.366027","Mapping"
"Mixed","Female","cave","19","F_lash.wav","space","512.564644247","212","240893.625251","233159.750102","233927.061405","234693.576278","235460.253776","236226.460403","236993.677408","237759.678435","241659.548675","242426.381378","243193.636721","229327.062889","230093.11462","230860.403354","231627.075286","232394.656807","242436.025727","Mapping"
"Mixed","Female","cave","19","F_cad.wav","None","720.837624423","212","240893.625251","233159.750102","233927.061405","234693.576278","235460.253776","236226.460403","236993.677408","237759.678435","241659.548675","242426.381378","243193.636721","243960.218994","230093.11462","230860.403354","231627.075286","232394.656807","243203.559635","Mapping"
"Mixed","Female","cave","19","M_park.wav","None","721.48132298","212","240893.625251","233159.750102","233927.061405","234693.576278","235460.253776","236226.460403","236993.677408","237759.678435","241659.548675","242426.381378","243193.636721","243960.218994","244726.900511","230860.403354","231627.075286","232394.656807","243970.394811","Mapping"
"Mixed","Female","cave","19","F_tile.wav","None","722.120074817","212","240893.625251","233159.750102","233927.061405","234693.576278","235460.253776","236226.460403","236993.677408","237759.678435","241659.548675","242426.381378","243193.636721","243960.218994","244726.900511","245493.566569","231627.075286","232394.656807","244736.688316","Mapping"
"Mixed","Female","cave","19","M_knife.wav","None","722.320728237","212","240893.625251","233159.750102","233927.061405","234693.576278","235460.253776","236226.460403","236993.677408","237759.678435","241659.548675","242426.381378","243193.636721","243960.218994","244726.900511","245493.566569","246259.524621","232394.656807","245503.486082","Mapping"
"Mixed","Female","cave","19","M_bluff.wav","None","722.532821062","212","240893.625251","233159.750102","233927.061405","234693.576278","235460.253776","236226.460403","236993.677408","237759.678435","241659.548675","242426.381378","243193.636721","243960.218994","244726.900511","245493.566569","246259.524621","247027.306486","246270.264989","Mapping"
"Mixed","Female","cave","19","F_cave.wav","None","721.885412349","212","240893.625251","247793.452206","233927.061405","234693.576278","235460.253776","236226.460403","236993.677408","237759.678435","241659.548675","242426.381378","243193.636721","243960.218994","244726.900511","245493.566569","246259.524621","247027.306486","247037.680793","Mapping"
"Mixed","Female","cave","19","M_ball.wav","space","472.664296947","212","240893.625251","247793.452206","248560.171443","234693.576278","235460.253776","236226.460403","236993.677408","237759.678435","241659.548675","242426.381378","243193.636721","243960.218994","244726.900511","245493.566569","246259.524621","247027.306486","247803.809199","Mapping"
"Mixed","Female","cave","19","F_cave.wav","None","721.642711433","212","240893.625251","247793.452206","248560.171443","249326.442378","235460.253776","236226.460403","236993.677408","237759.678435","241659.548675","242426.381378","243193.636721","243960.218994","244726.900511","245493.566569","246259.524621","247027.306486","248570.563681","Mapping"
"Mixed","Female","cave","19","F_gnash.wav","space","332.885856653","212","240893.625251","247793.452206","248560.171443","249326.442378","250093.372471","236226.460403","236993.677408","237759.678435","241659.548675","242426.381378","243193.636721","243960.218994","244726.900511","245493.566569","246259.524621","247027.306486","249335.601016","Mapping"
"Mixed","Female","cave","19","F_cave.wav","None","721.080943709","212","240893.625251","247793.452206","248560.171443","249326.442378","250093.372471","250860.045331","236993.677408","237759.678435","241659.548675","242426.381378","243193.636721","243960.218994","244726.900511","245493.566569","246259.524621","247027.306486","250103.53252","Mapping"
"Mixed","Female","cave","19","M_knife.wav","space","493.834004301","212","240893.625251","247793.452206","248560.171443","249326.442378","250093.372471","250860.045331","251626.581846","237759.678435","241659.548675","242426.381378","243193.636721","243960.218994","244726.900511","245493.566569","246259.524621","247027.306486","250870.588446","Mapping"
"Mixed","Female","cave","19","M_reek.wav","None","719.430267985","212","240893.625251","247793.452206","248560.171443","249326.442378","250093.372471","250860.045331","251626.581846","252393.131965","241659.548675","242426.381378","243193.636721","243960.218994","244726.900511","245493.566569","246259.524621","247027.306486","251637.467525","Mapping"
"Mixed","Male","ball","1","M_park.wav","None","720.012131962","212","255526.109213","247793.452206","248560.171443","249326.442378","250093.372471","250860.045331","251626.581846","252393.131965","241659.548675","242426.381378","243193.636721","243960.218994","244726.900511","245493.566569","246259.524621","247027.306486","252403.919945","Mapping"
"Mixed","Male","ball","1","F_knife.wav","None","723.4597223","212","255526.109213","247793.452206","248560.171443","249326.442378","250093.372471","250860.045331","251626.581846","252393.131965","256292.655931","242426.381378","243193.636721","243960.218994","244726.900511","245493.566569","246259.524621","247027.306486","255535.275271","Mapping"
"Mixed","Male","ball","1","M_knife.wav","None","724.044678005","212","255526.109213","247793.452206","248560.171443","249326.442378","250093.372471","250860.045331","251626.581846","252393.131965","256292.655931","257059.974654","243193.636721","243960.218994","244726.900511","245493.566569","246259.524621","247027.306486","256301.854452","Mapping"
"Mixed","Male","ball","1","F_priest.wav","None","722.8256081","212","255526.109213","247793.452206","248560.171443","249326.442378","250093.372471","250860.045331","251626.581846","252393.131965","256292.655931","257059.974654","257826.513333","243960.218994","244726.900511","245493.566569","246259.524621","247027.306486","257070.161602","Mapping"
"Mixed","Male","ball","1","M_ball.wav","None","723.099535535","212","255526.109213","247793.452206","248560.171443","249326.442378","250093.372471","250860.045331","251626.581846","252393.131965","256292.655931","257059.974654","257826.513333","258592.757989","244726.900511","245493.566569","246259.524621","247027.306486","257836.848684","Mapping"
"Mixed","Male","ball","1","F_depth.wav","space","473.899443896","212","255526.109213","247793.452206","248560.171443","249326.442378","250093.372471","250860.045331","251626.581846","252393.131965","256292.655931","257059.974654","257826.513333","258592.757989","259359.858436","245493.566569","246259.524621","247027.306486","258602.38286","Mapping"
"Mixed","Male","ball","1","F_romp.wav","None","722.382562875","212","255526.109213","247793.452206","248560.171443","249326.442378","250093.372471","250860.045331","251626.581846","252393.131965","256292.655931","257059.974654","257826.513333","258592.757989","259359.858436","260126.567469","246259.524621","247027.306486","259370.150502","Mapping"
"Mixed","Male","ball","1","F_reek.wav","None","722.636394057","212","255526.109213","247793.452206","248560.171443","249326.442378","250093.372471","250860.045331","251626.581846","252393.131965","256292.655931","257059.974654","257826.513333","258592.757989","259359.858436","260126.567469","260893.150979","247027.306486","260136.789354","Mapping"
"Mixed","Male","ball","1","M_ball.wav","None","723.242682725","212","255526.109213","247793.452206","248560.171443","249326.442378","250093.372471","250860.045331","251626.581846","252393.131965","256292.655931","257059.974654","257826.513333","258592.757989","259359.858436","260126.567469","260893.150979","261659.613911","260903.264343","Mapping"
"Mixed","Male","ball","1","M_cad.wav","space","358.817758795","212","255526.109213","262425.968941","248560.171443","249326.442378","250093.372471","250860.045331","251626.581846","252393.131965","256292.655931","257059.974654","257826.513333","258592.757989","259359.858436","260126.567469","260893.150979","261659.613911","261669.410373","Mapping"
"Mixed","Male","ball","1","M_ball.wav","None","724.437327968","212","255526.109213","262425.968941","263192.698999","249326.442378","250093.372471","250860.045331","251626.581846","252393.131965","256292.655931","257059.974654","257826.513333","258592.757989","259359.858436","260126.567469","260893.150979","261659.613911","262435.17581","Mapping"
"Mixed","Male","ball","1","M_cling.wav","space","546.075309016","212","255526.109213","262425.968941","263192.698999","263959.944139","250093.372471","250860.045331","251626.581846","252393.131965","256292.655931","257059.974654","257826.513333","258592.757989","259359.858436","260126.567469","260893.150979","261659.613911","263202.120124","Mapping"
"Mixed","Male","ball","1","M_ball.wav","None","720.664487395","212","255526.109213","262425.968941","263192.698999","263959.944139","264726.274435","250860.045331","251626.581846","252393.131965","256292.655931","257059.974654","257826.513333","258592.757989","259359.858436","260126.567469","260893.150979","261659.613911","263971.522366","Mapping"
"Mixed","Male","ball","1","F_done.wav","space","451.514995046","212","255526.109213","262425.968941","263192.698999","263959.944139","264726.274435","265493.017787","251626.581846","252393.131965","256292.655931","257059.974654","257826.513333","258592.757989","259359.858436","260126.567469","260893.150979","261659.613911","264736.669456","Mapping"
"Mixed","Male","ball","1","F_cad.wav","None","721.695889195","212","255526.109213","262425.968941","263192.698999","263959.944139","264726.274435","265493.017787","266259.174019","252393.131965","256292.655931","257059.974654","257826.513333","258592.757989","259359.858436","260126.567469","260893.150979","261659.613911","265503.422393","Mapping"
"Mixed","Male","ball","1","F_romp.wav","None","723.571643","212","255526.109213","262425.968941","263192.698999","263959.944139","264726.274435","265493.017787","266259.174019","267026.425033","256292.655931","257059.974654","257826.513333","258592.757989","259359.858436","260126.567469","260893.150979","261659.613911","266268.534856","Mapping"
"Mixed","Female","ball","9","M_cave.wav","None","722.444397514","212","270159.663224","262425.968941","263192.698999","263959.944139","264726.274435","265493.017787","266259.174019","267026.425033","256292.655931","257059.974654","257826.513333","258592.757989","259359.858436","260126.567469","260893.150979","261659.613911","267036.668869","Mapping"
"Mixed","Female","ball","9","F_ball.wav","None","721.559543832","212","270159.663224","262425.968941","263192.698999","263959.944139","264726.274435","265493.017787","266259.174019","267026.425033","270926.364528","257059.974654","257826.513333","258592.757989","259359.858436","260126.567469","260893.150979","261659.613911","270170.111114","Mapping"
"Mixed","Female","ball","9","M_done.wav","space","491.4864522","212","270159.663224","262425.968941","263192.698999","263959.944139","264726.274435","265493.017787","266259.174019","267026.425033","270926.364528","271692.919903","257826.513333","258592.757989","259359.858436","260126.567469","260893.150979","261659.613911","270936.571572","Mapping"
"Mixed","Female","ball","9","M_cling.wav","None","721.367856429","212","270159.663224","262425.968941","263192.698999","263959.944139","264726.274435","265493.017787","266259.174019","267026.425033","270926.364528","271692.919903","272459.127458","258592.757989","259359.858436","260126.567469","260893.150979","261659.613911","271703.000495","Mapping"
"Mixed","Female","ball","9","F_ball.wav","None","723.249175382","212","270159.663224","262425.968941","263192.698999","263959.944139","264726.274435","265493.017787","266259.174019","267026.425033","270926.364528","271692.919903","272459.127458","273226.299324","259359.858436","260126.567469","260893.150979","261659.613911","272468.3368","Mapping"
"Mixed","Female","ball","9","M_greet.wav","space","423.55460758","212","270159.663224","262425.968941","263192.698999","263959.944139","264726.274435","265493.017787","266259.174019","267026.425033","270926.364528","271692.919903","272459.127458","273226.299324","273992.713406","260126.567469","260893.150979","261659.613911","273236.47174","Mapping"
"Mixed","Female","ball","9","F_park.wav","None","721.866243635","212","270159.663224","262425.968941","263192.698999","263959.944139","264726.274435","265493.017787","266259.174019","267026.425033","270926.364528","271692.919903","272459.127458","273226.299324","273992.713406","274759.664832","260893.150979","261659.613911","274003.284038","Mapping"
"Mixed","Female","ball","9","F_cad.wav","None","722.607331787","212","270159.663224","262425.968941","263192.698999","263959.944139","264726.274435","265493.017787","266259.174019","267026.425033","270926.364528","271692.919903","272459.127458","273226.299324","273992.713406","274759.664832","275526.281732","261659.613911","274769.987197","Mapping"
"Mixed","Female","ball","9","F_ball.wav","None","723.329251225","212","270159.663224","262425.968941","263192.698999","263959.944139","264726.274435","265493.017787","266259.174019","267026.425033","270926.364528","271692.919903","272459.127458","273226.299324","273992.713406","274759.664832","275526.281732","276292.318004","275536.334189","Mapping"
"Mixed","Female","ball","9","F_reek.wav","space","476.997668535","212","270159.663224","277058.955619","263192.698999","263959.944139","264726.274435","265493.017787","266259.174019","267026.425033","270926.364528","271692.919903","272459.127458","273226.299324","273992.713406","274759.664832","275526.281732","276292.318004","276302.969949","Mapping"
"Mixed","Female","ball","9","F_ball.wav","None","723.725920427","212","270159.663224","277058.955619","277826.253628","263959.944139","264726.274435","265493.017787","266259.174019","267026.425033","270926.364528","271692.919903","272459.127458","273226.299324","273992.713406","274759.664832","275526.281732","276292.318004","277068.757028","Mapping"
"Mixed","Female","ball","9","M_dime.wav","space","583.460223163","212","270159.663224","277058.955619","277826.253628","278592.74995","264726.274435","265493.017787","266259.174019","267026.425033","270926.364528","271692.919903","272459.127458","273226.299324","273992.713406","274759.664832","275526.281732","276292.318004","277836.45387","Mapping"
"Mixed","Female","ball","9","F_lash.wav","None","723.167862801","212","270159.663224","277058.955619","277826.253628","278592.74995","279359.474752","265493.017787","266259.174019","267026.425033","270926.364528","271692.919903","272459.127458","273226.299324","273992.713406","274759.664832","275526.281732","276292.318004","278602.056991","Mapping"
"Mixed","Female","ball","9","M_dime.wav","None","722.520763316","212","270159.663224","277058.955619","277826.253628","278592.74995","279359.474752","280126.186568","266259.174019","267026.425033","270926.364528","271692.919903","272459.127458","273226.299324","273992.713406","274759.664832","275526.281732","276292.318004","279369.817214","Mapping"
"Mixed","Female","ball","9","M_cad.wav","None","723.453848012","212","270159.663224","277058.955619","277826.253628","278592.74995","279359.474752","280126.186568","280892.379901","267026.425033","270926.364528","271692.919903","272459.127458","273226.299324","273992.713406","274759.664832","275526.281732","276292.318004","280136.075782","Mapping"
"Mixed","Female","ball","9","M_lash.wav","None","723.368825391","212","270159.663224","277058.955619","277826.253628","278592.74995","279359.474752","280126.186568","280892.379901","281658.644344","270926.364528","271692.919903","272459.127458","273226.299324","273992.713406","274759.664832","275526.281732","276292.318004","280903.399143","Mapping"
"Mixed","Female","cave","23","M_tile.wav","None","725.752859929","212","284792.823348","277058.955619","277826.253628","278592.74995","279359.474752","280126.186568","280892.379901","281658.644344","270926.364528","271692.919903","272459.127458","273226.299324","273992.713406","274759.664832","275526.281732","276292.318004","281668.167806","Mapping"
"Mixed","Female","cave","23","M_cad.wav","None","721.059919917","212","284792.823348","277058.955619","277826.253628","278592.74995","279359.474752","280126.186568","280892.379901","281658.644344","285559.256908","271692.919903","272459.127458","273226.299324","273992.713406","274759.664832","275526.281732","276292.318004","284803.345749","Mapping"
"Mixed","Female","cave","23","F_depth.wav","None","721.811829164","212","284792.823348","277058.955619","277826.253628","278592.74995","279359.474752","280126.186568","280892.379901","281658.644344","285559.256908","286325.569891","272459.127458","273226.299324","273992.713406","274759.664832","275526.281732","276292.318004","285569.679446","Mapping"
"Mixed","Female","cave","23","F_cave.wav","None","723.850826413","212","284792.823348","277058.955619","277826.253628","278592.74995","279359.474752","280126.186568","280892.379901","281658.644344","285559.256908","286325.569891","287092.141343","273226.299324","273992.713406","274759.664832","275526.281732","276292.318004","286334.722655","Mapping"
"Mixed","Female","cave","23","M_knife.wav","space","534.145242767","212","284792.823348","277058.955619","277826.253628","278592.74995","279359.474752","280126.186568","280892.379901","281658.644344","285559.256908","286325.569891","287092.141343","287859.445535","273992.713406","274759.664832","275526.281732","276292.318004","287101.634506","Mapping"
"Mixed","Female","cave","23","F_cave.wav","None","721.483178058","212","284792.823348","277058.955619","277826.253628","278592.74995","279359.474752","280126.186568","280892.379901","281658.644344","285559.256908","286325.569891","287092.141343","287859.445535","288626.040793","274759.664832","275526.281732","276292.318004","287869.789852","Mapping"
"Mixed","Female","cave","23","M_ball.wav","space","383.0572468","212","284792.823348","277058.955619","277826.253628","278592.74995","279359.474752","280126.186568","280892.379901","281658.644344","285559.256908","286325.569891","287092.141343","287859.445535","288626.040793","289392.649345","275526.281732","276292.318004","288636.678824","Mapping"
"Mixed","Female","cave","23","F_cave.wav","None","721.168748889","212","284792.823348","277058.955619","277826.253628","278592.74995","279359.474752","280126.186568","280892.379901","281658.644344","285559.256908","286325.569891","287092.141343","287859.445535","288626.040793","289392.649345","290159.184933","276292.318004","289402.736121","Mapping"
"Mixed","Female","cave","23","M_depth.wav","space","377.846441726","212","284792.823348","277058.955619","277826.253628","278592.74995","279359.474752","280126.186568","280892.379901","281658.644344","285559.256908","286325.569891","287092.141343","287859.445535","288626.040793","289392.649345","290159.184933","290926.160474","290169.849862","Mapping"
"Mixed","Female","cave","23","F_jolt.wav","None","720.967167959","212","284792.823348","291692.627734","277826.253628","278592.74995","279359.474752","280126.186568","280892.379901","281658.644344","285559.256908","286325.569891","287092.141343","287859.445535","288626.040793","289392.649345","290159.184933","290926.160474","290935.982288","Mapping"
"Mixed","Female","cave","23","M_cling.wav","None","721.498636703","212","284792.823348","291692.627734","292459.240615","278592.74995","279359.474752","280126.186568","280892.379901","281658.644344","285559.256908","286325.569891","287092.141343","287859.445535","288626.040793","289392.649345","290159.184933","290926.160474","291702.586203","Mapping"
"Mixed","Female","cave","23","M_priest.wav","None","722.069988755","212","284792.823348","291692.627734","292459.240615","293225.772492","279359.474752","280126.186568","280892.379901","281658.644344","285559.256908","286325.569891","287092.141343","287859.445535","288626.040793","289392.649345","290159.184933","290926.160474","292469.422616","Mapping"
"Mixed","Female","cave","23","F_cad.wav","None","723.144056479","212","284792.823348","291692.627734","292459.240615","293225.772492","293992.295713","280126.186568","280892.379901","281658.644344","285559.256908","286325.569891","287092.141343","287859.445535","288626.040793","289392.649345","290159.184933","290926.160474","293236.039207","Mapping"
"Mixed","Female","cave","23","F_cave.wav","None","724.228636042","212","284792.823348","291692.627734","292459.240615","293225.772492","293992.295713","294758.914159","280892.379901","281658.644344","285559.256908","286325.569891","287092.141343","287859.445535","288626.040793","289392.649345","290159.184933","290926.160474","294002.03807","Mapping"
"Mixed","Female","cave","23","M_romp.wav","space","539.052439795","212","284792.823348","291692.627734","292459.240615","293225.772492","293992.295713","294758.914159","295525.300107","281658.644344","285559.256908","286325.569891","287092.141343","287859.445535","288626.040793","289392.649345","290159.184933","290926.160474","294768.585406","Mapping"
