"Condition","Talker","Target","Trial","current_stimulus","response_response","response_time_response","subject_nr","time_Audio1","time_Audio10","time_Audio11","time_Audio12","time_Audio13","time_Audio14","time_Audio15","time_Audio16","time_Audio2","time_Audio3","time_Audio4","time_Audio5","time_Audio6","time_Audio7","time_Audio8","time_Audio9","time_response"
"Blocked","Male","cave","9","M_tile.wav","NA","NA","117","526001.650656","NA","NA","NA","NA","NA","NA","NA","NA","NA","NA","NA","NA","NA","NA","NA","NA"
"Blocked","Male","cave","9","M_cave.wav","None","716.772629356","117","526001.650656","NA","NA","NA","NA","NA","NA","NA","526751.692394","NA","NA","NA","NA","NA","NA","NA","526016.253039"
"Blocked","Male","cave","9","M_lash.wav","space","634.37370921","117","526001.650656","NA","NA","NA","NA","NA","NA","NA","526751.692394","527517.982842","NA","NA","NA","NA","NA","NA","526760.842264"
"Blocked","Male","cave","9","M_park.wav","None","734.81761475","117","526001.650656","NA","NA","NA","NA","NA","NA","NA","526751.692394","527517.982842","528284.696544","NA","NA","NA","NA","NA","527527.715188"
"Blocked","Male","cave","9","M_done.wav","None","733.469017519","117","526001.650656","NA","NA","NA","NA","NA","NA","NA","526751.692394","527517.982842","528284.696544","529051.571941","NA","NA","NA","NA","528294.203814"
"Blocked","Male","cave","9","M_jaw.wav","None","731.556804327","117","526001.650656","NA","NA","NA","NA","NA","NA","NA","526751.692394","527517.982842","528284.696544","529051.571941","529817.807976","NA","NA","NA","529060.928646"
"Blocked","Male","cave","9","M_cad.wav","None","730.608890721","117","526001.650656","NA","NA","NA","NA","NA","NA","NA","526751.692394","527517.982842","528284.696544","529051.571941","529817.807976","530584.133052","NA","NA","529827.08306"
"Blocked","Male","cave","9","M_done.wav","None","730.57735544","117","526001.650656","NA","NA","NA","NA","NA","NA","NA","526751.692394","527517.982842","528284.696544","529051.571941","529817.807976","530584.133052","531351.636681","NA","530592.946546"
"Blocked","Male","cave","9","M_cave.wav","None","727.590160008","117","526001.650656","NA","NA","NA","NA","NA","NA","NA","526751.692394","527517.982842","528284.696544","529051.571941","529817.807976","530584.133052","531351.636681","532117.784294","531360.98813"
"Blocked","Male","cave","9","M_cling.wav","space","635.92759498","117","526001.650656","532884.677314","NA","NA","NA","NA","NA","NA","526751.692394","527517.982842","528284.696544","529051.571941","529817.807976","530584.133052","531351.636681","532117.784294","532127.088749"
"Blocked","Male","cave","9","M_cave.wav","None","725.337551223","117","526001.650656","532884.677314","533651.266729","NA","NA","NA","NA","NA","526751.692394","527517.982842","528284.696544","529051.571941","529817.807976","530584.133052","531351.636681","532117.784294","532894.159851"
"Blocked","Male","cave","9","M_depth.wav","space","558.762604836","117","526001.650656","532884.677314","533651.266729","534418.517149","NA","NA","NA","NA","526751.692394","527517.982842","528284.696544","529051.571941","529817.807976","530584.133052","531351.636681","532117.784294","533660.248721"
"Blocked","Male","cave","9","M_cave.wav","None","722.004704323","117","526001.650656","532884.677314","533651.266729","534418.517149","535184.602","NA","NA","NA","526751.692394","527517.982842","528284.696544","529051.571941","529817.807976","530584.133052","531351.636681","532117.784294","534428.204356"
"Blocked","Male","cave","9","M_greet.wav","space","569.39587048","117","526001.650656","532884.677314","533651.266729","534418.517149","535184.602","535951.930021","NA","NA","526751.692394","527517.982842","528284.696544","529051.571941","529817.807976","530584.133052","531351.636681","532117.784294","535193.572861"
"Blocked","Male","cave","9","M_depth.wav","None","718.74451224","117","526001.650656","532884.677314","533651.266729","534418.517149","535184.602","535951.930021","536701.435041","NA","526751.692394","527517.982842","528284.696544","529051.571941","529817.807976","530584.133052","531351.636681","532117.784294","535961.642889"
"Blocked","Male","cave","9","M_tile.wav","None","734.82658065","117","526001.650656","532884.677314","533651.266729","534418.517149","535184.602","535951.930021","536701.435041","537468.081962","526751.692394","527517.982842","528284.696544","529051.571941","529817.807976","530584.133052","531351.636681","532117.784294","536710.578728"
"Blocked","Male","tile","16","M_park.wav","None","732.396817781","117","540618.514243","532884.677314","533651.266729","534418.517149","535184.602","535951.930021","536701.435041","537468.081962","526751.692394","527517.982842","528284.696544","529051.571941","529817.807976","530584.133052","531351.636681","532117.784294","537477.933029"
"Blocked","Male","tile","16","M_jaw.wav","None","720.986300075","117","540618.514243","532884.677314","533651.266729","534418.517149","535184.602","535951.930021","536701.435041","537468.081962","541385.059756","527517.982842","528284.696544","529051.571941","529817.807976","530584.133052","531351.636681","532117.784294","540628.23855"
"Blocked","Male","tile","16","M_depth.wav","None","719.923684606","117","540618.514243","532884.677314","533651.266729","534418.517149","535184.602","535951.930021","536701.435041","537468.081962","541385.059756","542150.892325","528284.696544","529051.571941","529817.807976","530584.133052","531351.636681","532117.784294","541395.010685"
"Blocked","Male","tile","16","M_greet.wav","None","722.666017828","117","540618.514243","532884.677314","533651.266729","534418.517149","535184.602","535951.930021","536701.435041","537468.081962","541385.059756","542150.892325","542919.217418","529051.571941","529817.807976","530584.133052","531351.636681","532117.784294","542159.661299"
"Blocked","Male","tile","16","M_tile.wav","None","718.96525925","117","540618.514243","532884.677314","533651.266729","534418.517149","535184.602","535951.930021","536701.435041","537468.081962","541385.059756","542150.892325","542919.217418","543667.89881","529817.807976","530584.133052","531351.636681","532117.784294","542928.878964"
"Blocked","Male","tile","16","M_romp.wav","space","469.64574125","117","540618.514243","532884.677314","533651.266729","534418.517149","535184.602","535951.930021","536701.435041","537468.081962","541385.059756","542150.892325","542919.217418","543667.89881","544434.527181","530584.133052","531351.636681","532117.784294","543677.068467"
"Blocked","Male","tile","16","M_tile.wav","None","734.660556656","117","540618.514243","532884.677314","533651.266729","534418.517149","535184.602","535951.930021","536701.435041","537468.081962","541385.059756","542150.892325","542919.217418","543667.89881","544434.527181","545200.829996","531351.636681","532117.784294","544443.867809"
"Blocked","Male","tile","16","M_priest.wav","space","528.915693183","117","540618.514243","532884.677314","533651.266729","534418.517149","535184.602","535951.930021","536701.435041","537468.081962","541385.059756","542150.892325","542919.217418","543667.89881","544434.527181","545200.829996","545967.81082","532117.784294","545209.739642"
"Blocked","Male","tile","16","M_cling.wav","None","731.830728488","117","540618.514243","532884.677314","533651.266729","534418.517149","535184.602","535951.930021","536701.435041","537468.081962","541385.059756","542150.892325","542919.217418","543667.89881","544434.527181","545200.829996","545967.81082","546734.471345","545977.257494"
"Blocked","Male","tile","16","M_tile.wav","None","730.622185016","117","540618.514243","547501.036336","533651.266729","534418.517149","535184.602","535951.930021","536701.435041","537468.081962","541385.059756","542150.892325","542919.217418","543667.89881","544434.527181","545200.829996","545967.81082","546734.471345","546744.021899"
"Blocked","Male","tile","16","M_done.wav","space","404.442517975","117","540618.514243","547501.036336","548267.718502","534418.517149","535184.602","535951.930021","536701.435041","537468.081962","541385.059756","542150.892325","542919.217418","543667.89881","544434.527181","545200.829996","545967.81082","546734.471345","547510.141995"
"Blocked","Male","tile","16","M_romp.wav","None","728.653702987","117","540618.514243","547501.036336","548267.718502","549034.499603","535184.602","535951.930021","536701.435041","537468.081962","541385.059756","542150.892325","542919.217418","543667.89881","544434.527181","545200.829996","545967.81082","546734.471345","548277.146316"
"Blocked","Male","tile","16","M_cling.wav","None","727.503283386","117","540618.514243","547501.036336","548267.718502","549034.499603","549801.112515","535951.930021","536701.435041","537468.081962","541385.059756","542150.892325","542919.217418","543667.89881","544434.527181","545200.829996","545967.81082","546734.471345","549044.108281"
"Blocked","Male","tile","16","M_dime.wav","None","726.77209758","117","540618.514243","547501.036336","548267.718502","549034.499603","549801.112515","550567.574862","536701.435041","537468.081962","541385.059756","542150.892325","542919.217418","543667.89881","544434.527181","545200.829996","545967.81082","546734.471345","549810.354518"
"Blocked","Male","tile","16","M_tile.wav","None","726.272170534","117","540618.514243","547501.036336","548267.718502","549034.499603","549801.112515","550567.574862","551333.935183","537468.081962","541385.059756","542150.892325","542919.217418","543667.89881","544434.527181","545200.829996","545967.81082","546734.471345","550576.702782"
"Blocked","Male","tile","16","M_reek.wav","space","467.458367246","117","540618.514243","547501.036336","548267.718502","549034.499603","549801.112515","550567.574862","551333.935183","552101.225795","541385.059756","542150.892325","542919.217418","543667.89881","544434.527181","545200.829996","545967.81082","546734.471345","551343.01951"
"Blocked","Male","ball","5","M_knife.wav","None","722.970240589","117","555234.626239","547501.036336","548267.718502","549034.499603","549801.112515","550567.574862","551333.935183","552101.225795","541385.059756","542150.892325","542919.217418","543667.89881","544434.527181","545200.829996","545967.81082","546734.471345","552110.850859"
"Blocked","Male","ball","5","M_bluff.wav","None","721.66678209","117","555234.626239","547501.036336","548267.718502","549034.499603","549801.112515","550567.574862","551333.935183","552101.225795","556001.214418","542150.892325","542919.217418","543667.89881","544434.527181","545200.829996","545967.81082","546734.471345","555244.314992"
"Blocked","Male","ball","5","M_done.wav","None","720.746384584","117","555234.626239","547501.036336","548267.718502","549034.499603","549801.112515","550567.574862","551333.935183","552101.225795","556001.214418","556767.325548","542919.217418","543667.89881","544434.527181","545200.829996","545967.81082","546734.471345","556010.947691"
"Blocked","Male","ball","5","M_ball.wav","None","721.348955864","117","555234.626239","547501.036336","548267.718502","549034.499603","549801.112515","550567.574862","551333.935183","552101.225795","556001.214418","556767.325548","557534.242992","543667.89881","544434.527181","545200.829996","545967.81082","546734.471345","556776.253126"
"Blocked","Male","ball","5","M_jaw.wav","space","369.85572915","117","555234.626239","547501.036336","548267.718502","549034.499603","549801.112515","550567.574862","551333.935183","552101.225795","556001.214418","556767.325548","557534.242992","558283.725133","544434.527181","545200.829996","545967.81082","546734.471345","557544.452387"
"Blocked","Male","ball","5","M_ball.wav","None","734.999097214","117","555234.626239","547501.036336","548267.718502","549034.499603","549801.112515","550567.574862","551333.935183","552101.225795","556001.214418","556767.325548","557534.242992","558283.725133","559050.808293","545200.829996","545967.81082","546734.471345","558292.833575"
"Blocked","Male","ball","5","M_reek.wav","space","437.751200196","117","555234.626239","547501.036336","548267.718502","549034.499603","549801.112515","550567.574862","551333.935183","552101.225795","556001.214418","556767.325548","557534.242992","558283.725133","559050.808293","559817.326599","545967.81082","546734.471345","559060.483751"
"Blocked","Male","ball","5","M_knife.wav","None","730.993497549","117","555234.626239","547501.036336","548267.718502","549034.499603","549801.112515","550567.574862","551333.935183","552101.225795","556001.214418","556767.325548","557534.242992","558283.725133","559050.808293","559817.326599","560584.175099","546734.471345","559826.724424"
"Blocked","Male","ball","5","M_ball.wav","None","729.400347249","117","555234.626239","547501.036336","548267.718502","549034.499603","549801.112515","550567.574862","551333.935183","552101.225795","556001.214418","556767.325548","557534.242992","558283.725133","559050.808293","559817.326599","560584.175099","561350.987735","560593.77141"
"Blocked","Male","ball","5","M_romp.wav","space","329.336905692","117","555234.626239","562117.460593","548267.718502","549034.499603","549801.112515","550567.574862","551333.935183","552101.225795","556001.214418","556767.325548","557534.242992","558283.725133","559050.808293","559817.326599","560584.175099","561350.987735","561360.849932"
"Blocked","Male","ball","5","M_bluff.wav","None","727.480404836","117","555234.626239","562117.460593","562884.057738","549034.499603","549801.112515","550567.574862","551333.935183","552101.225795","556001.214418","556767.325548","557534.242992","558283.725133","559050.808293","559817.326599","560584.175099","561350.987735","562126.880987"
"Blocked","Male","ball","5","M_depth.wav","None","726.047095173","117","555234.626239","562117.460593","562884.057738","563650.781642","549801.112515","550567.574862","551333.935183","552101.225795","556001.214418","556767.325548","557534.242992","558283.725133","559050.808293","559817.326599","560584.175099","561350.987735","562893.714646"
"Blocked","Male","ball","5","M_tile.wav","None","723.992354862","117","555234.626239","562117.460593","562884.057738","563650.781642","564417.223584","550567.574862","551333.935183","552101.225795","556001.214418","556767.325548","557534.242992","558283.725133","559050.808293","559817.326599","560584.175099","561350.987735","563661.259705"
"Blocked","Male","ball","5","M_gnash.wav","None","724.5368023","117","555234.626239","562117.460593","562884.057738","563650.781642","564417.223584","565184.053842","551333.935183","552101.225795","556001.214418","556767.325548","557534.242992","558283.725133","559050.808293","559817.326599","560584.175099","561350.987735","564426.649543"
"Blocked","Male","ball","5","M_ball.wav","None","722.572648636","117","555234.626239","562117.460593","562884.057738","563650.781642","564417.223584","565184.053842","565950.514334","552101.225795","556001.214418","556767.325548","557534.242992","558283.725133","559050.808293","559817.326599","560584.175099","561350.987735","565194.153791"
"Blocked","Male","ball","5","M_dime.wav","space","370.453972093","117","555234.626239","562117.460593","562884.057738","563650.781642","564417.223584","565184.053842","565950.514334","566717.650052","556001.214418","556767.325548","557534.242992","558283.725133","559050.808293","559817.326599","560584.175099","561350.987735","565959.595878"
"Blocked","Male","ball","3","M_gnash.wav","None","719.812692769","117","569833.992998","562117.460593","562884.057738","563650.781642","564417.223584","565184.053842","565950.514334","566717.650052","556001.214418","556767.325548","557534.242992","558283.725133","559050.808293","559817.326599","560584.175099","561350.987735","566727.708572"
"Blocked","Male","ball","3","M_jaw.wav","None","722.355920836","117","569833.992998","562117.460593","562884.057738","563650.781642","564417.223584","565184.053842","565950.514334","566717.650052","570601.238162","556767.325548","557534.242992","558283.725133","559050.808293","559817.326599","560584.175099","561350.987735","569844.134066"
"Blocked","Male","ball","3","M_park.wav","None","720.779465701","117","569833.992998","562117.460593","562884.057738","563650.781642","564417.223584","565184.053842","565950.514334","566717.650052","570601.238162","571367.417619","557534.242992","558283.725133","559050.808293","559817.326599","560584.175099","561350.987735","570611.180434"
"Blocked","Male","ball","3","M_ball.wav","None","720.169165157","117","569833.992998","562117.460593","562884.057738","563650.781642","564417.223584","565184.053842","565950.514334","566717.650052","570601.238162","571367.417619","572134.149561","558283.725133","559050.808293","559817.326599","560584.175099","561350.987735","571377.399155"
"Blocked","Male","ball","3","M_knife.wav","space","345.879018263","117","569833.992998","562117.460593","562884.057738","563650.781642","564417.223584","565184.053842","565950.514334","566717.650052","570601.238162","571367.417619","572134.149561","572883.432597","559050.808293","559817.326599","560584.175099","561350.987735","572143.981151"
"Blocked","Male","ball","3","M_jaw.wav","None","734.860589306","117","569833.992998","562117.460593","562884.057738","563650.781642","564417.223584","565184.053842","565950.514334","566717.650052","570601.238162","571367.417619","572134.149561","572883.432597","573666.647601","559817.326599","560584.175099","561350.987735","572892.971403"
"Blocked","Male","ball","3","M_ball.wav","None","723.063918922","117","569833.992998","562117.460593","562884.057738","563650.781642","564417.223584","565184.053842","565950.514334","566717.650052","570601.238162","571367.417619","572134.149561","572883.432597","573666.647601","574433.526709","560584.175099","561350.987735","573675.503761"
"Blocked","Male","ball","3","M_reek.wav","space","359.007899911","117","569833.992998","562117.460593","562884.057738","563650.781642","564417.223584","565184.053842","565950.514334","566717.650052","570601.238162","571367.417619","572134.149561","572883.432597","573666.647601","574433.526709","575200.658407","561350.987735","574442.770567"
"Blocked","Male","ball","3","M_dime.wav","None","718.523765245","117","569833.992998","562117.460593","562884.057738","563650.781642","564417.223584","565184.053842","565950.514334","566717.650052","570601.238162","571367.417619","572134.149561","572883.432597","573666.647601","574433.526709","575200.658407","575949.90929","575210.763302"
"Blocked","Male","ball","3","M_jaw.wav","None","735.516956091","117","569833.992998","576716.78345","562884.057738","563650.781642","564417.223584","565184.053842","565950.514334","566717.650052","570601.238162","571367.417619","572134.149561","572883.432597","573666.647601","574433.526709","575200.658407","575949.90929","575959.385334"
"Blocked","Male","ball","3","M_ball.wav","None","734.546473119","117","569833.992998","576716.78345","577483.647408","563650.781642","564417.223584","565184.053842","565950.514334","566717.650052","570601.238162","571367.417619","572134.149561","572883.432597","573666.647601","574433.526709","575200.658407","575949.90929","576726.028854"
"Blocked","Male","ball","3","M_priest.wav","space","348.354229078","117","569833.992998","576716.78345","577483.647408","578250.194158","564417.223584","565184.053842","565950.514334","566717.650052","570601.238162","571367.417619","572134.149561","572883.432597","573666.647601","574433.526709","575200.658407","575949.90929","577493.310809"
"Blocked","Male","ball","3","M_gnash.wav","None","732.632095751","117","569833.992998","576716.78345","577483.647408","578250.194158","579016.816037","565184.053842","565950.514334","566717.650052","570601.238162","571367.417619","572134.149561","572883.432597","573666.647601","574433.526709","575200.658407","575949.90929","578259.208922"
"Blocked","Male","ball","3","M_ball.wav","None","730.917132678","117","569833.992998","576716.78345","577483.647408","578250.194158","579016.816037","579783.134001","565950.514334","566717.650052","570601.238162","571367.417619","572134.149561","572883.432597","573666.647601","574433.526709","575200.658407","575949.90929","579026.321761"
"Blocked","Male","ball","3","M_cad.wav","space","393.525125575","117","569833.992998","576716.78345","577483.647408","578250.194158","579016.816037","579783.134001","580550.417502","566717.650052","570601.238162","571367.417619","572134.149561","572883.432597","573666.647601","574433.526709","575200.658407","575949.90929","579792.121558"
"Blocked","Male","ball","3","M_lash.wav","None","727.419498464","117","569833.992998","576716.78345","577483.647408","578250.194158","579016.816037","579783.134001","580550.417502","581316.81647","570601.238162","571367.417619","572134.149561","572883.432597","573666.647601","574433.526709","575200.658407","575949.90929","580560.090797"
"Blocked","Male","cave","8","M_tile.wav","None","727.014486445","117","584450.486818","576716.78345","577483.647408","578250.194158","579016.816037","579783.134001","580550.417502","581316.81647","570601.238162","571367.417619","572134.149561","572883.432597","573666.647601","574433.526709","575200.658407","575949.90929","581326.209347"
"Blocked","Male","cave","8","M_jaw.wav","None","721.823221844","117","584450.486818","576716.78345","577483.647408","578250.194158","579016.816037","579783.134001","580550.417502","581316.81647","585216.962769","571367.417619","572134.149561","572883.432597","573666.647601","574433.526709","575200.658407","575949.90929","584460.054377"
"Blocked","Male","cave","8","M_romp.wav","None","720.912408578","117","584450.486818","576716.78345","577483.647408","578250.194158","579016.816037","579783.134001","580550.417502","581316.81647","585216.962769","585983.748507","572134.149561","572883.432597","573666.647601","574433.526709","575200.658407","575949.90929","585226.457363"
"Blocked","Male","cave","8","M_reek.wav","None","719.569376393","117","584450.486818","576716.78345","577483.647408","578250.194158","579016.816037","579783.134001","580550.417502","581316.81647","585216.962769","585983.748507","586733.456342","572883.432597","573666.647601","574433.526709","575200.658407","575949.90929","585993.636365"
"Blocked","Male","cave","8","M_jolt.wav","None","735.450793829","117","584450.486818","576716.78345","577483.647408","578250.194158","579016.816037","579783.134001","580550.417502","581316.81647","585216.962769","585983.748507","586733.456342","587499.469465","573666.647601","574433.526709","575200.658407","575949.90929","586742.984636"
"Blocked","Male","cave","8","M_cave.wav","None","735.986584521","117","584450.486818","576716.78345","577483.647408","578250.194158","579016.816037","579783.134001","580550.417502","581316.81647","585216.962769","585983.748507","586733.456342","587499.469465","588266.526654","574433.526709","575200.658407","575949.90929","587508.106424"
"Blocked","Male","cave","8","M_tile.wav","space","349.408187802","117","584450.486818","576716.78345","577483.647408","578250.194158","579016.816037","579783.134001","580550.417502","581316.81647","585216.962769","585983.748507","586733.456342","587499.469465","588266.526654","589033.187488","575200.658407","575949.90929","588275.934372"
"Blocked","Male","cave","8","M_cave.wav","None","731.284426016","117","584450.486818","576716.78345","577483.647408","578250.194158","579016.816037","579783.134001","580550.417502","581316.81647","585216.962769","585983.748507","586733.456342","587499.469465","588266.526654","589033.187488","589799.850795","575949.90929","589043.24137"
"Blocked","Male","cave","8","M_knife.wav","space","464.199411843","117","584450.486818","576716.78345","577483.647408","578250.194158","579016.816037","579783.134001","580550.417502","581316.81647","585216.962769","585983.748507","586733.456342","587499.469465","588266.526654","589033.187488","589799.850795","590566.489677","589809.148448"
"Blocked","Male","cave","8","M_priest.wav","None","729.951596426","117","584450.486818","591333.112174","577483.647408","578250.194158","579016.816037","579783.134001","580550.417502","581316.81647","585216.962769","585983.748507","586733.456342","587499.469465","588266.526654","589033.187488","589799.850795","590566.489677","590575.868643"
"Blocked","Male","cave","8","M_tile.wav","None","728.989151859","117","584450.486818","591333.112174","592100.192242","578250.194158","579016.816037","579783.134001","580550.417502","581316.81647","585216.962769","585983.748507","586733.456342","587499.469465","588266.526654","589033.187488","589799.850795","590566.489677","591342.510617"
"Blocked","Male","cave","8","M_cave.wav","None","727.638390439","117","584450.486818","591333.112174","592100.192242","592866.371698","579016.816037","579783.134001","580550.417502","581316.81647","585216.962769","585983.748507","586733.456342","587499.469465","588266.526654","589033.187488","589799.850795","590566.489677","592109.477837"
"Blocked","Male","cave","8","M_jolt.wav","space","389.132445722","117","584450.486818","591333.112174","592100.192242","592866.371698","593633.03315","579783.134001","580550.417502","581316.81647","585216.962769","585983.748507","586733.456342","587499.469465","588266.526654","589033.187488","589799.850795","590566.489677","592876.108682"
"Blocked","Male","cave","8","M_dime.wav","None","717.21814257","117","584450.486818","591333.112174","592100.192242","592866.371698","593633.03315","594400.066224","580550.417502","581316.81647","585216.962769","585983.748507","586733.456342","587499.469465","588266.526654","589033.187488","589799.850795","590566.489677","593650.431662"
"Blocked","Male","cave","8","M_cave.wav","None","722.921391804","117","584450.486818","591333.112174","592100.192242","592866.371698","593633.03315","594400.066224","595166.754574","581316.81647","585216.962769","585983.748507","586733.456342","587499.469465","588266.526654","589033.187488","589799.850795","590566.489677","594410.116396"
"Blocked","Male","cave","8","M_depth.wav","space","336.364946124","117","584450.486818","591333.112174","592100.192242","592866.371698","593633.03315","594400.066224","595166.754574","595932.780064","585216.962769","585983.748507","586733.456342","587499.469465","588266.526654","589033.187488","589799.850795","590566.489677","595176.831025"
"Blocked","Male","done","23","M_ball.wav","None","721.17891266","117","599050.327534","591333.112174","592100.192242","592866.371698","593633.03315","594400.066224","595166.754574","595932.780064","585216.962769","585983.748507","586733.456342","587499.469465","588266.526654","589033.187488","589799.850795","590566.489677","595942.050202"
"Blocked","Male","done","23","M_jaw.wav","None","722.074885794","117","599050.327534","591333.112174","592100.192242","592866.371698","593633.03315","594400.066224","595166.754574","595932.780064","599816.730211","585983.748507","586733.456342","587499.469465","588266.526654","589033.187488","589799.850795","590566.489677","599059.578194"
"Blocked","Male","done","23","M_romp.wav","None","720.488537219","117","599050.327534","591333.112174","592100.192242","592866.371698","593633.03315","594400.066224","595166.754574","595932.780064","599816.730211","600583.310043","586733.456342","587499.469465","588266.526654","589033.187488","589799.850795","590566.489677","599826.566747"
"Blocked","Male","done","23","M_done.wav","None","719.684078271","117","599050.327534","591333.112174","592100.192242","592866.371698","593633.03315","594400.066224","595166.754574","595932.780064","599816.730211","600583.310043","601349.860194","587499.469465","588266.526654","589033.187488","589799.850795","590566.489677","600593.041152"
"Blocked","Male","done","23","M_lash.wav","space","439.773786886","117","599050.327534","591333.112174","592100.192242","592866.371698","593633.03315","594400.066224","595166.754574","595932.780064","599816.730211","600583.310043","601349.860194","602099.264424","588266.526654","589033.187488","589799.850795","590566.489677","601361.177033"
"Blocked","Male","done","23","M_dime.wav","None","735.477073235","117","599050.327534","591333.112174","592100.192242","592866.371698","593633.03315","594400.066224","595166.754574","595932.780064","599816.730211","600583.310043","601349.860194","602099.264424","602866.088499","589033.187488","589799.850795","590566.489677","602108.492824"
"Blocked","Male","done","23","M_romp.wav","space","452.951517276","117","599050.327534","591333.112174","592100.192242","592866.371698","593633.03315","594400.066224","595166.754574","595932.780064","599816.730211","600583.310043","601349.860194","602099.264424","602866.088499","603633.154963","589799.850795","590566.489677","602875.948223"
"Blocked","Male","done","23","M_done.wav","None","731.540727516","117","599050.327534","591333.112174","592100.192242","592866.371698","593633.03315","594400.066224","595166.754574","595932.780064","599816.730211","600583.310043","601349.860194","602099.264424","602866.088499","603633.154963","604399.901746","590566.489677","603642.979441"
"Blocked","Male","done","23","M_gnash.wav","space","446.906017416","117","599050.327534","591333.112174","592100.192242","592866.371698","593633.03315","594400.066224","595166.754574","595932.780064","599816.730211","600583.310043","601349.860194","602099.264424","602866.088499","603633.154963","604399.901746","605165.962172","604409.997366"
"Blocked","Male","done","23","M_jaw.wav","None","729.88667083","117","599050.327534","605932.78903","592100.192242","592866.371698","593633.03315","594400.066224","595166.754574","595932.780064","599816.730211","600583.310043","601349.860194","602099.264424","602866.088499","603633.154963","604399.901746","605165.962172","605175.562503"
"Blocked","Male","done","23","M_ball.wav","None","728.692040007","117","599050.327534","605932.78903","606699.355258","592866.371698","593633.03315","594400.066224","595166.754574","595932.780064","599816.730211","600583.310043","601349.860194","602099.264424","602866.088499","603633.154963","604399.901746","605165.962172","605942.331546"
"Blocked","Male","done","23","M_bluff.wav","None","728.452124487","117","599050.327534","605932.78903","606699.355258","607465.921177","593633.03315","594400.066224","595166.754574","595932.780064","599816.730211","600583.310043","601349.860194","602099.264424","602866.088499","603633.154963","604399.901746","605165.962172","606708.55676"
"Blocked","Male","done","23","M_done.wav","None","727.182365474","117","599050.327534","605932.78903","606699.355258","607465.921177","608232.679708","594400.066224","595166.754574","595932.780064","599816.730211","600583.310043","601349.860194","602099.264424","602866.088499","603633.154963","604399.901746","605165.962172","607475.788939"
"Blocked","Male","done","23","M_knife.wav","space","429.864596139","117","599050.327534","605932.78903","606699.355258","607465.921177","608232.679708","608999.298185","595166.754574","595932.780064","599816.730211","600583.310043","601349.860194","602099.264424","602866.088499","603633.154963","604399.901746","605165.962172","608242.901778"
"Blocked","Male","done","23","M_done.wav","None","724.301524329","117","599050.327534","605932.78903","606699.355258","607465.921177","608232.679708","608999.298185","609766.285502","595932.780064","599816.730211","600583.310043","601349.860194","602099.264424","602866.088499","603633.154963","604399.901746","605165.962172","609008.968388"
"Blocked","Male","done","23","M_jaw.wav","space","519.774479428","117","599050.327534","605932.78903","606699.355258","607465.921177","608232.679708","608999.298185","609766.285502","610532.760525","599816.730211","600583.310043","601349.860194","602099.264424","602866.088499","603633.154963","604399.901746","605165.962172","609776.967616"
"Blocked","Male","ball","1","M_jaw.wav","None","720.974551645","117","613666.258357","605932.78903","606699.355258","607465.921177","608232.679708","608999.298185","609766.285502","610532.760525","599816.730211","600583.310043","601349.860194","602099.264424","602866.088499","603633.154963","604399.901746","605165.962172","610542.931582"
"Blocked","Male","ball","1","M_ball.wav","None","720.177203577","117","613666.258357","605932.78903","606699.355258","607465.921177","608232.679708","608999.298185","609766.285502","610532.760525","614432.644957","600583.310043","601349.860194","602099.264424","602866.088499","603633.154963","604399.901746","605165.962172","613676.536696"
"Blocked","Male","ball","1","M_depth.wav","space","349.599254521","117","613666.258357","605932.78903","606699.355258","607465.921177","608232.679708","608999.298185","609766.285502","610532.760525","614432.644957","615199.484182","601349.860194","602099.264424","602866.088499","603633.154963","604399.901746","605165.962172","614443.010482"
"Blocked","Male","ball","1","M_knife.wav","None","718.624863657","117","613666.258357","605932.78903","606699.355258","607465.921177","608232.679708","608999.298185","609766.285502","610532.760525","614432.644957","615199.484182","615948.734446","602099.264424","602866.088499","603633.154963","604399.901746","605165.962172","615209.076783"
"Blocked","Male","ball","1","M_done.wav","None","734.343039599","117","613666.258357","605932.78903","606699.355258","607465.921177","608232.679708","608999.298185","609766.285502","610532.760525","614432.644957","615199.484182","615948.734446","616715.582327","602866.088499","603633.154963","604399.901746","605165.962172","615958.994544"
"Blocked","Male","ball","1","M_ball.wav","None","733.67523354","117","613666.258357","605932.78903","606699.355258","607465.921177","608232.679708","608999.298185","609766.285502","610532.760525","614432.644957","615199.484182","615948.734446","616715.582327","617482.562223","603633.154963","604399.901746","605165.962172","616725.461219"
"Blocked","Male","ball","1","M_done.wav","space","380.387278055","117","613666.258357","605932.78903","606699.355258","607465.921177","608232.679708","608999.298185","609766.285502","610532.760525","614432.644957","615199.484182","615948.734446","616715.582327","617482.562223","618249.339305","604399.901746","605165.962172","617492.096701"
"Blocked","Male","ball","1","M_bluff.wav","None","730.385361196","117","613666.258357","605932.78903","606699.355258","607465.921177","608232.679708","608999.298185","609766.285502","610532.760525","614432.644957","615199.484182","615948.734446","616715.582327","617482.562223","618249.339305","619015.821748","605165.962172","618259.046608"
"Blocked","Male","ball","1","M_reek.wav","None","729.093341972","117","613666.258357","605932.78903","606699.355258","607465.921177","608232.679708","608999.298185","609766.285502","610532.760525","614432.644957","615199.484182","615948.734446","616715.582327","617482.562223","618249.339305","619015.821748","619782.285022","619025.677452"
"Blocked","Male","ball","1","M_dime.wav","None","728.871358282","117","613666.258357","620549.249151","606699.355258","607465.921177","608232.679708","608999.298185","609766.285502","610532.760525","614432.644957","615199.484182","615948.734446","616715.582327","617482.562223","618249.339305","619015.821748","619782.285022","619791.783327"
"Blocked","Male","ball","1","M_ball.wav","None","727.578411563","117","613666.258357","620549.249151","621315.518885","607465.921177","608232.679708","608999.298185","609766.285502","610532.760525","614432.644957","615199.484182","615948.734446","616715.582327","617482.562223","618249.339305","619015.821748","619782.285022","620558.941614"
"Blocked","Male","ball","1","M_cad.wav","space","339.046063775","117","613666.258357","620549.249151","621315.518885","622082.330594","608232.679708","608999.298185","609766.285502","610532.760525","614432.644957","615199.484182","615948.734446","616715.582327","617482.562223","618249.339305","619015.821748","619782.285022","621325.341818"
"Blocked","Male","ball","1","M_reek.wav","None","725.997318877","117","613666.258357","620549.249151","621315.518885","622082.330594","622849.113858","608999.298185","609766.285502","610532.760525","614432.644957","615199.484182","615948.734446","616715.582327","617482.562223","618249.339305","619015.821748","619782.285022","622091.41863"
"Blocked","Male","ball","1","M_knife.wav","None","723.86930541","117","613666.258357","620549.249151","621315.518885","622082.330594","622849.113858","623615.465523","609766.285502","610532.760525","614432.644957","615199.484182","615948.734446","616715.582327","617482.562223","618249.339305","619015.821748","619782.285022","622859.896144"
"Blocked","Male","ball","1","M_ball.wav","None","724.422100422","117","613666.258357","620549.249151","621315.518885","622082.330594","622849.113858","623615.465523","624382.822606","610532.760525","614432.644957","615199.484182","615948.734446","616715.582327","617482.562223","618249.339305","619015.821748","619782.285022","623625.017313"
"Blocked","Male","ball","1","M_knife.wav","space","391.825930172","117","613666.258357","620549.249151","621315.518885","622082.330594","622849.113858","623615.465523","624382.822606","625149.177671","614432.644957","615199.484182","615948.734446","616715.582327","617482.562223","618249.339305","619015.821748","619782.285022","624392.43283"
"Blocked","Male","done","20","M_cad.wav","None","721.138720633","117","628265.745692","620549.249151","621315.518885","622082.330594","622849.113858","623615.465523","624382.822606","625149.177671","614432.644957","615199.484182","615948.734446","616715.582327","617482.562223","618249.339305","619015.821748","619782.285022","625159.392321"
"Blocked","Male","done","20","M_lash.wav","None","721.602474834","117","628265.745692","620549.249151","621315.518885","622082.330594","622849.113858","623615.465523","624382.822606","625149.177671","629032.006151","615199.484182","615948.734446","616715.582327","617482.562223","618249.339305","619015.821748","619782.285022","628275.401673"
"Blocked","Male","done","20","M_cling.wav","None","721.022472906","117","628265.745692","620549.249151","621315.518885","622082.330594","622849.113858","623615.465523","624382.822606","625149.177671","629032.006151","629799.050973","615948.734446","616715.582327","617482.562223","618249.339305","619015.821748","619782.285022","629041.420052"
"Blocked","Male","done","20","M_done.wav","None","718.742348065","117","628265.745692","620549.249151","621315.518885","622082.330594","622849.113858","623615.465523","624382.822606","625149.177671","629032.006151","629799.050973","630549.027167","616715.582327","617482.562223","618249.339305","619015.821748","619782.285022","629809.183694"
"Blocked","Male","done","20","M_reek.wav","space","465.344575554","117","628265.745692","620549.249151","621315.518885","622082.330594","622849.113858","623615.465523","624382.822606","625149.177671","629032.006151","629799.050973","630549.027167","631315.058223","617482.562223","618249.339305","619015.821748","619782.285022","630558.754566"
"Blocked","Male","done","20","M_greet.wav","None","734.805247979","117","628265.745692","620549.249151","621315.518885","622082.330594","622849.113858","623615.465523","624382.822606","625149.177671","629032.006151","629799.050973","630549.027167","631315.058223","632081.549632","618249.339305","619015.821748","619782.285022","631324.392049"
"Blocked","Male","done","20","M_priest.wav","None","733.93122587","117","628265.745692","620549.249151","621315.518885","622082.330594","622849.113858","623615.465523","624382.822606","625149.177671","629032.006151","629799.050973","630549.027167","631315.058223","632081.549632","632848.60713","619015.821748","619782.285022","632090.705067"
"Blocked","Male","done","20","M_done.wav","None","732.281188393","117","628265.745692","620549.249151","621315.518885","622082.330594","622849.113858","623615.465523","624382.822606","625149.177671","629032.006151","629799.050973","630549.027167","631315.058223","632081.549632","632848.60713","633615.186033","619782.285022","632858.538271"
"Blocked","Male","done","20","M_depth.wav","space","470.697844969","117","628265.745692","620549.249151","621315.518885","622082.330594","622849.113858","623615.465523","624382.822606","625149.177671","629032.006151","629799.050973","630549.027167","631315.058223","632081.549632","632848.60713","633615.186033","634381.736184","633625.300204"
"Blocked","Male","done","20","M_done.wav","None","730.211607952","117","628265.745692","635148.554385","621315.518885","622082.330594","622849.113858","623615.465523","624382.822606","625149.177671","629032.006151","629799.050973","630549.027167","631315.058223","632081.549632","632848.60713","633615.186033","634381.736184","634391.223977"
"Blocked","Male","done","20","M_cad.wav","space","649.931426204","117","628265.745692","635148.554385","635915.09588","622082.330594","622849.113858","623615.465523","624382.822606","625149.177671","629032.006151","629799.050973","630549.027167","631315.058223","632081.549632","632848.60713","633615.186033","634381.736184","635158.018681"
"Blocked","Male","done","20","M_done.wav","None","727.177727938","117","628265.745692","635148.554385","635915.09588","636681.90326","622849.113858","623615.465523","624382.822606","625149.177671","629032.006151","629799.050973","630549.027167","631315.058223","632081.549632","632848.60713","633615.186033","634381.736184","635925.167075"
"Blocked","Male","done","20","M_gnash.wav","space","524.358535171","117","628265.745692","635148.554385","635915.09588","636681.90326","637448.030776","623615.465523","624382.822606","625149.177671","629032.006151","629799.050973","630549.027167","631315.058223","632081.549632","632848.60713","633615.186033","634381.736184","636691.564496"
"Blocked","Male","done","20","M_depth.wav","None","726.216520037","117","628265.745692","635148.554385","635915.09588","636681.90326","637448.030776","638215.082091","624382.822606","625149.177671","629032.006151","629799.050973","630549.027167","631315.058223","632081.549632","632848.60713","633615.186033","634381.736184","637457.009057"
"Blocked","Male","done","20","M_cling.wav","None","724.112930955","117","628265.745692","635148.554385","635915.09588","636681.90326","637448.030776","638215.082091","638981.812797","625149.177671","629032.006151","629799.050973","630549.027167","631315.058223","632081.549632","632848.60713","633615.186033","634381.736184","638225.094544"
"Blocked","Male","done","20","M_cad.wav","None","722.487008694","117","628265.745692","635148.554385","635915.09588","636681.90326","637448.030776","638215.082091","638981.812797","639748.569782","629032.006151","629799.050973","630549.027167","631315.058223","632081.549632","632848.60713","633615.186033","634381.736184","638992.638057"
"Blocked","Male","tile","18","M_knife.wav","None","722.739600154","117","642881.69692","635148.554385","635915.09588","636681.90326","637448.030776","638215.082091","638981.812797","639748.569782","629032.006151","629799.050973","630549.027167","631315.058223","632081.549632","632848.60713","633615.186033","634381.736184","639758.418685"
"Blocked","Male","tile","18","M_reek.wav","None","721.709138306","117","642881.69692","635148.554385","635915.09588","636681.90326","637448.030776","638215.082091","638981.812797","639748.569782","643649.1112","629799.050973","630549.027167","631315.058223","632081.549632","632848.60713","633615.186033","634381.736184","642891.914971"
"Blocked","Male","tile","18","M_reek.wav","None","720.478025469","117","642881.69692","635148.554385","635915.09588","636681.90326","637448.030776","638215.082091","638981.812797","639748.569782","643649.1112","644415.25201","630549.027167","631315.058223","632081.549632","632848.60713","633615.186033","634381.736184","643659.169719"
"Blocked","Male","tile","18","M_cling.wav","None","719.980262627","117","642881.69692","635148.554385","635915.09588","636681.90326","637448.030776","638215.082091","638981.812797","639748.569782","643649.1112","644415.25201","645181.745583","631315.058223","632081.549632","632848.60713","633615.186033","634381.736184","644425.92485"
"Blocked","Male","tile","18","M_lash.wav","None","720.145049956","117","642881.69692","635148.554385","635915.09588","636681.90326","637448.030776","638215.082091","638981.812797","639748.569782","643649.1112","644415.25201","645181.745583","645948.547398","632081.549632","632848.60713","633615.186033","634381.736184","645191.946939"
"Blocked","Male","tile","18","M_jaw.wav","None","719.108404708","117","642881.69692","635148.554385","635915.09588","636681.90326","637448.030776","638215.082091","638981.812797","639748.569782","643649.1112","644415.25201","645181.745583","645948.547398","646698.395596","632848.60713","633615.186033","634381.736184","645958.732059"
"Blocked","Male","tile","18","M_tile.wav","None","735.557148131","117","642881.69692","635148.554385","635915.09588","636681.90326","637448.030776","638215.082091","638981.812797","639748.569782","643649.1112","644415.25201","645181.745583","645948.547398","646698.395596","647464.764264","633615.186033","634381.736184","646707.974903"
"Blocked","Male","tile","18","M_reek.wav","space","541.164060167","117","642881.69692","635148.554385","635915.09588","636681.90326","637448.030776","638215.082091","638981.812797","639748.569782","643649.1112","644415.25201","645181.745583","645948.547398","646698.395596","647464.764264","648230.83984","634381.736184","647474.453636"
"Blocked","Male","tile","18","M_park.wav","None","734.840184115","117","642881.69692","635148.554385","635915.09588","636681.90326","637448.030776","638215.082091","638981.812797","639748.569782","643649.1112","644415.25201","645181.745583","645948.547398","646698.395596","647464.764264","648230.83984","648997.625888","648240.156044"
"Blocked","Male","tile","18","M_tile.wav","None","734.282442398","117","642881.69692","649764.720486","635915.09588","636681.90326","637448.030776","638215.082091","638981.812797","639748.569782","643649.1112","644415.25201","645181.745583","645948.547398","646698.395596","647464.764264","648230.83984","648997.625888","649006.945801"
"Blocked","Male","tile","18","M_jaw.wav","space","561.100235209","117","642881.69692","649764.720486","650531.339273","636681.90326","637448.030776","638215.082091","638981.812797","639748.569782","643649.1112","644415.25201","645181.745583","645948.547398","646698.395596","647464.764264","648230.83984","648997.625888","649774.441393"
"Blocked","Male","tile","18","M_tile.wav","None","731.47827528","117","642881.69692","649764.720486","650531.339273","651298.058539","637448.030776","638215.082091","638981.812797","639748.569782","643649.1112","644415.25201","645181.745583","645948.547398","646698.395596","647464.764264","648230.83984","648997.625888","650540.938985"
"Blocked","Male","tile","18","M_done.wav","space","595.721032674","117","642881.69692","649764.720486","650531.339273","651298.058539","652064.593541","638215.082091","638981.812797","639748.569782","643649.1112","644415.25201","645181.745583","645948.547398","646698.395596","647464.764264","648230.83984","648997.625888","651307.765224"
"Blocked","Male","tile","18","M_tile.wav","None","729.195058724","117","642881.69692","649764.720486","650531.339273","651298.058539","652064.593541","652831.287147","638981.812797","639748.569782","643649.1112","644415.25201","645181.745583","645948.547398","646698.395596","647464.764264","648230.83984","648997.625888","652074.42513"
"Blocked","Male","tile","18","M_ball.wav","space","606.47765694","117","642881.69692","649764.720486","650531.339273","651298.058539","652064.593541","652831.287147","653597.822148","639748.569782","643649.1112","644415.25201","645181.745583","645948.547398","646698.395596","647464.764264","648230.83984","648997.625888","652840.948074"
"Blocked","Male","tile","18","M_cad.wav","None","728.219319877","117","642881.69692","649764.720486","650531.339273","651298.058539","652064.593541","652831.287147","653597.822148","654365.103485","643649.1112","644415.25201","645181.745583","645948.547398","646698.395596","647464.764264","648230.83984","648997.625888","653607.437628"
"Blocked","Male","cave","10","M_ball.wav","None","727.049422596","117","657498.277308","649764.720486","650531.339273","651298.058539","652064.593541","652831.287147","653597.822148","654365.103485","643649.1112","644415.25201","645181.745583","645948.547398","646698.395596","647464.764264","648230.83984","648997.625888","654374.556033"
"Blocked","Male","cave","10","M_tile.wav","None","722.133937161","117","657498.277308","649764.720486","650531.339273","651298.058539","652064.593541","652831.287147","653597.822148","654365.103485","658264.716776","644415.25201","645181.745583","645948.547398","646698.395596","647464.764264","648230.83984","648997.625888","657507.788906"
"Blocked","Male","cave","10","M_jaw.wav","None","720.617151732","117","657498.277308","649764.720486","650531.339273","651298.058539","652064.593541","652831.287147","653597.822148","654365.103485","658264.716776","659031.597429","645181.745583","645948.547398","646698.395596","647464.764264","648230.83984","648997.625888","658275.406929"
"Blocked","Male","cave","10","M_jaw.wav","None","720.358376886","117","657498.277308","649764.720486","650531.339273","651298.058539","652064.593541","652831.287147","653597.822148","654365.103485","658264.716776","659031.597429","659798.177879","645948.547398","646698.395596","647464.764264","648230.83984","648997.625888","659041.740352"
"Blocked","Male","cave","10","M_reek.wav","None","719.730762867","117","657498.277308","649764.720486","650531.339273","651298.058539","652064.593541","652831.287147","653597.822148","654365.103485","658264.716776","659031.597429","659798.177879","660564.739778","646698.395596","647464.764264","648230.83984","648997.625888","659808.045641"
"Blocked","Male","cave","10","M_cave.wav","None","719.316475763","117","657498.277308","649764.720486","650531.339273","651298.058539","652064.593541","652831.287147","653597.822148","654365.103485","658264.716776","659031.597429","659798.177879","660564.739778","661314.648264","647464.764264","648230.83984","648997.625888","660574.644641"
"Blocked","Male","cave","10","M_romp.wav","space","515.118387164","117","657498.277308","649764.720486","650531.339273","651298.058539","652064.593541","652831.287147","653597.822148","654365.103485","658264.716776","659031.597429","659798.177879","660564.739778","661314.648264","662080.747337","648230.83984","648997.625888","661324.02692"
"Blocked","Male","cave","10","M_cave.wav","None","735.335473611","117","657498.277308","649764.720486","650531.339273","651298.058539","652064.593541","652831.287147","653597.822148","654365.103485","658264.716776","659031.597429","659798.177879","660564.739778","661314.648264","662080.747337","662847.784739","648997.625888","662089.750352"
"Blocked","Male","cave","10","M_dime.wav","space","533.386283758","117","657498.277308","649764.720486","650531.339273","651298.058539","652064.593541","652831.287147","653597.822148","654365.103485","658264.716776","659031.597429","659798.177879","660564.739778","661314.648264","662080.747337","662847.784739","663614.587791","662857.74587"
"Blocked","Male","cave","10","M_jaw.wav","None","732.169887386","117","657498.277308","664380.955532","650531.339273","651298.058539","652064.593541","652831.287147","653597.822148","654365.103485","658264.716776","659031.597429","659798.177879","660564.739778","661314.648264","662080.747337","662847.784739","663614.587791","663623.766723"
"Blocked","Male","cave","10","M_cave.wav","None","730.35197088","117","657498.277308","664380.955532","665147.636152","651298.058539","652064.593541","652831.287147","653597.822148","654365.103485","658264.716776","659031.597429","659798.177879","660564.739778","661314.648264","662080.747337","662847.784739","663614.587791","664391.172655"
"Blocked","Male","cave","10","M_knife.wav","space","401.482529458","117","657498.277308","664380.955532","665147.636152","665914.160024","652064.593541","652831.287147","653597.822148","654365.103485","658264.716776","659031.597429","659798.177879","660564.739778","661314.648264","662080.747337","662847.784739","663614.587791","665157.582443"
"Blocked","Male","cave","10","M_cave.wav","None","728.729140348","117","657498.277308","664380.955532","665147.636152","665914.160024","666680.897841","652831.287147","653597.822148","654365.103485","658264.716776","659031.597429","659798.177879","660564.739778","661314.648264","662080.747337","662847.784739","663614.587791","665923.892988"
"Blocked","Male","cave","10","M_romp.wav","space","516.815727577","117","657498.277308","664380.955532","665147.636152","665914.160024","666680.897841","667447.907108","653597.822148","654365.103485","658264.716776","659031.597429","659798.177879","660564.739778","661314.648264","662080.747337","662847.784739","663614.587791","666690.20075"
"Blocked","Male","cave","10","M_dime.wav","None","725.930847446","117","657498.277308","664380.955532","665147.636152","665914.160024","666680.897841","667447.907108","668214.107589","654365.103485","658264.716776","659031.597429","659798.177879","660564.739778","661314.648264","662080.747337","662847.784739","663614.587791","667457.557524"
"Blocked","Male","cave","10","M_knife.wav","None","725.215429295","117","657498.277308","664380.955532","665147.636152","665914.160024","666680.897841","667447.907108","668214.107589","668980.394636","658264.716776","659031.597429","659798.177879","660564.739778","661314.648264","662080.747337","662847.784739","663614.587791","668223.868996"
"Blocked","Male","cave","12","M_gnash.wav","None","725.288702452","117","672114.376319","664380.955532","665147.636152","665914.160024","666680.897841","667447.907108","668214.107589","668980.394636","658264.716776","659031.597429","659798.177879","660564.739778","661314.648264","662080.747337","662847.784739","663614.587791","668989.516063"
"Blocked","Male","cave","12","M_jolt.wav","None","721.791377378","117","672114.376319","664380.955532","665147.636152","665914.160024","666680.897841","667447.907108","668214.107589","668980.394636","672880.992323","659031.597429","659798.177879","660564.739778","661314.648264","662080.747337","662847.784739","663614.587791","672124.350126"
"Blocked","Male","cave","12","M_romp.wav","None","721.063901612","117","672114.376319","664380.955532","665147.636152","665914.160024","666680.897841","667447.907108","668214.107589","668980.394636","672880.992323","673648.182764","659798.177879","660564.739778","661314.648264","662080.747337","662847.784739","663614.587791","672891.146376"
"Blocked","Male","cave","12","M_cave.wav","None","720.042714864","117","672114.376319","664380.955532","665147.636152","665914.160024","666680.897841","667447.907108","668214.107589","668980.394636","672880.992323","673648.182764","674414.370259","660564.739778","661314.648264","662080.747337","662847.784739","663614.587791","673658.19769"
"Blocked","Male","cave","12","M_cad.wav","space","453.78782069","117","672114.376319","664380.955532","665147.636152","665914.160024","666680.897841","667447.907108","668214.107589","668980.394636","672880.992323","673648.182764","674414.370259","675164.26916","661314.648264","662080.747337","662847.784739","663614.587791","674425.02764"
"Blocked","Male","cave","12","M_cave.wav","None","735.657009864","117","672114.376319","664380.955532","665147.636152","665914.160024","666680.897841","667447.907108","668214.107589","668980.394636","672880.992323","673648.182764","674414.370259","675164.26916","675930.22787","662080.747337","662847.784739","663614.587791","675173.53497"
"Blocked","Male","cave","12","M_knife.wav","space","538.84126991","117","672114.376319","664380.955532","665147.636152","665914.160024","666680.897841","667447.907108","668214.107589","668980.394636","672880.992323","673648.182764","674414.370259","675164.26916","675930.22787","676697.620508","662847.784739","663614.587791","675939.918169"
"Blocked","Male","cave","12","M_park.wav","None","732.485858593","117","672114.376319","664380.955532","665147.636152","665914.160024","666680.897841","667447.907108","668214.107589","668980.394636","672880.992323","673648.182764","674414.370259","675164.26916","675930.22787","676697.620508","677463.821298","663614.587791","676707.683356"
"Blocked","Male","cave","12","M_gnash.wav","None","732.644771691","117","672114.376319","664380.955532","665147.636152","665914.160024","666680.897841","667447.907108","668214.107589","668980.394636","672880.992323","673648.182764","674414.370259","675164.26916","675930.22787","676697.620508","677463.821298","678230.513976","677473.596927"
"Blocked","Male","cave","12","M_cave.wav","None","732.229557107","117","672114.376319","678996.778454","665147.636152","665914.160024","666680.897841","667447.907108","668214.107589","668980.394636","672880.992323","673648.182764","674414.370259","675164.26916","675930.22787","676697.620508","677463.821298","678230.513976","678240.154807"
"Blocked","Male","cave","12","M_ball.wav","space","408.520463301","117","672114.376319","678996.778454","679763.74011","665914.160024","666680.897841","667447.907108","668214.107589","668980.394636","672880.992323","673648.182764","674414.370259","675164.26916","675930.22787","676697.620508","677463.821298","678230.513976","679006.141961"
"Blocked","Male","cave","12","M_done.wav","None","729.870903204","117","672114.376319","678996.778454","679763.74011","680530.455048","666680.897841","667447.907108","668214.107589","668980.394636","672880.992323","673648.182764","674414.370259","675164.26916","675930.22787","676697.620508","677463.821298","678230.513976","679773.362082"
"Blocked","Male","cave","12","M_depth.wav","None","728.866102421","117","672114.376319","678996.778454","679763.74011","680530.455048","681297.130722","667447.907108","668214.107589","668980.394636","672880.992323","673648.182764","674414.370259","675164.26916","675930.22787","676697.620508","677463.821298","678230.513976","680540.537683"
"Blocked","Male","cave","12","M_priest.wav","None","729.016667945","117","672114.376319","678996.778454","679763.74011","680530.455048","681297.130722","682063.42488","668214.107589","668980.394636","672880.992323","673648.182764","674414.370259","675164.26916","675930.22787","676697.620508","677463.821298","678230.513976","681306.166509"
"Blocked","Male","cave","12","M_cave.wav","None","729.102617057","117","672114.376319","678996.778454","679763.74011","680530.455048","681297.130722","682063.42488","682830.346035","668980.394636","672880.992323","673648.182764","674414.370259","675164.26916","675930.22787","676697.620508","677463.821298","678230.513976","682072.766127"
"Blocked","Male","cave","12","M_depth.wav","space","502.290327451","117","672114.376319","678996.778454","679763.74011","680530.455048","681297.130722","682063.42488","682830.346035","683597.906242","672880.992323","673648.182764","674414.370259","675164.26916","675930.22787","676697.620508","677463.821298","678230.513976","682840.276558"
"Blocked","Male","cave","7","M_jaw.wav","None","725.131026018","117","686730.681236","678996.778454","679763.74011","680530.455048","681297.130722","682063.42488","682830.346035","683597.906242","672880.992323","673648.182764","674414.370259","675164.26916","675930.22787","676697.620508","677463.821298","678230.513976","683607.916222"
"Blocked","Male","cave","7","M_tile.wav","None","720.818111891","117","686730.681236","678996.778454","679763.74011","680530.455048","681297.130722","682063.42488","682830.346035","683597.906242","687497.330631","673648.182764","674414.370259","675164.26916","675930.22787","676697.620508","677463.821298","678230.513976","686740.714404"
"Blocked","Male","cave","7","M_bluff.wav","None","720.215849753","117","686730.681236","678996.778454","679763.74011","680530.455048","681297.130722","682063.42488","682830.346035","683597.906242","687497.330631","688263.84801","674414.370259","675164.26916","675930.22787","676697.620508","677463.821298","678230.513976","687507.471389"
"Blocked","Male","cave","7","M_gnash.wav","None","719.243511761","117","686730.681236","678996.778454","679763.74011","680530.455048","681297.130722","682063.42488","682830.346035","683597.906242","687497.330631","688263.84801","689030.520901","675164.26916","675930.22787","676697.620508","677463.821298","678230.513976","688274.589176"
"Blocked","Male","cave","7","M_cave.wav","None","719.768172363","117","686730.681236","678996.778454","679763.74011","680530.455048","681297.130722","682063.42488","682830.346035","683597.906242","687497.330631","688263.84801","689030.520901","689796.911521","675930.22787","676697.620508","677463.821298","678230.513976","689040.585604"
"Blocked","Male","cave","7","M_knife.wav","space","496.104773832","117","686730.681236","678996.778454","679763.74011","680530.455048","681297.130722","682063.42488","682830.346035","683597.906242","687497.330631","688263.84801","689030.520901","689796.911521","690547.229038","676697.620508","677463.821298","678230.513976","689806.218449"
"Blocked","Male","cave","7","M_reek.wav","None","734.822561455","117","686730.681236","678996.778454","679763.74011","680530.455048","681297.130722","682063.42488","682830.346035","683597.906242","687497.330631","688263.84801","689030.520901","689796.911521","690547.229038","691313.267822","677463.821298","678230.513976","690557.275809"
"Blocked","Male","cave","7","M_cave.wav","None","734.985802948","117","686730.681236","678996.778454","679763.74011","680530.455048","681297.130722","682063.42488","682830.346035","683597.906242","687497.330631","688263.84801","689030.520901","689796.911521","690547.229038","691313.267822","692079.94968","678230.513976","691322.927204"
"Blocked","Male","cave","7","M_done.wav","space","533.004768629","117","686730.681236","678996.778454","679763.74011","680530.455048","681297.130722","682063.42488","682830.346035","683597.906242","687497.330631","688263.84801","689030.520901","689796.911521","690547.229038","691313.267822","692079.94968","692846.873616","692089.240531"
"Blocked","Male","cave","7","M_cave.wav","None","732.83336508","117","686730.681236","693613.348639","679763.74011","680530.455048","681297.130722","682063.42488","682830.346035","683597.906242","687497.330631","688263.84801","689030.520901","689796.911521","690547.229038","691313.267822","692079.94968","692846.873616","692856.488787"
"Blocked","Male","cave","7","M_lash.wav","space","494.791421908","117","686730.681236","693613.348639","694379.672787","680530.455048","681297.130722","682063.42488","682830.346035","683597.906242","687497.330631","688263.84801","689030.520901","689796.911521","690547.229038","691313.267822","692079.94968","692846.873616","693623.446114"
"Blocked","Male","cave","7","M_cave.wav","None","730.786354005","117","686730.681236","693613.348639","694379.672787","695147.17147","681297.130722","682063.42488","682830.346035","683597.906242","687497.330631","688263.84801","689030.520901","689796.911521","690547.229038","691313.267822","692079.94968","692846.873616","694389.722032"
"Blocked","Male","cave","7","M_greet.wav","space","553.383983526","117","686730.681236","693613.348639","694379.672787","695147.17147","695913.26807","682063.42488","682830.346035","683597.906242","687497.330631","688263.84801","689030.520901","689796.911521","690547.229038","691313.267822","692079.94968","692846.873616","695156.747686"
"Blocked","Male","cave","7","M_ball.wav","None","729.539164357","117","686730.681236","693613.348639","694379.672787","695147.17147","695913.26807","696679.948999","682830.346035","683597.906242","687497.330631","688263.84801","689030.520901","689796.911521","690547.229038","691313.267822","692079.94968","692846.873616","695923.05452"
"Blocked","Male","cave","7","M_greet.wav","None","729.060570011","117","686730.681236","693613.348639","694379.672787","695147.17147","695913.26807","696679.948999","697446.630238","683597.906242","687497.330631","688263.84801","689030.520901","689796.911521","690547.229038","691313.267822","692079.94968","692846.873616","696689.903638"
"Blocked","Male","cave","7","M_reek.wav","None","729.232777405","117","686730.681236","693613.348639","694379.672787","695147.17147","695913.26807","696679.948999","697446.630238","698213.23233","687497.330631","688263.84801","689030.520901","689796.911521","690547.229038","691313.267822","692079.94968","692846.873616","697455.712401"
"Blocked","Male","tile","15","M_cling.wav","None","727.946941581","117","701346.834661","693613.348639","694379.672787","695147.17147","695913.26807","696679.948999","697446.630238","698213.23233","687497.330631","688263.84801","689030.520901","689796.911521","690547.229038","691313.267822","692079.94968","692846.873616","698223.306308"
"Blocked","Male","tile","15","M_ball.wav","None","721.360395139","117","701346.834661","693613.348639","694379.672787","695147.17147","695913.26807","696679.948999","697446.630238","698213.23233","702113.606487","688263.84801","689030.520901","689796.911521","690547.229038","691313.267822","692079.94968","692846.873616","701357.436082"
"Blocked","Male","tile","15","M_depth.wav","None","721.731707687","117","701346.834661","693613.348639","694379.672787","695147.17147","695913.26807","696679.948999","697446.630238","698213.23233","702113.606487","702880.433653","689030.520901","689796.911521","690547.229038","691313.267822","692079.94968","692846.873616","702123.902139"
"Blocked","Male","tile","15","M_tile.wav","None","721.283411942","117","701346.834661","693613.348639","694379.672787","695147.17147","695913.26807","696679.948999","697446.630238","698213.23233","702113.606487","702880.433653","703647.097888","689796.911521","690547.229038","691313.267822","692079.94968","692846.873616","702890.788048"
"Blocked","Male","tile","15","M_done.wav","space","468.516963505","117","701346.834661","693613.348639","694379.672787","695147.17147","695913.26807","696679.948999","697446.630238","698213.23233","702113.606487","702880.433653","703647.097888","704413.344435","690547.229038","691313.267822","692079.94968","692846.873616","703657.380555"
"Blocked","Male","tile","15","M_tile.wav","None","720.935287114","117","701346.834661","693613.348639","694379.672787","695147.17147","695913.26807","696679.948999","697446.630238","698213.23233","702113.606487","702880.433653","703647.097888","704413.344435","705179.492974","691313.267822","692079.94968","692846.873616","704423.46417"
"Blocked","Male","tile","15","M_ball.wav","space","529.227026855","117","701346.834661","693613.348639","694379.672787","695147.17147","695913.26807","696679.948999","697446.630238","698213.23233","702113.606487","702880.433653","703647.097888","704413.344435","705179.492974","705946.597157","692079.94968","692846.873616","705188.628932"
"Blocked","Male","tile","15","M_done.wav","None","719.43519685","117","701346.834661","693613.348639","694379.672787","695147.17147","695913.26807","696679.948999","697446.630238","698213.23233","702113.606487","702880.433653","703647.097888","704413.344435","705179.492974","705946.597157","706713.253353","692846.873616","705956.899611"
"Blocked","Male","tile","15","M_gnash.wav","None","718.72379788","117","701346.834661","693613.348639","694379.672787","695147.17147","695913.26807","696679.948999","697446.630238","698213.23233","702113.606487","702880.433653","703647.097888","704413.344435","705179.492974","705946.597157","706713.253353","707480.206661","706724.029764"
"Blocked","Male","tile","15","M_tile.wav","None","719.704792631","117","701346.834661","708246.663443","694379.672787","695147.17147","695913.26807","696679.948999","697446.630238","698213.23233","702113.606487","702880.433653","703647.097888","704413.344435","705179.492974","705946.597157","706713.253353","707480.206661","707489.748249"
"Blocked","Male","tile","15","M_reek.wav","space","548.820951299","117","701346.834661","708246.663443","709013.306036","695147.17147","695913.26807","696679.948999","697446.630238","698213.23233","702113.606487","702880.433653","703647.097888","704413.344435","705179.492974","705946.597157","706713.253353","707480.206661","708256.958168"
"Blocked","Male","tile","15","M_tile.wav","None","717.574924129","117","701346.834661","708246.663443","709013.306036","709762.63823","695913.26807","696679.948999","697446.630238","698213.23233","702113.606487","702880.433653","703647.097888","704413.344435","705179.492974","705946.597157","706713.253353","707480.206661","709023.56397"
"Blocked","Male","tile","15","M_priest.wav","space","520.796593701","117","701346.834661","708246.663443","709013.306036","709762.63823","710529.441281","696679.948999","697446.630238","698213.23233","702113.606487","702880.433653","703647.097888","704413.344435","705179.492974","705946.597157","706713.253353","707480.206661","709772.935428"
"Blocked","Male","tile","15","M_ball.wav","None","733.91422155","117","701346.834661","708246.663443","709013.306036","709762.63823","710529.441281","711295.725237","697446.630238","698213.23233","702113.606487","702880.433653","703647.097888","704413.344435","705179.492974","705946.597157","706713.253353","707480.206661","710539.173009"
"Blocked","Male","tile","15","M_jaw.wav","None","735.207477454","117","701346.834661","708246.663443","709013.306036","709762.63823","710529.441281","711295.725237","712062.756147","698213.23233","702113.606487","702880.433653","703647.097888","704413.344435","705179.492974","705946.597157","706713.253353","707480.206661","711304.769372"
"Blocked","Male","tile","15","M_jolt.wav","None","733.91545823","117","701346.834661","708246.663443","709013.306036","709762.63823","710529.441281","711295.725237","712062.756147","712829.250957","702113.606487","702880.433653","703647.097888","704413.344435","705179.492974","705946.597157","706713.253353","707480.206661","712072.682033"
"Blocked","Male","done","19","M_tile.wav","None","734.217207631","117","715963.212234","708246.663443","709013.306036","709762.63823","710529.441281","711295.725237","712062.756147","712829.250957","702113.606487","702880.433653","703647.097888","704413.344435","705179.492974","705946.597157","706713.253353","707480.206661","712839.059358"
"Blocked","Male","done","19","M_done.wav","None","720.31942154","117","715963.212234","708246.663443","709013.306036","709762.63823","710529.441281","711295.725237","712062.756147","712829.250957","716729.682928","702880.433653","703647.097888","704413.344435","705179.492974","705946.597157","706713.253353","707480.206661","715973.332896"
"Blocked","Male","done","19","M_lash.wav","space","513.756495653","117","715963.212234","708246.663443","709013.306036","709762.63823","710529.441281","711295.725237","712062.756147","712829.250957","716729.682928","717496.105701","703647.097888","704413.344435","705179.492974","705946.597157","706713.253353","707480.206661","716739.742994"
"Blocked","Male","done","19","M_done.wav","None","719.17827701","117","715963.212234","708246.663443","709013.306036","709762.63823","710529.441281","711295.725237","712062.756147","712829.250957","716729.682928","717496.105701","718263.057463","704413.344435","705179.492974","705946.597157","706713.253353","707480.206661","717505.843612"
"Blocked","Male","done","19","M_lash.wav","space","452.164990144","117","715963.212234","708246.663443","709013.306036","709762.63823","710529.441281","711295.725237","712062.756147","712829.250957","716729.682928","717496.105701","718263.057463","719012.443144","705179.492974","705946.597157","706713.253353","707480.206661","718273.306122"
"Blocked","Male","done","19","M_ball.wav","None","734.85409675","117","715963.212234","708246.663443","709013.306036","709762.63823","710529.441281","711295.725237","712062.756147","712829.250957","716729.682928","717496.105701","718263.057463","719012.443144","719779.041525","705946.597157","706713.253353","707480.206661","719022.139008"
"Blocked","Male","done","19","M_cling.wav","None","734.458050647","117","715963.212234","708246.663443","709013.306036","709762.63823","710529.441281","711295.725237","712062.756147","712829.250957","716729.682928","717496.105701","718263.057463","719012.443144","719779.041525","720545.949076","706713.253353","707480.206661","719788.731206"
"Blocked","Male","done","19","M_park.wav","None","733.808176417","117","715963.212234","708246.663443","709013.306036","709762.63823","710529.441281","711295.725237","712062.756147","712829.250957","716729.682928","717496.105701","718263.057463","719012.443144","719779.041525","720545.949076","721312.498609","707480.206661","720555.335152"
"Blocked","Male","done","19","M_jolt.wav","None","733.052257056","117","715963.212234","708246.663443","709013.306036","709762.63823","710529.441281","711295.725237","712062.756147","712829.250957","716729.682928","717496.105701","718263.057463","719012.443144","719779.041525","720545.949076","721312.498609","722079.226223","721322.360806"
"Blocked","Male","done","19","M_done.wav","None","733.285370836","117","715963.212234","722846.127591","709013.306036","709762.63823","710529.441281","711295.725237","712062.756147","712829.250957","716729.682928","717496.105701","718263.057463","719012.443144","719779.041525","720545.949076","721312.498609","722079.226223","722088.610444"
"Blocked","Male","done","19","M_tile.wav","space","525.469690256","117","715963.212234","722846.127591","723612.225117","709762.63823","710529.441281","711295.725237","712062.756147","712829.250957","716729.682928","717496.105701","718263.057463","719012.443144","719779.041525","720545.949076","721312.498609","722079.226223","722855.875704"
"Blocked","Male","done","19","M_lash.wav","None","731.267730866","117","715963.212234","722846.127591","723612.225117","724378.679426","710529.441281","711295.725237","712062.756147","712829.250957","716729.682928","717496.105701","718263.057463","719012.443144","719779.041525","720545.949076","721312.498609","722079.226223","723621.702708"
"Blocked","Male","done","19","M_done.wav","None","731.506409691","117","715963.212234","722846.127591","723612.225117","724378.679426","725146.105454","711295.725237","712062.756147","712829.250957","716729.682928","717496.105701","718263.057463","719012.443144","719779.041525","720545.949076","721312.498609","722079.226223","724387.922975"
"Blocked","Male","done","19","M_jolt.wav","space","537.149494572","117","715963.212234","722846.127591","723612.225117","724378.679426","725146.105454","725912.433621","712062.756147","712829.250957","716729.682928","717496.105701","718263.057463","719012.443144","719779.041525","720545.949076","721312.498609","722079.226223","725156.110487"
"Blocked","Male","done","19","M_jaw.wav","None","729.272351091","117","715963.212234","722846.127591","723612.225117","724378.679426","725146.105454","725912.433621","726679.062301","712829.250957","716729.682928","717496.105701","718263.057463","719012.443144","719779.041525","720545.949076","721312.498609","722079.226223","725922.114336"
"Blocked","Male","done","19","M_cad.wav","None","728.638553672","117","715963.212234","722846.127591","723612.225117","724378.679426","725146.105454","725912.433621","726679.062301","727445.733338","716729.682928","717496.105701","718263.057463","719012.443144","719779.041525","720545.949076","721312.498609","722079.226223","726688.754146"
"Blocked","Male","done","22","M_cave.wav","None","728.422135056","117","730579.348654","722846.127591","723612.225117","724378.679426","725146.105454","725912.433621","726679.062301","727445.733338","716729.682928","717496.105701","718263.057463","719012.443144","719779.041525","720545.949076","721312.498609","722079.226223","727455.427346"
"Blocked","Male","done","22","M_cling.wav","None","721.4114081","117","730579.348654","722846.127591","723612.225117","724378.679426","725146.105454","725912.433621","726679.062301","727445.733338","731345.842536","717496.105701","718263.057463","719012.443144","719779.041525","720545.949076","721312.498609","722079.226223","730589.486939"
"Blocked","Male","done","22","M_done.wav","None","721.712848346","117","730579.348654","722846.127591","723612.225117","724378.679426","725146.105454","725912.433621","726679.062301","727445.733338","731345.842536","732111.592866","718263.057463","719012.443144","719779.041525","720545.949076","721312.498609","722079.226223","731356.045747"
"Blocked","Male","done","22","M_greet.wav","space","500.392954389","117","730579.348654","722846.127591","723612.225117","724378.679426","725146.105454","725912.433621","726679.062301","727445.733338","731345.842536","732111.592866","732879.245206","719012.443144","719779.041525","720545.949076","721312.498609","722079.226223","732120.67441"
"Blocked","Male","done","22","M_dime.wav","None","722.381272746","117","730579.348654","722846.127591","723612.225117","724378.679426","725146.105454","725912.433621","726679.062301","727445.733338","731345.842536","732111.592866","732879.245206","733645.882543","719779.041525","720545.949076","721312.498609","722079.226223","732888.809982"
"Blocked","Male","done","22","M_bluff.wav","None","722.026964519","117","730579.348654","722846.127591","723612.225117","724378.679426","725146.105454","725912.433621","726679.062301","727445.733338","731345.842536","732111.592866","732879.245206","733645.882543","734412.597481","720545.949076","721312.498609","722079.226223","733655.836872"
"Blocked","Male","done","22","M_greet.wav","None","722.027582859","117","730579.348654","722846.127591","723612.225117","724378.679426","725146.105454","725912.433621","726679.062301","727445.733338","731345.842536","732111.592866","732879.245206","733645.882543","734412.597481","735179.229871","721312.498609","722079.226223","734422.510691"
"Blocked","Male","done","22","M_done.wav","None","721.463966911","117","730579.348654","722846.127591","723612.225117","724378.679426","725146.105454","725912.433621","726679.062301","727445.733338","731345.842536","732111.592866","732879.245206","733645.882543","734412.597481","735179.229871","735945.893797","722079.226223","735189.376195"
"Blocked","Male","done","22","M_cling.wav","space","576.826140401","117","730579.348654","722846.127591","723612.225117","724378.679426","725146.105454","725912.433621","726679.062301","727445.733338","731345.842536","732111.592866","732879.245206","733645.882543","734412.597481","735179.229871","735945.893797","736712.350888","735956.108756"
"Blocked","Male","done","22","M_knife.wav","None","719.712521852","117","730579.348654","737479.061188","723612.225117","724378.679426","725146.105454","725912.433621","726679.062301","727445.733338","731345.842536","732111.592866","732879.245206","733645.882543","734412.597481","735179.229871","735945.893797","736712.350888","736722.627681"
"Blocked","Male","done","22","M_ball.wav","None","719.971296712","117","730579.348654","737479.061188","738245.412543","724378.679426","725146.105454","725912.433621","726679.062301","727445.733338","731345.842536","732111.592866","732879.245206","733645.882543","734412.597481","735179.229871","735945.893797","736712.350888","737489.003151"
"Blocked","Male","done","22","M_dime.wav","None","720.728143584","117","730579.348654","737479.061188","738245.412543","739012.29567","725146.105454","725912.433621","726679.062301","727445.733338","731345.842536","732111.592866","732879.245206","733645.882543","734412.597481","735179.229871","735945.893797","736712.350888","738254.743278"
"Blocked","Male","done","22","M_done.wav","None","718.562102251","117","730579.348654","737479.061188","738245.412543","739012.29567","739779.137986","725912.433621","726679.062301","727445.733338","731345.842536","732111.592866","732879.245206","733645.882543","734412.597481","735179.229871","735945.893797","736712.350888","739023.00932"
"Blocked","Male","done","22","M_park.wav","space","607.554803384","117","730579.348654","737479.061188","738245.412543","739012.29567","739779.137986","740528.42535","726679.062301","727445.733338","731345.842536","732111.592866","732879.245206","733645.882543","734412.597481","735179.229871","735945.893797","736712.350888","739789.26947"
"Blocked","Male","done","22","M_done.wav","None","735.401945058","117","730579.348654","737479.061188","738245.412543","739012.29567","739779.137986","740528.42535","741295.346196","727445.733338","731345.842536","732111.592866","732879.245206","733645.882543","734412.597481","735179.229871","735945.893797","736712.350888","740537.999711"
"Blocked","Male","done","22","M_knife.wav","space","611.83309053","117","730579.348654","737479.061188","738245.412543","739012.29567","739779.137986","740528.42535","741295.346196","742061.904385","731345.842536","732111.592866","732879.245206","733645.882543","734412.597481","735179.229871","735945.893797","736712.350888","741304.940652"
"Blocked","Male","tile","17","M_cad.wav","None","733.597322833","117","745195.697165","737479.061188","738245.412543","739012.29567","739779.137986","740528.42535","741295.346196","742061.904385","731345.842536","732111.592866","732879.245206","733645.882543","734412.597481","735179.229871","735945.893797","736712.350888","742071.667957"
"Blocked","Male","tile","17","M_romp.wav","None","721.973478197","117","745195.697165","737479.061188","738245.412543","739012.29567","739779.137986","740528.42535","741295.346196","742061.904385","745962.20465","732111.592866","732879.245206","733645.882543","734412.597481","735179.229871","735945.893797","736712.350888","745205.518242"
"Blocked","Male","tile","17","M_cave.wav","None","721.966058147","117","745195.697165","737479.061188","738245.412543","739012.29567","739779.137986","740528.42535","741295.346196","742061.904385","745962.20465","746728.414097","732879.245206","733645.882543","734412.597481","735179.229871","735945.893797","736712.350888","745972.214012"
"Blocked","Male","tile","17","M_tile.wav","None","722.815346671","117","745195.697165","737479.061188","738245.412543","739012.29567","739779.137986","740528.42535","741295.346196","742061.904385","745962.20465","746728.414097","747495.474686","733645.882543","734412.597481","735179.229871","735945.893797","736712.350888","746738.166848"
"Blocked","Male","tile","17","M_jolt.wav","space","403.424732067","117","745195.697165","737479.061188","738245.412543","739012.29567","739779.137986","740528.42535","741295.346196","742061.904385","745962.20465","746728.414097","747495.474686","748262.117897","734412.597481","735179.229871","735945.893797","736712.350888","747505.153855"
"Blocked","Male","tile","17","M_tile.wav","None","721.059264077","117","745195.697165","737479.061188","738245.412543","739012.29567","739779.137986","740528.42535","741295.346196","742061.904385","745962.20465","746728.414097","747495.474686","748262.117897","749028.207077","735179.229871","735945.893797","736712.350888","748272.517122"
"Blocked","Male","tile","17","M_depth.wav","space","518.927355064","117","745195.697165","737479.061188","738245.412543","739012.29567","739779.137986","740528.42535","741295.346196","742061.904385","745962.20465","746728.414097","747495.474686","748262.117897","749028.207077","749795.416995","735945.893797","736712.350888","749037.68343"
"Blocked","Male","tile","17","M_cad.wav","None","719.43272349","117","745195.697165","737479.061188","738245.412543","739012.29567","739779.137986","740528.42535","741295.346196","742061.904385","745962.20465","746728.414097","747495.474686","748262.117897","749028.207077","749795.416995","750562.163469","736712.350888","749805.698735"
"Blocked","Male","tile","17","M_cave.wav","None","719.496721562","117","745195.697165","737479.061188","738245.412543","739012.29567","739779.137986","740528.42535","741295.346196","742061.904385","745962.20465","746728.414097","747495.474686","748262.117897","749028.207077","749795.416995","750562.163469","751328.740518","750572.129547"
"Blocked","Male","tile","17","M_cad.wav","None","719.487755661","117","745195.697165","752095.236873","738245.412543","739012.29567","739779.137986","740528.42535","741295.346196","742061.904385","745962.20465","746728.414097","747495.474686","748262.117897","749028.207077","749795.416995","750562.163469","751328.740518","751339.094603"
"Blocked","Male","tile","17","M_tile.wav","None","719.486828137","117","745195.697165","752095.236873","752861.940063","739012.29567","739779.137986","740528.42535","741295.346196","742061.904385","745962.20465","746728.414097","747495.474686","748262.117897","749028.207077","749795.416995","750562.163469","751328.740518","752105.409476"
"Blocked","Male","tile","17","M_priest.wav","space","428.315347919","117","745195.697165","752095.236873","752861.940063","753628.604607","739779.137986","740528.42535","741295.346196","742061.904385","745962.20465","746728.414097","747495.474686","748262.117897","749028.207077","749795.416995","750562.163469","751328.740518","752872.119777"
"Blocked","Male","tile","17","M_cave.wav","None","718.027548239","117","745195.697165","752095.236873","752861.940063","753628.604607","754394.638754","740528.42535","741295.346196","742061.904385","745962.20465","746728.414097","747495.474686","748262.117897","749028.207077","749795.416995","750562.163469","751328.740518","753639.008469"
"Blocked","Male","tile","17","M_depth.wav","None","720.302417205","117","745195.697165","752095.236873","752861.940063","753628.604607","754394.638754","755161.87959","741295.346196","742061.904385","745962.20465","746728.414097","747495.474686","748262.117897","749028.207077","749795.416995","750562.163469","751328.740518","754403.718752"
"Blocked","Male","tile","17","M_tile.wav","None","719.277520402","117","745195.697165","752095.236873","752861.940063","753628.604607","754394.638754","755161.87959","755928.63843","742061.904385","745962.20465","746728.414097","747495.474686","748262.117897","749028.207077","749795.416995","750562.163469","751328.740518","755171.53217"
"Blocked","Male","tile","17","M_jolt.wav","space","433.443232774","117","745195.697165","752095.236873","752861.940063","753628.604607","754394.638754","755161.87959","755928.63843","756677.840464","745962.20465","746728.414097","747495.474686","748262.117897","749028.207077","749795.416995","750562.163469","751328.740518","755938.898219"
"Blocked","Male","cave","11","M_park.wav","None","734.955195163","117","759811.693222","752095.236873","752861.940063","753628.604607","754394.638754","755161.87959","755928.63843","756677.840464","745962.20465","746728.414097","747495.474686","748262.117897","749028.207077","749795.416995","750562.163469","751328.740518","756687.428118"
"Blocked","Male","cave","11","M_park.wav","None","720.957238154","117","759811.693222","752095.236873","752861.940063","753628.604607","754394.638754","755161.87959","755928.63843","756677.840464","760578.258213","746728.414097","747495.474686","748262.117897","749028.207077","749795.416995","750562.163469","751328.740518","759821.764109"
"Blocked","Male","cave","11","M_ball.wav","None","720.956928984","117","759811.693222","752095.236873","752861.940063","753628.604607","754394.638754","755161.87959","755928.63843","756677.840464","760578.258213","761345.71454","747495.474686","748262.117897","749028.207077","749795.416995","750562.163469","751328.740518","760588.69021"
"Blocked","Male","cave","11","M_cave.wav","None","720.435669253","117","759811.693222","752095.236873","752861.940063","753628.604607","754394.638754","755161.87959","755928.63843","756677.840464","760578.258213","761345.71454","762111.979946","748262.117897","749028.207077","749795.416995","750562.163469","751328.740518","761355.722665"
"Blocked","Male","cave","11","M_ball.wav","space","362.438444354","117","759811.693222","752095.236873","752861.940063","753628.604607","754394.638754","755161.87959","755928.63843","756677.840464","760578.258213","761345.71454","762111.979946","762878.317079","749028.207077","749795.416995","750562.163469","751328.740518","762121.73146"
"Blocked","Male","cave","11","M_cave.wav","None","720.238419133","117","759811.693222","752095.236873","752861.940063","753628.604607","754394.638754","755161.87959","755928.63843","756677.840464","760578.258213","761345.71454","762111.979946","762878.317079","763645.039747","749795.416995","750562.163469","751328.740518","762888.587689"
"Blocked","Male","cave","11","M_reek.wav","space","444.762545478","117","759811.693222","752095.236873","752861.940063","753628.604607","754394.638754","755161.87959","755928.63843","756677.840464","760578.258213","761345.71454","762111.979946","762878.317079","763645.039747","764411.595463","750562.163469","751328.740518","763655.333854"
"Blocked","Male","cave","11","M_greet.wav","None","720.430104207","117","759811.693222","752095.236873","752861.940063","753628.604607","754394.638754","755161.87959","755928.63843","756677.840464","760578.258213","761345.71454","762111.979946","762878.317079","763645.039747","764411.595463","765178.317821","751328.740518","764421.07058"
"Blocked","Male","cave","11","M_cave.wav","None","720.045497394","117","759811.693222","752095.236873","752861.940063","753628.604607","754394.638754","755161.87959","755928.63843","756677.840464","760578.258213","761345.71454","762111.979946","762878.317079","763645.039747","764411.595463","765178.317821","765944.749251","765188.124368"
"Blocked","Male","cave","11","M_reek.wav","space","465.539352328","117","759811.693222","766711.543028","752861.940063","753628.604607","754394.638754","755161.87959","755928.63843","756677.840464","760578.258213","761345.71454","762111.979946","762878.317079","763645.039747","764411.595463","765178.317821","765944.749251","765954.527354"
"Blocked","Male","cave","11","M_lash.wav","None","718.132047521","117","759811.693222","766711.543028","767477.80967","753628.604607","754394.638754","755161.87959","755928.63843","756677.840464","760578.258213","761345.71454","762111.979946","762878.317079","763645.039747","764411.595463","765178.317821","765944.749251","766721.964512"
"Blocked","Male","cave","11","M_priest.wav","None","719.471678836","117","759811.693222","766711.543028","767477.80967","768244.874279","754394.638754","755161.87959","755928.63843","756677.840464","760578.258213","761345.71454","762111.979946","762878.317079","763645.039747","764411.595463","765178.317821","765944.749251","767487.376301"
"Blocked","Male","cave","11","M_knife.wav","None","718.894150268","117","759811.693222","766711.543028","767477.80967","768244.874279","769011.051263","755161.87959","755928.63843","756677.840464","760578.258213","761345.71454","762111.979946","762878.317079","763645.039747","764411.595463","765178.317821","765944.749251","768254.780997"
"Blocked","Male","cave","11","M_done.wav","None","719.744984657","117","759811.693222","766711.543028","767477.80967","768244.874279","769011.051263","769778.182034","755928.63843","756677.840464","760578.258213","761345.71454","762111.979946","762878.317079","763645.039747","764411.595463","765178.317821","765944.749251","769020.568427"
"Blocked","Male","cave","11","M_cave.wav","None","718.733072979","117","759811.693222","766711.543028","767477.80967","768244.874279","769011.051263","769778.182034","770544.357781","756677.840464","760578.258213","761345.71454","762111.979946","762878.317079","763645.039747","764411.595463","765178.317821","765944.749251","769788.339179"
"Blocked","Male","cave","11","M_romp.wav","space","481.904310815","117","759811.693222","766711.543028","767477.80967","768244.874279","769011.051263","769778.182034","770544.357781","771294.594605","760578.258213","761345.71454","762111.979946","762878.317079","763645.039747","764411.595463","765178.317821","765944.749251","770554.010979"
"Blocked","Male","done","24","M_lash.wav","None","734.83029069","117","774428.031221","766711.543028","767477.80967","768244.874279","769011.051263","769778.182034","770544.357781","771294.594605","760578.258213","761345.71454","762111.979946","762878.317079","763645.039747","764411.595463","765178.317821","765944.749251","771304.447527"
"Blocked","Male","done","24","M_cling.wav","None","721.295160372","117","774428.031221","766711.543028","767477.80967","768244.874279","769011.051263","769778.182034","770544.357781","771294.594605","775194.718643","761345.71454","762111.979946","762878.317079","763645.039747","764411.595463","765178.317821","765944.749251","774438.279571"
"Blocked","Male","done","24","M_done.wav","None","721.778392268","117","774428.031221","766711.543028","767477.80967","768244.874279","769011.051263","769778.182034","770544.357781","771294.594605","775194.718643","775961.256118","762111.979946","762878.317079","763645.039747","764411.595463","765178.317821","765944.749251","775204.723677"
"Blocked","Male","done","24","M_depth.wav","space","488.460249471","117","774428.031221","766711.543028","767477.80967","768244.874279","769011.051263","769778.182034","770544.357781","771294.594605","775194.718643","775961.256118","776728.217774","762878.317079","763645.039747","764411.595463","765178.317821","765944.749251","775971.286194"
"Blocked","Male","done","24","M_park.wav","None","719.113042243","117","774428.031221","766711.543028","767477.80967","768244.874279","769011.051263","769778.182034","770544.357781","771294.594605","775194.718643","775961.256118","776728.217774","777494.612722","763645.039747","764411.595463","765178.317821","765944.749251","776738.645442"
"Blocked","Male","done","24","M_tile.wav","None","719.84206386","117","774428.031221","766711.543028","767477.80967","768244.874279","769011.051263","769778.182034","770544.357781","771294.594605","775194.718643","775961.256118","776728.217774","777494.612722","778261.170911","764411.595463","765178.317821","765944.749251","777504.748843"
"Blocked","Male","done","24","M_dime.wav","None","720.471842083","117","774428.031221","766711.543028","767477.80967","768244.874279","769011.051263","769778.182034","770544.357781","771294.594605","775194.718643","775961.256118","776728.217774","777494.612722","778261.170911","779027.962524","765178.317821","765944.749251","778271.023524"
"Blocked","Male","done","24","M_done.wav","None","720.566138771","117","774428.031221","766711.543028","767477.80967","768244.874279","769011.051263","769778.182034","770544.357781","771294.594605","775194.718643","775961.256118","776728.217774","777494.612722","778261.170911","779027.962524","779794.992815","765944.749251","779038.233752"
"Blocked","Male","done","24","M_knife.wav","space","414.664897398","117","774428.031221","766711.543028","767477.80967","768244.874279","769011.051263","769778.182034","770544.357781","771294.594605","775194.718643","775961.256118","776728.217774","777494.612722","778261.170911","779027.962524","779794.992815","780561.294084","779804.935087"
"Blocked","Male","done","24","M_done.wav","None","719.797852624","117","774428.031221","781327.445407","767477.80967","768244.874279","769011.051263","769778.182034","770544.357781","771294.594605","775194.718643","775961.256118","776728.217774","777494.612722","778261.170911","779027.962524","779794.992815","780561.294084","780571.41011"
"Blocked","Male","done","24","M_ball.wav","space","489.995275886","117","774428.031221","781327.445407","782094.853503","768244.874279","769011.051263","769778.182034","770544.357781","771294.594605","775194.718643","775961.256118","776728.217774","777494.612722","778261.170911","779027.962524","779794.992815","780561.294084","781337.608117"
"Blocked","Male","done","24","M_cad.wav","None","724.052333739","117","774428.031221","781327.445407","782094.853503","782861.167139","769011.051263","769778.182034","770544.357781","771294.594605","775194.718643","775961.256118","776728.217774","777494.612722","778261.170911","779027.962524","779794.992815","780561.294084","782099.255767"
"Blocked","Male","done","24","M_done.wav","None","718.106695625","117","774428.031221","781327.445407","782094.853503","782861.167139","783627.723783","769778.182034","770544.357781","771294.594605","775194.718643","775961.256118","776728.217774","777494.612722","778261.170911","779027.962524","779794.992815","780561.294084","782871.733315"
"Blocked","Male","done","24","M_priest.wav","space","445.804137431","117","774428.031221","781327.445407","782094.853503","782861.167139","783627.723783","784377.01764","770544.357781","771294.594605","775194.718643","775961.256118","776728.217774","777494.612722","778261.170911","779027.962524","779794.992815","780561.294084","783637.717686"
"Blocked","Male","done","24","M_reek.wav","None","734.867391031","117","774428.031221","781327.445407","782094.853503","782861.167139","783627.723783","784377.01764","785143.772152","771294.594605","775194.718643","775961.256118","776728.217774","777494.612722","778261.170911","779027.962524","779794.992815","780561.294084","784386.466168"
"Blocked","Male","done","24","M_depth.wav","None","734.073134648","117","774428.031221","781327.445407","782094.853503","782861.167139","783627.723783","784377.01764","785143.772152","785910.437005","775194.718643","775961.256118","776728.217774","777494.612722","778261.170911","779027.962524","779794.992815","780561.294084","785153.633731"
"Blocked","Male","tile","14","M_cad.wav","None","734.797827899","117","789044.182173","781327.445407","782094.853503","782861.167139","783627.723783","784377.01764","785143.772152","785910.437005","775194.718643","775961.256118","776728.217774","777494.612722","778261.170911","779027.962524","779794.992815","780561.294084","785920.097314"
"Blocked","Male","tile","14","M_bluff.wav","None","721.809618393","117","789044.182173","781327.445407","782094.853503","782861.167139","783627.723783","784377.01764","785143.772152","785910.437005","789810.848262","775961.256118","776728.217774","777494.612722","778261.170911","779027.962524","779794.992815","780561.294084","789054.475661"
"Blocked","Male","tile","14","M_tile.wav","None","722.31665632","117","789044.182173","781327.445407","782094.853503","782861.167139","783627.723783","784377.01764","785143.772152","785910.437005","789810.848262","790577.468595","776728.217774","777494.612722","778261.170911","779027.962524","779794.992815","780561.294084","789820.904927"
"Blocked","Male","tile","14","M_gnash.wav","space","559.494718153","117","789044.182173","781327.445407","782094.853503","782861.167139","783627.723783","784377.01764","785143.772152","785910.437005","789810.848262","790577.468595","791344.347393","777494.612722","778261.170911","779027.962524","779794.992815","780561.294084","790587.768885"
"Blocked","Male","tile","14","M_bluff.wav","None","721.114914588","117","789044.182173","781327.445407","782094.853503","782861.167139","783627.723783","784377.01764","785143.772152","785910.437005","789810.848262","790577.468595","791344.347393","792111.137768","778261.170911","779027.962524","779794.992815","780561.294084","791354.209899"
"Blocked","Male","tile","14","M_jaw.wav","None","721.693370666","117","789044.182173","781327.445407","782094.853503","782861.167139","783627.723783","784377.01764","785143.772152","785910.437005","789810.848262","790577.468595","791344.347393","792111.137768","792877.429145","779027.962524","779794.992815","780561.294084","792120.753866"
"Blocked","Male","tile","14","M_romp.wav","None","721.115842098","117","789044.182173","781327.445407","782094.853503","782861.167139","783627.723783","784377.01764","785143.772152","785910.437005","789810.848262","790577.468595","791344.347393","792111.137768","792877.429145","793644.149957","779794.992815","780561.294084","792887.83177"
