Condition,Talker,Target,Trial,current_stimulus,response_response,response_time_response,subject_nr,time_Audio1,time_Audio10,time_Audio11,time_Audio12,time_Audio13,time_Audio14,time_Audio15,time_Audio16,time_Audio2,time_Audio3,time_Audio4,time_Audio5,time_Audio6,time_Audio7,time_Audio8,time_Audio9,time_response
Mixed,Female,cave,20,M_gnash.wav,NA,NA,4391,495735.8951,NA,NA,NA,NA,NA,NA,NA,NA,NA,NA,NA,NA,NA,NA,NA,NA
Mixed,Female,cave,20,F_cave.wav,None,719.9716922,4391,495735.8951,NA,NA,NA,NA,NA,NA,NA,496502.8557,NA,NA,NA,NA,NA,NA,NA,495750.6331
Mixed,Female,cave,20,M_reek.wav,space,650.1453272,4391,495735.8951,NA,NA,NA,NA,NA,NA,NA,496502.8557,497269.2282,NA,NA,NA,NA,NA,NA,496513.154
Mixed,Female,cave,20,F_reek.wav,None,728.3725725,4391,495735.8951,NA,NA,NA,NA,NA,NA,NA,496502.8557,497269.2282,498035.8735,NA,NA,NA,NA,NA,497278.7746
Mixed,Female,cave,20,M_reek.wav,None,729.8324923,4391,495735.8951,NA,NA,NA,NA,NA,NA,NA,496502.8557,497269.2282,498035.8735,498802.5209,NA,NA,NA,NA,498045.6279
Mixed,Female,cave,20,M_greet.wav,None,727.8172956,4391,495735.8951,NA,NA,NA,NA,NA,NA,NA,496502.8557,497269.2282,498035.8735,498802.5209,499569.2811,NA,NA,NA,498812.2401
Mixed,Female,cave,20,F_cave.wav,None,729.4834349,4391,495735.8951,NA,NA,NA,NA,NA,NA,NA,496502.8557,497269.2282,498035.8735,498802.5209,499569.2811,500335.8812,NA,NA,499578.8572
Mixed,Female,cave,20,F_dime.wav,space,529.7600222,4391,495735.8951,NA,NA,NA,NA,NA,NA,NA,496502.8557,497269.2282,498035.8735,498802.5209,499569.2811,500335.8812,501102.6585,NA,500345.4922
Mixed,Female,cave,20,M_priest.wav,None,729.0546102,4391,495735.8951,NA,NA,NA,NA,NA,NA,NA,496502.8557,497269.2282,498035.8735,498802.5209,499569.2811,500335.8812,501102.6585,501869.4438,501112.1313
Mixed,Female,cave,20,F_cave.wav,None,730.7754736,4391,495735.8951,502636.0451,NA,NA,NA,NA,NA,NA,496502.8557,497269.2282,498035.8735,498802.5209,499569.2811,500335.8812,501102.6585,501869.4438,501878.7586
Mixed,Female,cave,20,M_knife.wav,space,509.8056132,4391,495735.8951,502636.0451,503402.7865,NA,NA,NA,NA,NA,496502.8557,497269.2282,498035.8735,498802.5209,499569.2811,500335.8812,501102.6585,501869.4438,502645.4162
Mixed,Female,cave,20,M_lash.wav,None,729.8179613,4391,495735.8951,502636.0451,503402.7865,504169.7045,NA,NA,NA,NA,496502.8557,497269.2282,498035.8735,498802.5209,499569.2811,500335.8812,501102.6585,501869.4438,503412.6594
Mixed,Female,cave,20,M_greet.wav,None,731.6479632,4391,495735.8951,502636.0451,503402.7865,504169.7045,504936.1092,NA,NA,NA,496502.8557,497269.2282,498035.8735,498802.5209,499569.2811,500335.8812,501102.6585,501869.4438,504178.9797
Mixed,Female,cave,20,F_cad.wav,None,736.1575775,4391,495735.8951,502636.0451,503402.7865,504169.7045,504936.1092,505720.0301,NA,NA,496502.8557,497269.2282,498035.8735,498802.5209,499569.2811,500335.8812,501102.6585,501869.4438,504944.907
Mixed,Female,cave,20,F_cave.wav,None,719.2142154,4391,495735.8951,502636.0451,503402.7865,504169.7045,504936.1092,505720.0301,506469.446,NA,496502.8557,497269.2282,498035.8735,498802.5209,499569.2811,500335.8812,501102.6585,501869.4438,505730.1451
Mixed,Female,cave,20,F_park.wav,space,636.1397384,4391,495735.8951,502636.0451,503402.7865,504169.7045,504936.1092,505720.0301,506469.446,507253.3268,496502.8557,497269.2282,498035.8735,498802.5209,499569.2811,500335.8812,501102.6585,501869.4438,506479.0586
Mixed,Female,cave,22,M_bluff.wav,None,719.2253456,4391,510386.2225,502636.0451,503402.7865,504169.7045,504936.1092,505720.0301,506469.446,507253.3268,496502.8557,497269.2282,498035.8735,498802.5209,499569.2811,500335.8812,501102.6585,501869.4438,507263.0311
Mixed,Female,cave,22,F_greet.wav,None,725.4984891,4391,510386.2225,502636.0451,503402.7865,504169.7045,504936.1092,505720.0301,506469.446,507253.3268,511153.01,497269.2282,498035.8735,498802.5209,499569.2811,500335.8812,501102.6585,501869.4438,510395.6369
Mixed,Female,cave,22,M_jolt.wav,None,732.5931084,4391,510386.2225,502636.0451,503402.7865,504169.7045,504936.1092,505720.0301,506469.446,507253.3268,511153.01,511919.5501,498035.8735,498802.5209,499569.2811,500335.8812,501102.6585,501869.4438,511157.0051
Mixed,Female,cave,22,F_depth.wav,None,729.2602113,4391,510386.2225,502636.0451,503402.7865,504169.7045,504936.1092,505720.0301,506469.446,507253.3268,511153.01,511919.5501,512686.8118,498802.5209,499569.2811,500335.8812,501102.6585,501869.4438,511929.0077
Mixed,Female,cave,22,F_cave.wav,None,730.596771,4391,510386.2225,502636.0451,503402.7865,504169.7045,504936.1092,505720.0301,506469.446,507253.3268,511153.01,511919.5501,512686.8118,513452.9129,499569.2811,500335.8812,501102.6585,501869.4438,512695.9186
Mixed,Female,cave,22,F_depth.wav,space,588.9749113,4391,510386.2225,502636.0451,503402.7865,504169.7045,504936.1092,505720.0301,506469.446,507253.3268,511153.01,511919.5501,512686.8118,513452.9129,514219.5316,500335.8812,501102.6585,501869.4438,513462.1226
Mixed,Female,cave,22,F_cave.wav,None,727.0857897,4391,510386.2225,502636.0451,503402.7865,504169.7045,504936.1092,505720.0301,506469.446,507253.3268,511153.01,511919.5501,512686.8118,513452.9129,514219.5316,514986.1623,501102.6585,501869.4438,514228.9484
Mixed,Female,cave,22,M_reek.wav,space,535.5251925,4391,510386.2225,502636.0451,503402.7865,504169.7045,504936.1092,505720.0301,506469.446,507253.3268,511153.01,511919.5501,512686.8118,513452.9129,514219.5316,514986.1623,515753.3523,501869.4438,514995.5111
Mixed,Female,cave,22,M_greet.wav,None,722.4277714,4391,510386.2225,502636.0451,503402.7865,504169.7045,504936.1092,505720.0301,506469.446,507253.3268,511153.01,511919.5501,512686.8118,513452.9129,514219.5316,514986.1623,515753.3523,516519.7681,515762.9188
Mixed,Female,cave,22,M_bluff.wav,None,720.216867,4391,510386.2225,517270.0791,503402.7865,504169.7045,504936.1092,505720.0301,506469.446,507253.3268,511153.01,511919.5501,512686.8118,513452.9129,514219.5316,514986.1623,515753.3523,516519.7681,516529.8855
Mixed,Female,cave,22,F_cave.wav,None,735.4477136,4391,510386.2225,517270.0791,518035.8079,504169.7045,504936.1092,505720.0301,506469.446,507253.3268,511153.01,511919.5501,512686.8118,513452.9129,514219.5316,514986.1623,515753.3523,516519.7681,517279.3877
Mixed,Female,cave,22,M_gnash.wav,space,606.110889,4391,510386.2225,517270.0791,518035.8079,518802.4553,504936.1092,505720.0301,506469.446,507253.3268,511153.01,511919.5501,512686.8118,513452.9129,514219.5316,514986.1623,515753.3523,516519.7681,518044.8831
Mixed,Female,cave,22,F_cave.wav,None,732.4196617,4391,510386.2225,517270.0791,518035.8079,518802.4553,519569.4057,505720.0301,506469.446,507253.3268,511153.01,511919.5501,512686.8118,513452.9129,514219.5316,514986.1623,515753.3523,516519.7681,518811.6471
Mixed,Female,cave,22,M_lash.wav,space,495.9487366,4391,510386.2225,517270.0791,518035.8079,518802.4553,519569.4057,520336.0423,506469.446,507253.3268,511153.01,511919.5501,512686.8118,513452.9129,514219.5316,514986.1623,515753.3523,516519.7681,519579.013
Mixed,Female,cave,22,M_jaw.wav,None,727.3229263,4391,510386.2225,517270.0791,518035.8079,518802.4553,519569.4057,520336.0423,521102.6415,507253.3268,511153.01,511919.5501,512686.8118,513452.9129,514219.5316,514986.1623,515753.3523,516519.7681,520345.9464
Mixed,Female,cave,22,F_knife.wav,None,730.1073484,4391,510386.2225,517270.0791,518035.8079,518802.4553,519569.4057,520336.0423,521102.6415,521869.1105,511153.01,511919.5501,512686.8118,513452.9129,514219.5316,514986.1623,515753.3523,516519.7681,521111.8484
Mixed,Male,ball,3,M_knife.wav,None,732.4122419,4391,525003.0052,517270.0791,518035.8079,518802.4553,519569.4057,520336.0423,521102.6415,521869.1105,511153.01,511919.5501,512686.8118,513452.9129,514219.5316,514986.1623,515753.3523,516519.7681,521877.9523
Mixed,Male,ball,3,F_cling.wav,None,721.1017236,4391,525003.0052,517270.0791,518035.8079,518802.4553,519569.4057,520336.0423,521102.6415,521869.1105,525769.1378,511919.5501,512686.8118,513452.9129,514219.5316,514986.1623,515753.3523,516519.7681,525013.1826
Mixed,Male,ball,3,F_bluff.wav,None,726.0398534,4391,525003.0052,517270.0791,518035.8079,518802.4553,519569.4057,520336.0423,521102.6415,521869.1105,525769.1378,526535.7781,512686.8118,513452.9129,514219.5316,514986.1623,515753.3523,516519.7681,525777.9882
Mixed,Male,ball,3,M_ball.wav,None,728.0463935,4391,525003.0052,517270.0791,518035.8079,518802.4553,519569.4057,520336.0423,521102.6415,521869.1105,525769.1378,526535.7781,527302.4172,513452.9129,514219.5316,514986.1623,515753.3523,516519.7681,526544.673
Mixed,Male,ball,3,F_jolt.wav,space,467.1358694,4391,525003.0052,517270.0791,518035.8079,518802.4553,519569.4057,520336.0423,521102.6415,521869.1105,525769.1378,526535.7781,527302.4172,528069.0698,514219.5316,514986.1623,515753.3523,516519.7681,527311.6986
Mixed,Male,ball,3,M_reek.wav,None,731.5326412,4391,525003.0052,517270.0791,518035.8079,518802.4553,519569.4057,520336.0423,521102.6415,521869.1105,525769.1378,526535.7781,527302.4172,528069.0698,528835.9157,514986.1623,515753.3523,516519.7681,528077.9128
Mixed,Male,ball,3,F_reek.wav,None,728.9989591,4391,525003.0052,517270.0791,518035.8079,518802.4553,519569.4057,520336.0423,521102.6415,521869.1105,525769.1378,526535.7781,527302.4172,528069.0698,528835.9157,529602.4197,515753.3523,516519.7681,528845.3165
Mixed,Male,ball,3,M_ball.wav,None,726.8062956,4391,525003.0052,517270.0791,518035.8079,518802.4553,519569.4057,520336.0423,521102.6415,521869.1105,525769.1378,526535.7781,527302.4172,528069.0698,528835.9157,529602.4197,530369.3039,516519.7681,529612.2771
Mixed,Male,ball,3,F_greet.wav,space,415.9690924,4391,525003.0052,517270.0791,518035.8079,518802.4553,519569.4057,520336.0423,521102.6415,521869.1105,525769.1378,526535.7781,527302.4172,528069.0698,528835.9157,529602.4197,530369.3039,531135.9213,530378.8472
Mixed,Male,ball,3,M_knife.wav,None,723.1209399,4391,525003.0052,531902.9379,518035.8079,518802.4553,519569.4057,520336.0423,521102.6415,521869.1105,525769.1378,526535.7781,527302.4172,528069.0698,528835.9157,529602.4197,530369.3039,531135.9213,531145.3601
Mixed,Male,ball,3,M_ball.wav,None,720.7662696,4391,525003.0052,531902.9379,532669.7763,518802.4553,519569.4057,520336.0423,521102.6415,521869.1105,525769.1378,526535.7781,527302.4172,528069.0698,528835.9157,529602.4197,530369.3039,531135.9213,531912.637
Mixed,Male,ball,3,F_jaw.wav,space,539.2263164,4391,525003.0052,531902.9379,532669.7763,533435.9897,519569.4057,520336.0423,521102.6415,521869.1105,525769.1378,526535.7781,527302.4172,528069.0698,528835.9157,529602.4197,530369.3039,531135.9213,532679.5295
Mixed,Male,ball,3,F_knife.wav,None,720.8667514,4391,525003.0052,531902.9379,532669.7763,533435.9897,534202.8634,520336.0423,521102.6415,521869.1105,525769.1378,526535.7781,527302.4172,528069.0698,528835.9157,529602.4197,530369.3039,531135.9213,533445.7274
Mixed,Male,ball,3,M_cad.wav,None,718.9563643,4391,525003.0052,531902.9379,532669.7763,533435.9897,534202.8634,534969.6184,521102.6415,521869.1105,525769.1378,526535.7781,527302.4172,528069.0698,528835.9157,529602.4197,530369.3039,531135.9213,534212.6234
Mixed,Male,ball,3,M_ball.wav,None,720.6024071,4391,525003.0052,531902.9379,532669.7763,533435.9897,534202.8634,534969.6184,535736.3332,521869.1105,525769.1378,526535.7781,527302.4172,528069.0698,528835.9157,529602.4197,530369.3039,531135.9213,534979.6662
Mixed,Male,ball,3,F_priest.wav,space,440.5085542,4391,525003.0052,531902.9379,532669.7763,533435.9897,534202.8634,534969.6184,535736.3332,536502.8149,525769.1378,526535.7781,527302.4172,528069.0698,528835.9157,529602.4197,530369.3039,531135.9213,535746.2193
Mixed,Female,tile,32,M_bluff.wav,None,721.18922,4391,539619.5334,531902.9379,532669.7763,533435.9897,534202.8634,534969.6184,535736.3332,536502.8149,525769.1378,526535.7781,527302.4172,528069.0698,528835.9157,529602.4197,530369.3039,531135.9213,536512.6039
Mixed,Female,tile,32,M_romp.wav,None,720.4858484,4391,539619.5334,531902.9379,532669.7763,533435.9897,534202.8634,534969.6184,535736.3332,536502.8149,540385.9406,526535.7781,527302.4172,528069.0698,528835.9157,529602.4197,530369.3039,531135.9213,539629.584
Mixed,Female,tile,32,F_bluff.wav,None,723.1274326,4391,539619.5334,531902.9379,532669.7763,533435.9897,534202.8634,534969.6184,535736.3332,536502.8149,540385.9406,541152.8124,527302.4172,528069.0698,528835.9157,529602.4197,530369.3039,531135.9213,540395.9433
Mixed,Female,tile,32,M_cad.wav,None,721.8350847,4391,539619.5334,531902.9379,532669.7763,533435.9897,534202.8634,534969.6184,535736.3332,536502.8149,540385.9406,541152.8124,541919.4036,528069.0698,528835.9157,529602.4197,530369.3039,531135.9213,541162.54
Mixed,Female,tile,32,F_tile.wav,None,725.8339431,4391,539619.5334,531902.9379,532669.7763,533435.9897,534202.8634,534969.6184,535736.3332,536502.8149,540385.9406,541152.8124,541919.4036,542686.1567,528835.9157,529602.4197,530369.3039,531135.9213,541923.4058
Mixed,Female,tile,32,M_jolt.wav,space,474.3822929,4391,539619.5334,531902.9379,532669.7763,533435.9897,534202.8634,534969.6184,535736.3332,536502.8149,540385.9406,541152.8124,541919.4036,542686.1567,543452.7392,529602.4197,530369.3039,531135.9213,542696.254
Mixed,Female,tile,32,F_greet.wav,None,720.2691175,4391,539619.5334,531902.9379,532669.7763,533435.9897,534202.8634,534969.6184,535736.3332,536502.8149,540385.9406,541152.8124,541919.4036,542686.1567,543452.7392,544202.476,530369.3039,531135.9213,543462.2998
Mixed,Female,tile,32,F_depth.wav,None,735.8082104,4391,539619.5334,531902.9379,532669.7763,533435.9897,534202.8634,534969.6184,535736.3332,536502.8149,540385.9406,541152.8124,541919.4036,542686.1567,543452.7392,544202.476,544968.7725,531135.9213,544211.929
Mixed,Female,tile,32,F_tile.wav,None,734.816689,4391,539619.5334,531902.9379,532669.7763,533435.9897,534202.8634,534969.6184,535736.3332,536502.8149,540385.9406,541152.8124,541919.4036,542686.1567,543452.7392,544202.476,544968.7725,545735.559,544978.0514
Mixed,Female,tile,32,F_romp.wav,space,505.4898509,4391,539619.5334,546502.1622,532669.7763,533435.9897,534202.8634,534969.6184,535736.3332,536502.8149,540385.9406,541152.8124,541919.4036,542686.1567,543452.7392,544202.476,544968.7725,545735.559,545745.0862
Mixed,Female,tile,32,F_tile.wav,None,734.0703425,4391,539619.5334,546502.1622,547268.9908,533435.9897,534202.8634,534969.6184,535736.3332,536502.8149,540385.9406,541152.8124,541919.4036,542686.1567,543452.7392,544202.476,544968.7725,545735.559,546512.0406
Mixed,Female,tile,32,M_jolt.wav,space,499.9417206,4391,539619.5334,546502.1622,547268.9908,548035.427,534202.8634,534969.6184,535736.3332,536502.8149,540385.9406,541152.8124,541919.4036,542686.1567,543452.7392,544202.476,544968.7725,545735.559,547278.625
Mixed,Female,tile,32,M_dime.wav,None,731.3233302,4391,539619.5334,546502.1622,547268.9908,548035.427,548802.3215,534969.6184,535736.3332,536502.8149,540385.9406,541152.8124,541919.4036,542686.1567,543452.7392,544202.476,544968.7725,545735.559,548044.5365
Mixed,Female,tile,32,F_tile.wav,None,732.8546699,4391,539619.5334,546502.1622,547268.9908,548035.427,548802.3215,549568.9485,535736.3332,536502.8149,540385.9406,541152.8124,541919.4036,542686.1567,543452.7392,544202.476,544968.7725,545735.559,548811.8286
Mixed,Female,tile,32,M_cad.wav,space,463.8703722,4391,539619.5334,546502.1622,547268.9908,548035.427,548802.3215,549568.9485,550335.5983,536502.8149,540385.9406,541152.8124,541919.4036,542686.1567,543452.7392,544202.476,544968.7725,545735.559,549578.6534
Mixed,Female,tile,32,M_greet.wav,None,729.5109513,4391,539619.5334,546502.1622,547268.9908,548035.427,548802.3215,549568.9485,550335.5983,551102.2662,540385.9406,541152.8124,541919.4036,542686.1567,543452.7392,544202.476,544968.7725,545735.559,550345.0084
Mixed,Male,cave,16,M_park.wav,None,727.7415474,4391,554235.5017,546502.1622,547268.9908,548035.427,548802.3215,549568.9485,550335.5983,551102.2662,540385.9406,541152.8124,541919.4036,542686.1567,543452.7392,544202.476,544968.7725,545735.559,551111.8212
Mixed,Male,cave,16,M_cave.wav,None,727.799363,4391,554235.5017,546502.1622,547268.9908,548035.427,548802.3215,549568.9485,550335.5983,551102.2662,555002.2829,541152.8124,541919.4036,542686.1567,543452.7392,544202.476,544968.7725,545735.559,554244.8907
Mixed,Male,cave,16,F_depth.wav,space,495.0576965,4391,554235.5017,546502.1622,547268.9908,548035.427,548802.3215,549568.9485,550335.5983,551102.2662,555002.2829,555768.9427,541919.4036,542686.1567,543452.7392,544202.476,544968.7725,545735.559,555011.3631
Mixed,Male,cave,16,F_park.wav,None,728.0800934,4391,554235.5017,546502.1622,547268.9908,548035.427,548802.3215,549568.9485,550335.5983,551102.2662,555002.2829,555768.9427,556535.6247,542686.1567,543452.7392,544202.476,544968.7725,545735.559,555778.2918
Mixed,Male,cave,16,M_lash.wav,None,725.9409172,4391,554235.5017,546502.1622,547268.9908,548035.427,548802.3215,549568.9485,550335.5983,551102.2662,555002.2829,555768.9427,556535.6247,557302.7566,543452.7392,544202.476,544968.7725,545735.559,556545.3279
Mixed,Male,cave,16,M_cave.wav,None,723.3571489,4391,554235.5017,546502.1622,547268.9908,548035.427,548802.3215,549568.9485,550335.5983,551102.2662,555002.2829,555768.9427,556535.6247,557302.7566,558068.9758,544202.476,544968.7725,545735.559,557312.6669
Mixed,Male,cave,16,F_greet.wav,space,564.1673952,4391,554235.5017,546502.1622,547268.9908,548035.427,548802.3215,549568.9485,550335.5983,551102.2662,555002.2829,555768.9427,556535.6247,557302.7566,558068.9758,558835.5809,544968.7725,545735.559,558078.2235
Mixed,Male,cave,16,F_jaw.wav,None,720.2737555,4391,554235.5017,546502.1622,547268.9908,548035.427,548802.3215,549568.9485,550335.5983,551102.2662,555002.2829,555768.9427,556535.6247,557302.7566,558068.9758,558835.5809,559585.0784,545735.559,558845.1096
Mixed,Male,cave,16,M_cave.wav,None,735.6285802,4391,554235.5017,546502.1622,547268.9908,548035.427,548802.3215,549568.9485,550335.5983,551102.2662,555002.2829,555768.9427,556535.6247,557302.7566,558068.9758,558835.5809,559585.0784,560352.1862,559594.7274
Mixed,Male,cave,16,M_priest.wav,space,576.6512295,4391,554235.5017,561118.8104,547268.9908,548035.427,548802.3215,549568.9485,550335.5983,551102.2662,555002.2829,555768.9427,556535.6247,557302.7566,558068.9758,558835.5809,559585.0784,560352.1862,560361.7019
Mixed,Male,cave,16,M_cave.wav,None,731.3867114,4391,554235.5017,561118.8104,561885.3527,548035.427,548802.3215,549568.9485,550335.5983,551102.2662,555002.2829,555768.9427,556535.6247,557302.7566,558068.9758,558835.5809,559585.0784,560352.1862,561128.2807
Mixed,Male,cave,16,F_reek.wav,space,579.6069345,4391,554235.5017,561118.8104,561885.3527,562652.1568,548802.3215,549568.9485,550335.5983,551102.2662,555002.2829,555768.9427,556535.6247,557302.7566,558068.9758,558835.5809,559585.0784,560352.1862,561894.7311
Mixed,Male,cave,16,F_cling.wav,None,727.9214873,4391,554235.5017,561118.8104,561885.3527,562652.1568,563418.5798,549568.9485,550335.5983,551102.2662,555002.2829,555768.9427,556535.6247,557302.7566,558068.9758,558835.5809,559585.0784,560352.1862,562661.2212
Mixed,Male,cave,16,F_knife.wav,None,726.5036148,4391,554235.5017,561118.8104,561885.3527,562652.1568,563418.5798,564185.1542,550335.5983,551102.2662,555002.2829,555768.9427,556535.6247,557302.7566,558068.9758,558835.5809,559585.0784,560352.1862,563427.7712
Mixed,Male,cave,16,M_park.wav,None,724.8625183,4391,554235.5017,561118.8104,561885.3527,562652.1568,563418.5798,564185.1542,564952.1837,551102.2662,555002.2829,555768.9427,556535.6247,557302.7566,558068.9758,558835.5809,559585.0784,560352.1862,564194.3642
Mixed,Male,cave,16,F_cad.wav,None,722.4741476,4391,554235.5017,561118.8104,561885.3527,562652.1568,563418.5798,564185.1542,564952.1837,565718.9684,555002.2829,555768.9427,556535.6247,557302.7566,558068.9758,558835.5809,559585.0784,560352.1862,564961.7242
Mixed,Male,ball,5,M_romp.wav,None,721.0250483,4391,568834.9063,561118.8104,561885.3527,562652.1568,563418.5798,564185.1542,564952.1837,565718.9684,555002.2829,555768.9427,556535.6247,557302.7566,558068.9758,558835.5809,559585.0784,560352.1862,565728.1834
Mixed,Male,ball,5,F_cling.wav,None,727.1160884,4391,568834.9063,561118.8104,561885.3527,562652.1568,563418.5798,564185.1542,564952.1837,565718.9684,569601.9067,555768.9427,556535.6247,557302.7566,558068.9758,558835.5809,559585.0784,560352.1862,568843.6976
Mixed,Male,ball,5,F_dime.wav,None,724.3455788,4391,568834.9063,561118.8104,561885.3527,562652.1568,563418.5798,564185.1542,564952.1837,565718.9684,569601.9067,570369.0893,556535.6247,557302.7566,558068.9758,558835.5809,559585.0784,560352.1862,569611.7827
Mixed,Male,ball,5,M_bluff.wav,None,722.1454955,4391,568834.9063,561118.8104,561885.3527,562652.1568,563418.5798,564185.1542,564952.1837,565718.9684,569601.9067,570369.0893,571135.707,557302.7566,558068.9758,558835.5809,559585.0784,560352.1862,570379.0896
Mixed,Male,ball,5,M_ball.wav,None,720.5513935,4391,568834.9063,561118.8104,561885.3527,562652.1568,563418.5798,564185.1542,564952.1837,565718.9684,569601.9067,570369.0893,571135.707,571902.2595,558068.9758,558835.5809,559585.0784,560352.1862,571145.7892
Mixed,Male,ball,5,F_depth.wav,space,482.0083831,4391,568834.9063,561118.8104,561885.3527,562652.1568,563418.5798,564185.1542,564952.1837,565718.9684,569601.9067,570369.0893,571135.707,571902.2595,572651.7079,558835.5809,559585.0784,560352.1862,571912.1924
Mixed,Male,ball,5,F_cling.wav,None,740.9695638,4391,568834.9063,561118.8104,561885.3527,562652.1568,563418.5798,564185.1542,564952.1837,565718.9684,569601.9067,570369.0893,571135.707,571902.2595,572651.7079,573418.6487,559585.0784,560352.1862,572655.1113
Mixed,Male,ball,5,M_ball.wav,None,733.0751112,4391,568834.9063,561118.8104,561885.3527,562652.1568,563418.5798,564185.1542,564952.1837,565718.9684,569601.9067,570369.0893,571135.707,571902.2595,572651.7079,573418.6487,574185.1724,560352.1862,573428.1901
Mixed,Male,ball,5,F_dime.wav,space,471.193471,4391,568834.9063,561118.8104,561885.3527,562652.1568,563418.5798,564185.1542,564952.1837,565718.9684,569601.9067,570369.0893,571135.707,571902.2595,572651.7079,573418.6487,574185.1724,574951.7939,574194.973
Mixed,Male,ball,5,F_lash.wav,None,729.9187519,4391,568834.9063,575718.3232,561885.3527,562652.1568,563418.5798,564185.1542,564952.1837,565718.9684,569601.9067,570369.0893,571135.707,571902.2595,572651.7079,573418.6487,574185.1724,574951.7939,574961.0911
Mixed,Male,ball,5,M_ball.wav,None,732.5037569,4391,568834.9063,575718.3232,576485.1372,562652.1568,563418.5798,564185.1542,564952.1837,565718.9684,569601.9067,570369.0893,571135.707,571902.2595,572651.7079,573418.6487,574185.1724,574951.7939,575727.5038
Mixed,Male,ball,5,F_jaw.wav,space,419.536035,4391,568834.9063,575718.3232,576485.1372,577251.652,563418.5798,564185.1542,564952.1837,565718.9684,569601.9067,570369.0893,571135.707,571902.2595,572651.7079,573418.6487,574185.1724,574951.7939,576494.5636
Mixed,Male,ball,5,M_ball.wav,None,728.5967236,4391,568834.9063,575718.3232,576485.1372,577251.652,578018.5341,564185.1542,564952.1837,565718.9684,569601.9067,570369.0893,571135.707,571902.2595,572651.7079,573418.6487,574185.1724,574951.7939,577261.1087
Mixed,Male,ball,5,M_dime.wav,space,406.0993255,4391,568834.9063,575718.3232,576485.1372,577251.652,578018.5341,578785.1929,564952.1837,565718.9684,569601.9067,570369.0893,571135.707,571902.2595,572651.7079,573418.6487,574185.1724,574951.7939,578027.9821
Mixed,Male,ball,5,F_priest.wav,None,724.5462327,4391,568834.9063,575718.3232,576485.1372,577251.652,578018.5341,578785.1929,579552.2429,565718.9684,569601.9067,570369.0893,571135.707,571902.2595,572651.7079,573418.6487,574185.1724,574951.7939,578794.7857
Mixed,Male,ball,5,M_greet.wav,None,722.5239249,4391,568834.9063,575718.3232,576485.1372,577251.652,578018.5341,578785.1929,579552.2429,580319.0226,569601.9067,570369.0893,571135.707,571902.2595,572651.7079,573418.6487,574185.1724,574951.7939,579561.9868
Mixed,Male,cave,15,F_park.wav,None,720.654658,4391,583435.5386,575718.3232,576485.1372,577251.652,578018.5341,578785.1929,579552.2429,580319.0226,569601.9067,570369.0893,571135.707,571902.2595,572651.7079,573418.6487,574185.1724,574951.7939,580329.067
Mixed,Male,cave,15,F_knife.wav,None,721.0185556,4391,583435.5386,575718.3232,576485.1372,577251.652,578018.5341,578785.1929,579552.2429,580319.0226,584201.806,570369.0893,571135.707,571902.2595,572651.7079,573418.6487,574185.1724,574951.7939,583445.3054
Mixed,Male,cave,15,M_cave.wav,None,719.926862,4391,583435.5386,575718.3232,576485.1372,577251.652,578018.5341,578785.1929,579552.2429,580319.0226,584201.806,584951.8517,571135.707,571902.2595,572651.7079,573418.6487,574185.1724,574951.7939,584211.5963
Mixed,Male,cave,15,F_romp.wav,space,448.6379796,4391,583435.5386,575718.3232,576485.1372,577251.652,578018.5341,578785.1929,579552.2429,580319.0226,584201.806,584951.8517,585718.4434,571902.2595,572651.7079,573418.6487,574185.1724,574951.7939,584961.3421
Mixed,Male,cave,15,F_priest.wav,None,733.3564595,4391,583435.5386,575718.3232,576485.1372,577251.652,578018.5341,578785.1929,579552.2429,580319.0226,584201.806,584951.8517,585718.4434,586484.9792,572651.7079,573418.6487,574185.1724,574951.7939,585727.8896
Mixed,Male,cave,15,M_cave.wav,None,731.995475,4391,583435.5386,575718.3232,576485.1372,577251.652,578018.5341,578785.1929,579552.2429,580319.0226,584201.806,584951.8517,585718.4434,586484.9792,587251.7336,573418.6487,574185.1724,574951.7939,586494.3169
Mixed,Male,cave,15,F_gnash.wav,space,468.5855871,4391,583435.5386,575718.3232,576485.1372,577251.652,578018.5341,578785.1929,579552.2429,580319.0226,584201.806,584951.8517,585718.4434,586484.9792,587251.7336,588018.3829,574185.1724,574951.7939,587261.3826
Mixed,Male,cave,15,M_lash.wav,None,731.983108,4391,583435.5386,575718.3232,576485.1372,577251.652,578018.5341,578785.1929,579552.2429,580319.0226,584201.806,584951.8517,585718.4434,586484.9792,587251.7336,588018.3829,588784.9233,574951.7939,588027.9098
Mixed,Male,cave,15,M_gnash.wav,None,730.5086567,4391,583435.5386,575718.3232,576485.1372,577251.652,578018.5341,578785.1929,579552.2429,580319.0226,584201.806,584951.8517,585718.4434,586484.9792,587251.7336,588018.3829,588784.9233,589551.4647,588794.4354
Mixed,Male,cave,15,F_knife.wav,None,729.3606927,4391,583435.5386,590318.1736,576485.1372,577251.652,578018.5341,578785.1929,579552.2429,580319.0226,584201.806,584951.8517,585718.4434,586484.9792,587251.7336,588018.3829,588784.9233,589551.4647,589560.7686
Mixed,Male,cave,15,M_cave.wav,None,727.7699914,4391,583435.5386,590318.1736,591084.7941,577251.652,578018.5341,578785.1929,579552.2429,580319.0226,584201.806,584951.8517,585718.4434,586484.9792,587251.7336,588018.3829,588784.9233,589551.4647,590327.4844
Mixed,Male,cave,15,M_priest.wav,space,515.7875144,4391,583435.5386,590318.1736,591084.7941,591852.0985,578018.5341,578785.1929,579552.2429,580319.0226,584201.806,584951.8517,585718.4434,586484.9792,587251.7336,588018.3829,588784.9233,589551.4647,591094.1154
Mixed,Male,cave,15,M_cave.wav,None,722.9527491,4391,583435.5386,590318.1736,591084.7941,591852.0985,592618.6989,578785.1929,579552.2429,580319.0226,584201.806,584951.8517,585718.4434,586484.9792,587251.7336,588018.3829,588784.9233,589551.4647,591861.8007
Mixed,Male,cave,15,F_jaw.wav,space,557.1633643,4391,583435.5386,590318.1736,591084.7941,591852.0985,592618.6989,593385.0446,579552.2429,580319.0226,584201.806,584951.8517,585718.4434,586484.9792,587251.7336,588018.3829,588784.9233,589551.4647,592628.7214
Mixed,Male,cave,15,M_cad.wav,None,719.7509413,4391,583435.5386,590318.1736,591084.7941,591852.0985,592618.6989,593385.0446,594134.6756,580319.0226,584201.806,584951.8517,585718.4434,586484.9792,587251.7336,588018.3829,588784.9233,589551.4647,593394.4614
Mixed,Male,cave,15,F_depth.wav,None,735.2918899,4391,583435.5386,590318.1736,591084.7941,591852.0985,592618.6989,593385.0446,594134.6756,594901.6458,584201.806,584951.8517,585718.4434,586484.9792,587251.7336,588018.3829,588784.9233,589551.4647,594144.0925
Mixed,Male,done,42,M_jaw.wav,None,733.392633,4391,598035.3596,590318.1736,591084.7941,591852.0985,592618.6989,593385.0446,594134.6756,594901.6458,584201.806,584951.8517,585718.4434,586484.9792,587251.7336,588018.3829,588784.9233,589551.4647,594911.2448
Mixed,Male,done,42,F_jolt.wav,None,720.8559304,4391,598035.3596,590318.1736,591084.7941,591852.0985,592618.6989,593385.0446,594134.6756,594901.6458,598801.9121,584951.8517,585718.4434,586484.9792,587251.7336,588018.3829,588784.9233,589551.4647,598045.3243
Mixed,Male,done,42,F_knife.wav,None,719.7821685,4391,598035.3596,590318.1736,591084.7941,591852.0985,592618.6989,593385.0446,594134.6756,594901.6458,598801.9121,599551.8304,585718.4434,586484.9792,587251.7336,588018.3829,588784.9233,589551.4647,598811.6675
Mixed,Male,done,42,M_jaw.wav,None,735.4845051,4391,598035.3596,590318.1736,591084.7941,591852.0985,592618.6989,593385.0446,594134.6756,594901.6458,598801.9121,599551.8304,600317.891,586484.9792,587251.7336,588018.3829,588784.9233,589551.4647,599561.2847
Mixed,Male,done,42,M_romp.wav,None,734.8228726,4391,598035.3596,590318.1736,591084.7941,591852.0985,592618.6989,593385.0446,594134.6756,594901.6458,598801.9121,599551.8304,600317.891,601084.5749,587251.7336,588018.3829,588784.9233,589551.4647,600327.1171
Mixed,Male,done,42,F_priest.wav,None,733.4872405,4391,598035.3596,590318.1736,591084.7941,591852.0985,592618.6989,593385.0446,594134.6756,594901.6458,598801.9121,599551.8304,600317.891,601084.5749,601851.2455,588018.3829,588784.9233,589551.4647,601093.5926
Mixed,Male,done,42,F_jaw.wav,None,731.7141262,4391,598035.3596,590318.1736,591084.7941,591852.0985,592618.6989,593385.0446,594134.6756,594901.6458,598801.9121,599551.8304,600317.891,601084.5749,601851.2455,602618.1572,588784.9233,589551.4647,601860.5436
Mixed,Male,done,42,M_done.wav,None,729.8569172,4391,598035.3596,590318.1736,591084.7941,591852.0985,592618.6989,593385.0446,594134.6756,594901.6458,598801.9121,599551.8304,600317.891,601084.5749,601851.2455,602618.1572,603384.6164,589551.4647,602627.6591
Mixed,Male,done,42,F_cad.wav,space,527.6109525,4391,598035.3596,590318.1736,591084.7941,591852.0985,592618.6989,593385.0446,594134.6756,594901.6458,598801.9121,599551.8304,600317.891,601084.5749,601851.2455,602618.1572,603384.6164,604151.4697,603394.1198
Mixed,Male,done,42,M_done.wav,None,730.2931617,4391,598035.3596,604917.9053,591084.7941,591852.0985,592618.6989,593385.0446,594134.6756,594901.6458,598801.9121,599551.8304,600317.891,601084.5749,601851.2455,602618.1572,603384.6164,604151.4697,604160.6602
Mixed,Male,done,42,F_knife.wav,space,514.4153992,4391,598035.3596,604917.9053,605684.5403,591852.0985,592618.6989,593385.0446,594134.6756,594901.6458,598801.9121,599551.8304,600317.891,601084.5749,601851.2455,602618.1572,603384.6164,604151.4697,604927.3091
Mixed,Male,done,42,M_done.wav,None,727.074659,4391,598035.3596,604917.9053,605684.5403,606451.2981,592618.6989,593385.0446,594134.6756,594901.6458,598801.9121,599551.8304,600317.891,601084.5749,601851.2455,602618.1572,603384.6164,604151.4697,605693.6464
Mixed,Male,done,42,F_priest.wav,space,492.7812475,4391,598035.3596,604917.9053,605684.5403,606451.2981,607218.3762,593385.0446,594134.6756,594901.6458,598801.9121,599551.8304,600317.891,601084.5749,601851.2455,602618.1572,603384.6164,604151.4697,606460.9252
Mixed,Male,done,42,M_park.wav,None,721.9924545,4391,598035.3596,604917.9053,605684.5403,606451.2981,607218.3762,607984.8576,594134.6756,594901.6458,598801.9121,599551.8304,600317.891,601084.5749,601851.2455,602618.1572,603384.6164,604151.4697,607228.4825
Mixed,Male,done,42,M_done.wav,None,720.9344604,4391,598035.3596,604917.9053,605684.5403,606451.2981,607218.3762,607984.8576,608751.8633,594901.6458,598801.9121,599551.8304,600317.891,601084.5749,601851.2455,602618.1572,603384.6164,604151.4697,607994.8943
Mixed,Male,done,42,F_jaw.wav,space,599.7097474,4391,598035.3596,604917.9053,605684.5403,606451.2981,607218.3762,607984.8576,608751.8633,609501.1982,598801.9121,599551.8304,600317.891,601084.5749,601851.2455,602618.1572,603384.6164,604151.4697,608761.952
Mixed,Male,tile,29,F_reek.wav,None,735.3002373,4391,612635.1887,604917.9053,605684.5403,606451.2981,607218.3762,607984.8576,608751.8633,609501.1982,598801.9121,599551.8304,600317.891,601084.5749,601851.2455,602618.1572,603384.6164,604151.4697,609510.5309
Mixed,Male,tile,29,M_tile.wav,None,721.2309581,4391,612635.1887,604917.9053,605684.5403,606451.2981,607218.3762,607984.8576,608751.8633,609501.1982,613401.3479,599551.8304,600317.891,601084.5749,601851.2455,602618.1572,603384.6164,604151.4697,612644.9626
Mixed,Male,tile,29,F_cad.wav,space,414.7926848,4391,612635.1887,604917.9053,605684.5403,606451.2981,607218.3762,607984.8576,608751.8633,609501.1982,613401.3479,614168.2816,600317.891,601084.5749,601851.2455,602618.1572,603384.6164,604151.4697,613410.7808
Mixed,Male,tile,29,M_bluff.wav,None,721.6721498,4391,612635.1887,604917.9053,605684.5403,606451.2981,607218.3762,607984.8576,608751.8633,609501.1982,613401.3479,614168.2816,614934.8437,601084.5749,601851.2455,602618.1572,603384.6164,604151.4697,614178.4358
Mixed,Male,tile,29,M_tile.wav,None,720.8902487,4391,612635.1887,604917.9053,605684.5403,606451.2981,607218.3762,607984.8576,608751.8633,609501.1982,613401.3479,614168.2816,614934.8437,615701.5758,601851.2455,602618.1572,603384.6164,604151.4697,614944.5187
Mixed,Male,tile,29,F_depth.wav,space,474.0258157,4391,612635.1887,604917.9053,605684.5403,606451.2981,607218.3762,607984.8576,608751.8633,609501.1982,613401.3479,614168.2816,614934.8437,615701.5758,616450.9682,602618.1572,603384.6164,604151.4697,615711.5251
Mixed,Male,tile,29,M_tile.wav,None,735.4084486,4391,612635.1887,604917.9053,605684.5403,606451.2981,607218.3762,607984.8576,608751.8633,609501.1982,613401.3479,614168.2816,614934.8437,615701.5758,616450.9682,617217.9381,603384.6164,604151.4697,616460.3953
Mixed,Male,tile,29,F_gnash.wav,space,533.8590532,4391,612635.1887,604917.9053,605684.5403,606451.2981,607218.3762,607984.8576,608751.8633,609501.1982,613401.3479,614168.2816,614934.8437,615701.5758,616450.9682,617217.9381,617984.6826,604151.4697,617227.6409
Mixed,Male,tile,29,M_cling.wav,None,731.8108981,4391,612635.1887,604917.9053,605684.5403,606451.2981,607218.3762,607984.8576,608751.8633,609501.1982,613401.3479,614168.2816,614934.8437,615701.5758,616450.9682,617217.9381,617984.6826,618751.0783,617994.0128
Mixed,Male,tile,29,F_knife.wav,None,740.2266185,4391,612635.1887,619517.8327,605684.5403,606451.2981,607218.3762,607984.8576,608751.8633,609501.1982,613401.3479,614168.2816,614934.8437,615701.5758,616450.9682,617217.9381,617984.6826,618751.0783,618755.3891
Mixed,Male,tile,29,M_romp.wav,None,733.9024609,4391,612635.1887,619517.8327,620284.6399,606451.2981,607218.3762,607984.8576,608751.8633,609501.1982,613401.3479,614168.2816,614934.8437,615701.5758,616450.9682,617217.9381,617984.6826,618751.0783,619527.2866
Mixed,Male,tile,29,M_tile.wav,None,732.5488967,4391,612635.1887,619517.8327,620284.6399,621050.9411,607218.3762,607984.8576,608751.8633,609501.1982,613401.3479,614168.2816,614934.8437,615701.5758,616450.9682,617217.9381,617984.6826,618751.0783,620293.9711
Mixed,Male,tile,29,F_lash.wav,space,525.3008036,4391,612635.1887,619517.8327,620284.6399,621050.9411,621817.9106,607984.8576,608751.8633,609501.1982,613401.3479,614168.2816,614934.8437,615701.5758,616450.9682,617217.9381,617984.6826,618751.0783,621060.1325
Mixed,Male,tile,29,F_cling.wav,None,729.0366786,4391,612635.1887,619517.8327,620284.6399,621050.9411,621817.9106,622584.5553,608751.8633,609501.1982,613401.3479,614168.2816,614934.8437,615701.5758,616450.9682,617217.9381,617984.6826,618751.0783,621827.6657
Mixed,Male,tile,29,M_reek.wav,None,728.2560132,4391,612635.1887,619517.8327,620284.6399,621050.9411,621817.9106,622584.5553,623350.8907,609501.1982,613401.3479,614168.2816,614934.8437,615701.5758,616450.9682,617217.9381,617984.6826,618751.0783,622593.9542
Mixed,Male,tile,29,F_jaw.wav,None,727.4079486,4391,612635.1887,619517.8327,620284.6399,621050.9411,621817.9106,622584.5553,623350.8907,624117.885,613401.3479,614168.2816,614934.8437,615701.5758,616450.9682,617217.9381,617984.6826,618751.0783,623360.1975
Mixed,Male,tile,30,M_park.wav,None,725.926077,4391,627251.4612,619517.8327,620284.6399,621050.9411,621817.9106,622584.5553,623350.8907,624117.885,613401.3479,614168.2816,614934.8437,615701.5758,616450.9682,617217.9381,617984.6826,618751.0783,624127.338
Mixed,Male,tile,30,M_tile.wav,None,721.6897728,4391,627251.4612,619517.8327,620284.6399,621050.9411,621817.9106,622584.5553,623350.8907,624117.885,628018.1464,614168.2816,614934.8437,615701.5758,616450.9682,617217.9381,617984.6826,618751.0783,627261.2522
Mixed,Male,tile,30,F_dime.wav,space,469.192496,4391,627251.4612,619517.8327,620284.6399,621050.9411,621817.9106,622584.5553,623350.8907,624117.885,628018.1464,628768.1129,614934.8437,615701.5758,616450.9682,617217.9381,617984.6826,618751.0783,628028.1732
Mixed,Male,tile,30,M_lash.wav,None,735.5256253,4391,627251.4612,619517.8327,620284.6399,621050.9411,621817.9106,622584.5553,623350.8907,624117.885,628018.1464,628768.1129,629534.1515,615701.5758,616450.9682,617217.9381,617984.6826,618751.0783,628777.582
Mixed,Male,tile,30,M_tile.wav,None,735.5679823,4391,627251.4612,619517.8327,620284.6399,621050.9411,621817.9106,622584.5553,623350.8907,624117.885,628018.1464,628768.1129,629534.1515,630300.9337,616450.9682,617217.9381,617984.6826,618751.0783,629542.9976
Mixed,Male,tile,30,F_gnash.wav,space,554.7527336,4391,627251.4612,619517.8327,620284.6399,621050.9411,621817.9106,622584.5553,623350.8907,624117.885,628018.1464,628768.1129,629534.1515,630300.9337,631067.5487,617217.9381,617984.6826,618751.0783,630310.5611
Mixed,Male,tile,30,F_park.wav,None,732.0273197,4391,627251.4612,619517.8327,620284.6399,621050.9411,621817.9106,622584.5553,623350.8907,624117.885,628018.1464,628768.1129,629534.1515,630300.9337,631067.5487,631834.4286,617984.6826,618751.0783,631076.4835
Mixed,Male,tile,30,M_tile.wav,None,730.0275816,4391,627251.4612,619517.8327,620284.6399,621050.9411,621817.9106,622584.5553,623350.8907,624117.885,628018.1464,628768.1129,629534.1515,630300.9337,631067.5487,631834.4286,632600.7189,618751.0783,631844.0906
Mixed,Male,tile,30,F_priest.wav,space,511.6798268,4391,627251.4612,619517.8327,620284.6399,621050.9411,621817.9106,622584.5553,623350.8907,624117.885,628018.1464,628768.1129,629534.1515,630300.9337,631067.5487,631834.4286,632600.7189,633367.8369,632609.6175
Mixed,Male,tile,30,M_greet.wav,None,730.1871153,4391,627251.4612,634134.2233,620284.6399,621050.9411,621817.9106,622584.5553,623350.8907,624117.885,628018.1464,628768.1129,629534.1515,630300.9337,631067.5487,631834.4286,632600.7189,633367.8369,633377.2061
Mixed,Male,tile,30,F_cling.wav,None,729.7579818,4391,627251.4612,634134.2233,634901.0828,621050.9411,621817.9106,622584.5553,623350.8907,624117.885,628018.1464,628768.1129,629534.1515,630300.9337,631067.5487,631834.4286,632600.7189,633367.8369,634143.215
Mixed,Male,tile,30,M_park.wav,None,728.4378079,4391,627251.4612,634134.2233,634901.0828,635667.4619,621817.9106,622584.5553,623350.8907,624117.885,628018.1464,628768.1129,629534.1515,630300.9337,631067.5487,631834.4286,632600.7189,633367.8369,634910.1497
Mixed,Male,tile,30,M_tile.wav,None,727.8407929,4391,627251.4612,634134.2233,634901.0828,635667.4619,636434.2892,622584.5553,623350.8907,624117.885,628018.1464,628768.1129,629534.1515,630300.9337,631067.5487,631834.4286,632600.7189,633367.8369,635676.3166
Mixed,Male,tile,30,F_jaw.wav,space,644.9258495,4391,627251.4612,634134.2233,634901.0828,635667.4619,636434.2892,637200.9119,623350.8907,624117.885,628018.1464,628768.1129,629534.1515,630300.9337,631067.5487,631834.4286,632600.7189,633367.8369,636444.312
Mixed,Male,tile,30,F_bluff.wav,None,724.2525173,4391,627251.4612,634134.2233,634901.0828,635667.4619,636434.2892,637200.9119,637968.0673,624117.885,628018.1464,628768.1129,629534.1515,630300.9337,631067.5487,631834.4286,632600.7189,633367.8369,637210.0835
Mixed,Male,tile,30,F_depth.wav,None,728.9924663,4391,627251.4612,634134.2233,634901.0828,635667.4619,636434.2892,637200.9119,637968.0673,638734.5533,628018.1464,628768.1129,629534.1515,630300.9337,631067.5487,631834.4286,632600.7189,633367.8369,637971.9867
Mixed,Female,cave,23,F_dime.wav,None,722.6293529,4391,641851.2269,634134.2233,634901.0828,635667.4619,636434.2892,637200.9119,637968.0673,638734.5533,628018.1464,628768.1129,629534.1515,630300.9337,631067.5487,631834.4286,632600.7189,633367.8369,638743.8177
Mixed,Female,cave,23,F_cave.wav,None,721.3731785,4391,641851.2269,634134.2233,634901.0828,635667.4619,636434.2892,637200.9119,637968.0673,638734.5533,642617.9349,628768.1129,629534.1515,630300.9337,631067.5487,631834.4286,632600.7189,633367.8369,641861.2229
Mixed,Female,cave,23,F_knife.wav,space,533.27255,4391,641851.2269,634134.2233,634901.0828,635667.4619,636434.2892,637200.9119,637968.0673,638734.5533,642617.9349,643367.2012,629534.1515,630300.9337,631067.5487,631834.4286,632600.7189,633367.8369,642627.8307
Mixed,Female,cave,23,M_cad.wav,None,736.3644149,4391,641851.2269,634134.2233,634901.0828,635667.4619,636434.2892,637200.9119,637968.0673,638734.5533,642617.9349,643367.2012,644133.9982,630300.9337,631067.5487,631834.4286,632600.7189,633367.8369,643376.226
Mixed,Female,cave,23,M_bluff.wav,None,735.0992742,4391,641851.2269,634134.2233,634901.0828,635667.4619,636434.2892,637200.9119,637968.0673,638734.5533,642617.9349,643367.2012,644133.9982,644900.9372,631067.5487,631834.4286,632600.7189,633367.8369,644143.0264
Mixed,Female,cave,23,F_cave.wav,None,733.5803015,4391,641851.2269,634134.2233,634901.0828,635667.4619,636434.2892,637200.9119,637968.0673,638734.5533,642617.9349,643367.2012,644133.9982,644900.9372,645667.5039,631834.4286,632600.7189,633367.8369,644909.9957
Mixed,Female,cave,23,M_bluff.wav,space,451.9912824,4391,641851.2269,634134.2233,634901.0828,635667.4619,636434.2892,637200.9119,637968.0673,638734.5533,642617.9349,643367.2012,644133.9982,644900.9372,645667.5039,646433.8758,632600.7189,633367.8369,645677.1291
Mixed,Female,cave,23,M_priest.wav,None,730.8586417,4391,641851.2269,634134.2233,634901.0828,635667.4619,636434.2892,637200.9119,637968.0673,638734.5533,642617.9349,643367.2012,644133.9982,644900.9372,645667.5039,646433.8758,647200.8785,633367.8369,646442.7661
Mixed,Female,cave,23,F_cave.wav,None,729.4831257,4391,641851.2269,634134.2233,634901.0828,635667.4619,636434.2892,637200.9119,637968.0673,638734.5533,642617.9349,643367.2012,644133.9982,644900.9372,645667.5039,646433.8758,647200.8785,647967.4996,647209.8696
Mixed,Female,cave,23,F_jolt.wav,space,592.0697451,4391,641851.2269,648734.1866,634901.0828,635667.4619,636434.2892,637200.9119,637968.0673,638734.5533,642617.9349,643367.2012,644133.9982,644900.9372,645667.5039,646433.8758,647200.8785,647967.4996,647976.9965
Mixed,Female,cave,23,F_cave.wav,None,725.998424,4391,641851.2269,648734.1866,649500.812,635667.4619,636434.2892,637200.9119,637968.0673,638734.5533,642617.9349,643367.2012,644133.9982,644900.9372,645667.5039,646433.8758,647200.8785,647967.4996,648743.5271
Mixed,Female,cave,23,M_lash.wav,space,618.6098726,4391,641851.2269,648734.1866,649500.812,650267.7028,636434.2892,637200.9119,637968.0673,638734.5533,642617.9349,643367.2012,644133.9982,644900.9372,645667.5039,646433.8758,647200.8785,647967.4996,649510.4351
Mixed,Female,cave,23,M_jolt.wav,None,721.6625656,4391,641851.2269,648734.1866,649500.812,650267.7028,651034.5035,637200.9119,637968.0673,638734.5533,642617.9349,643367.2012,644133.9982,644900.9372,645667.5039,646433.8758,647200.8785,647967.4996,650277.8477
Mixed,Female,cave,23,M_knife.wav,None,720.7140191,4391,641851.2269,648734.1866,649500.812,650267.7028,651034.5035,651801.3204,637968.0673,638734.5533,642617.9349,643367.2012,644133.9982,644900.9372,645667.5039,646433.8758,647200.8785,647967.4996,651044.3733
Mixed,Female,cave,23,M_cling.wav,None,719.6687013,4391,641851.2269,648734.1866,649500.812,650267.7028,651034.5035,651801.3204,652551.0643,638734.5533,642617.9349,643367.2012,644133.9982,644900.9372,645667.5039,646433.8758,647200.8785,647967.4996,651811.0154
Mixed,Female,cave,23,F_cad.wav,None,735.3732027,4391,641851.2269,648734.1866,649500.812,650267.7028,651034.5035,651801.3204,652551.0643,653317.2179,642617.9349,643367.2012,644133.9982,644900.9372,645667.5039,646433.8758,647200.8785,647967.4996,652560.8051
Mixed,Male,cave,13,F_gnash.wav,None,735.0949459,4391,656451.0474,648734.1866,649500.812,650267.7028,651034.5035,651801.3204,652551.0643,653317.2179,642617.9349,643367.2012,644133.9982,644900.9372,645667.5039,646433.8758,647200.8785,647967.4996,653326.7866
Mixed,Male,cave,13,F_priest.wav,None,727.5136868,4391,656451.0474,648734.1866,649500.812,650267.7028,651034.5035,651801.3204,652551.0643,653317.2179,657217.6363,643367.2012,644133.9982,644900.9372,645667.5039,646433.8758,647200.8785,647967.4996,656454.8814
Mixed,Male,cave,13,F_depth.wav,None,720.3034358,4391,656451.0474,648734.1866,649500.812,650267.7028,651034.5035,651801.3204,652551.0643,653317.2179,657217.6363,657984.289,644133.9982,644900.9372,645667.5039,646433.8758,647200.8785,647967.4996,657227.7321
Mixed,Male,cave,13,F_jaw.wav,None,719.4587723,4391,656451.0474,648734.1866,649500.812,650267.7028,651034.5035,651801.3204,652551.0643,653317.2179,657217.6363,657984.289,658734.1779,644900.9372,645667.5039,646433.8758,647200.8785,647967.4996,657994.1949
Mixed,Male,cave,13,F_gnash.wav,None,735.836036,4391,656451.0474,648734.1866,649500.812,650267.7028,651034.5035,651801.3204,652551.0643,653317.2179,657217.6363,657984.289,658734.1779,659500.2769,645667.5039,646433.8758,647200.8785,647967.4996,658743.413
Mixed,Male,cave,13,M_depth.wav,None,735.4362742,4391,656451.0474,648734.1866,649500.812,650267.7028,651034.5035,651801.3204,652551.0643,653317.2179,657217.6363,657984.289,658734.1779,659500.2769,660284.5184,646433.8758,647200.8785,647967.4996,659509.4297
Mixed,Male,cave,13,M_cave.wav,None,719.7633088,4391,656451.0474,648734.1866,649500.812,650267.7028,651034.5035,651801.3204,652551.0643,653317.2179,657217.6363,657984.289,658734.1779,659500.2769,660284.5184,661051.0066,647200.8785,647967.4996,660294.4602
Mixed,Male,cave,13,F_lash.wav,space,460.087317,4391,656451.0474,648734.1866,649500.812,650267.7028,651034.5035,651801.3204,652551.0643,653317.2179,657217.6363,657984.289,658734.1779,659500.2769,660284.5184,661051.0066,661800.6522,647967.4996,661060.7703
Mixed,Male,cave,13,F_dime.wav,None,734.6593193,4391,656451.0474,648734.1866,649500.812,650267.7028,651034.5035,651801.3204,652551.0643,653317.2179,657217.6363,657984.289,658734.1779,659500.2769,660284.5184,661051.0066,661800.6522,662567.2635,661809.75
Mixed,Male,cave,13,M_cave.wav,None,732.9165046,4391,656451.0474,663333.9517,649500.812,650267.7028,651034.5035,651801.3204,652551.0643,653317.2179,657217.6363,657984.289,658734.1779,659500.2769,660284.5184,661051.0066,661800.6522,662567.2635,662577.0739
Mixed,Male,cave,13,M_cad.wav,space,481.2039114,4391,656451.0474,663333.9517,664100.6167,650267.7028,651034.5035,651801.3204,652551.0643,653317.2179,657217.6363,657984.289,658734.1779,659500.2769,660284.5184,661051.0066,661800.6522,662567.2635,663343.6372
Mixed,Male,cave,13,M_bluff.wav,None,730.3852956,4391,656451.0474,663333.9517,664100.6167,664867.2629,651034.5035,651801.3204,652551.0643,653317.2179,657217.6363,657984.289,658734.1779,659500.2769,660284.5184,661051.0066,661800.6522,662567.2635,664109.6502
Mixed,Male,cave,13,M_cave.wav,None,728.9800993,4391,656451.0474,663333.9517,664100.6167,664867.2629,665633.6348,651801.3204,652551.0643,653317.2179,657217.6363,657984.289,658734.1779,659500.2769,660284.5184,661051.0066,661800.6522,662567.2635,664876.6995
Mixed,Male,cave,13,F_romp.wav,space,446.3167,4391,656451.0474,663333.9517,664100.6167,664867.2629,665633.6348,666400.5694,652551.0643,653317.2179,657217.6363,657984.289,658734.1779,659500.2769,660284.5184,661051.0066,661800.6522,662567.2635,665642.4889
Mixed,Male,cave,13,M_cave.wav,None,725.927623,4391,656451.0474,663333.9517,664100.6167,664867.2629,665633.6348,666400.5694,667167.202,653317.2179,657217.6363,657984.289,658734.1779,659500.2769,660284.5184,661051.0066,661800.6522,662567.2635,666410.0166
Mixed,Male,cave,13,M_jolt.wav,space,607.9161572,4391,656451.0474,663333.9517,664100.6167,664867.2629,665633.6348,666400.5694,667167.202,667933.9255,657217.6363,657984.289,658734.1779,659500.2769,660284.5184,661051.0066,661800.6522,662567.2635,667176.86
Mixed,Female,cave,19,F_depth.wav,None,723.2848024,4391,671050.8254,663333.9517,664100.6167,664867.2629,665633.6348,666400.5694,667167.202,667933.9255,657217.6363,657984.289,658734.1779,659500.2769,660284.5184,661051.0066,661800.6522,662567.2635,667943.128
Mixed,Female,cave,19,M_priest.wav,None,721.486955,4391,671050.8254,663333.9517,664100.6167,664867.2629,665633.6348,666400.5694,667167.202,667933.9255,671817.3909,657984.289,658734.1779,659500.2769,660284.5184,661051.0066,661800.6522,662567.2635,671060.6461
Mixed,Female,cave,19,F_cling.wav,None,720.1231872,4391,671050.8254,663333.9517,664100.6167,664867.2629,665633.6348,666400.5694,667167.202,667933.9255,671817.3909,672583.9193,658734.1779,659500.2769,660284.5184,661051.0066,661800.6522,662567.2635,671827.6159
Mixed,Female,cave,19,M_romp.wav,None,719.1409408,4391,671050.8254,663333.9517,664100.6167,664867.2629,665633.6348,666400.5694,667167.202,667933.9255,671817.3909,672583.9193,673333.8657,659500.2769,660284.5184,661051.0066,661800.6522,662567.2635,672594.2182
Mixed,Female,cave,19,F_cave.wav,None,735.6353826,4391,671050.8254,663333.9517,664100.6167,664867.2629,665633.6348,666400.5694,667167.202,667933.9255,671817.3909,672583.9193,673333.8657,674100.1313,660284.5184,661051.0066,661800.6522,662567.2635,673343.4882
Mixed,Female,cave,19,M_park.wav,space,443.2323785,4391,671050.8254,663333.9517,664100.6167,664867.2629,665633.6348,666400.5694,667167.202,667933.9255,671817.3909,672583.9193,673333.8657,674100.1313,674867.0666,661051.0066,661800.6522,662567.2635,674109.4545
Mixed,Female,cave,19,M_lash.wav,None,732.808603,4391,671050.8254,663333.9517,664100.6167,664867.2629,665633.6348,666400.5694,667167.202,667933.9255,671817.3909,672583.9193,673333.8657,674100.1313,674867.0666,675633.5714,661800.6522,662567.2635,674876.556
Mixed,Female,cave,19,F_cave.wav,None,731.798531,4391,671050.8254,663333.9517,664100.6167,664867.2629,665633.6348,666400.5694,667167.202,667933.9255,671817.3909,672583.9193,673333.8657,674100.1313,674867.0666,675633.5714,676400.4436,662567.2635,675643.1314
Mixed,Female,cave,19,M_knife.wav,space,438.8730233,4391,671050.8254,663333.9517,664100.6167,664867.2629,665633.6348,666400.5694,667167.202,667933.9255,671817.3909,672583.9193,673333.8657,674100.1313,674867.0666,675633.5714,676400.4436,677167.0236,676409.8001
Mixed,Female,cave,19,F_cave.wav,None,728.4242045,4391,671050.8254,677933.5634,664100.6167,664867.2629,665633.6348,666400.5694,667167.202,667933.9255,671817.3909,672583.9193,673333.8657,674100.1313,674867.0666,675633.5714,676400.4436,677167.0236,677176.6754
Mixed,Female,cave,19,F_romp.wav,space,521.7218031,4391,671050.8254,677933.5634,678700.2439,664867.2629,665633.6348,666400.5694,667167.202,667933.9255,671817.3909,672583.9193,673333.8657,674100.1313,674867.0666,675633.5714,676400.4436,677167.0236,677942.9184
Mixed,Female,cave,19,F_greet.wav,None,725.3615251,4391,671050.8254,677933.5634,678700.2439,679467.0765,665633.6348,666400.5694,667167.202,667933.9255,671817.3909,672583.9193,673333.8657,674100.1313,674867.0666,675633.5714,676400.4436,677167.0236,678709.8781
Mixed,Female,cave,19,F_cave.wav,None,724.8730301,4391,671050.8254,677933.5634,678700.2439,679467.0765,680233.723,666400.5694,667167.202,667933.9255,671817.3909,672583.9193,673333.8657,674100.1313,674867.0666,675633.5714,676400.4436,677167.0236,679476.5372
Mixed,Female,cave,19,M_knife.wav,space,476.4352096,4391,671050.8254,677933.5634,678700.2439,679467.0765,680233.723,681000.2789,667167.202,667933.9255,671817.3909,672583.9193,673333.8657,674100.1313,674867.0666,675633.5714,676400.4436,677167.0236,680244.161
Mixed,Female,cave,19,M_reek.wav,None,722.1226166,4391,671050.8254,677933.5634,678700.2439,679467.0765,680233.723,681000.2789,681767.1965,667933.9255,671817.3909,672583.9193,673333.8657,674100.1313,674867.0666,675633.5714,676400.4436,677167.0236,681009.5829
Mixed,Female,cave,19,M_gnash.wav,None,720.1593607,4391,671050.8254,677933.5634,678700.2439,679467.0765,680233.723,681000.2789,681767.1965,682534.0143,671817.3909,672583.9193,673333.8657,674100.1313,674867.0666,675633.5714,676400.4436,677167.0236,681777.2975
Mixed,Female,ball,12,F_cling.wav,None,719.6606626,4391,685650.6273,677933.5634,678700.2439,679467.0765,680233.723,681000.2789,681767.1965,682534.0143,671817.3909,672583.9193,673333.8657,674100.1313,674867.0666,675633.5714,676400.4436,677167.0236,682543.6441
Mixed,Female,ball,12,M_greet.wav,None,721.5673402,4391,685650.6273,677933.5634,678700.2439,679467.0765,680233.723,681000.2789,681767.1965,682534.0143,686417.2485,672583.9193,673333.8657,674100.1313,674867.0666,675633.5714,676400.4436,677167.0236,685660.3948
Mixed,Female,ball,12,F_bluff.wav,None,720.5254231,4391,685650.6273,677933.5634,678700.2439,679467.0765,680233.723,681000.2789,681767.1965,682534.0143,686417.2485,687184.0084,673333.8657,674100.1313,674867.0666,675633.5714,676400.4436,677167.0236,686427.2719
Mixed,Female,ball,12,M_depth.wav,None,719.7549613,4391,685650.6273,677933.5634,678700.2439,679467.0765,680233.723,681000.2789,681767.1965,682534.0143,686417.2485,687184.0084,687950.5346,674100.1313,674867.0666,675633.5714,676400.4436,677167.0236,687194.1202
Mixed,Female,ball,12,F_priest.wav,None,719.2754317,4391,685650.6273,677933.5634,678700.2439,679467.0765,680233.723,681000.2789,681767.1965,682534.0143,686417.2485,687184.0084,687950.5346,688700.0411,674867.0666,675633.5714,676400.4436,677167.0236,687960.4276
Mixed,Female,ball,12,M_greet.wav,None,736.1167665,4391,685650.6273,677933.5634,678700.2439,679467.0765,680233.723,681000.2789,681767.1965,682534.0143,686417.2485,687184.0084,687950.5346,688700.0411,689466.4504,675633.5714,676400.4436,677167.0236,688709.342
Mixed,Female,ball,12,F_ball.wav,None,735.9751645,4391,685650.6273,677933.5634,678700.2439,679467.0765,680233.723,681000.2789,681767.1965,682534.0143,686417.2485,687184.0084,687950.5346,688700.0411,689466.4504,690250.2901,676400.4436,677167.0236,689475.2978
Mixed,Female,ball,12,M_park.wav,space,412.5984758,4391,685650.6273,677933.5634,678700.2439,679467.0765,680233.723,681000.2789,681767.1965,682534.0143,686417.2485,687184.0084,687950.5346,688700.0411,689466.4504,690250.2901,691000.2575,677167.0236,690259.8052
Mixed,Female,ball,12,M_greet.wav,None,735.6131217,4391,685650.6273,677933.5634,678700.2439,679467.0765,680233.723,681000.2789,681767.1965,682534.0143,686417.2485,687184.0084,687950.5346,688700.0411,689466.4504,690250.2901,691000.2575,691766.5361,691009.7956
Mixed,Female,ball,12,F_ball.wav,None,735.9331171,4391,685650.6273,692533.2815,678700.2439,679467.0765,680233.723,681000.2789,681767.1965,682534.0143,686417.2485,687184.0084,687950.5346,688700.0411,689466.4504,690250.2901,691000.2575,691766.5361,691775.3343
Mixed,Female,ball,12,M_cad.wav,space,393.6114726,4391,685650.6273,692533.2815,693299.9138,679467.0765,680233.723,681000.2789,681767.1965,682534.0143,686417.2485,687184.0084,687950.5346,688700.0411,689466.4504,690250.2901,691000.2575,691766.5361,692542.8158
Mixed,Female,ball,12,F_ball.wav,None,732.139241,4391,685650.6273,692533.2815,693299.9138,694066.5525,680233.723,681000.2789,681767.1965,682534.0143,686417.2485,687184.0084,687950.5346,688700.0411,689466.4504,690250.2901,691000.2575,691766.5361,693309.2119
Mixed,Female,ball,12,M_greet.wav,space,444.9257255,4391,685650.6273,692533.2815,693299.9138,694066.5525,694833.353,681000.2789,681767.1965,682534.0143,686417.2485,687184.0084,687950.5346,688700.0411,689466.4504,690250.2901,691000.2575,691766.5361,694075.4376
Mixed,Female,ball,12,F_priest.wav,None,728.5147924,4391,685650.6273,692533.2815,693299.9138,694066.5525,694833.353,695600.2486,681767.1965,682534.0143,686417.2485,687184.0084,687950.5346,688700.0411,689466.4504,690250.2901,691000.2575,691766.5361,694843.1828
Mixed,Female,ball,12,F_ball.wav,None,728.0606152,4391,685650.6273,692533.2815,693299.9138,694066.5525,694833.353,695600.2486,696366.6496,682534.0143,686417.2485,687184.0084,687950.5346,688700.0411,689466.4504,690250.2901,691000.2575,691766.5361,695609.4605
Mixed,Female,ball,12,M_reek.wav,space,496.8444137,4391,685650.6273,692533.2815,693299.9138,694066.5525,694833.353,695600.2486,696366.6496,697133.319,686417.2485,687184.0084,687950.5346,688700.0411,689466.4504,690250.2901,691000.2575,691766.5361,696375.48
Mixed,Female,cave,24,M_park.wav,None,728.9578388,4391,700267.1135,692533.2815,693299.9138,694066.5525,694833.353,695600.2486,696366.6496,697133.319,686417.2485,687184.0084,687950.5346,688700.0411,689466.4504,690250.2901,691000.2575,691766.5361,697142.2467
Mixed,Female,cave,24,M_greet.wav,None,719.9447937,4391,700267.1135,692533.2815,693299.9138,694066.5525,694833.353,695600.2486,696366.6496,697133.319,701033.683,687184.0084,687950.5346,688700.0411,689466.4504,690250.2901,691000.2575,691766.5361,700277.5812
Mixed,Female,cave,24,F_cave.wav,None,719.8616257,4391,700267.1135,692533.2815,693299.9138,694066.5525,694833.353,695600.2486,696366.6496,697133.319,701033.683,701800.3771,687950.5346,688700.0411,689466.4504,690250.2901,691000.2575,691766.5361,701043.4993
Mixed,Female,cave,24,M_cling.wav,space,621.9436973,4391,700267.1135,692533.2815,693299.9138,694066.5525,694833.353,695600.2486,696366.6496,697133.319,701033.683,701800.3771,702549.7679,688700.0411,689466.4504,690250.2901,691000.2575,691766.5361,701810.2988
Mixed,Female,cave,24,M_park.wav,None,734.5823348,4391,700267.1135,692533.2815,693299.9138,694066.5525,694833.353,695600.2486,696366.6496,697133.319,701033.683,701800.3771,702549.7679,703316.6574,689466.4504,690250.2901,691000.2575,691766.5361,702559.0397
Mixed,Female,cave,24,M_lash.wav,None,733.3175037,4391,700267.1135,692533.2815,693299.9138,694066.5525,694833.353,695600.2486,696366.6496,697133.319,701033.683,701800.3771,702549.7679,703316.6574,704083.1876,690250.2901,691000.2575,691766.5361,703326.2192
Mixed,Female,cave,24,F_jaw.wav,None,732.7133771,4391,700267.1135,692533.2815,693299.9138,694066.5525,694833.353,695600.2486,696366.6496,697133.319,701033.683,701800.3771,702549.7679,703316.6574,704083.1876,704850.0326,691000.2575,691766.5361,704092.5862
Mixed,Female,cave,24,M_bluff.wav,None,731.1375169,4391,700267.1135,692533.2815,693299.9138,694066.5525,694833.353,695600.2486,696366.6496,697133.319,701033.683,701800.3771,702549.7679,703316.6574,704083.1876,704850.0326,705616.6482,691766.5361,704860.0229
Mixed,Female,cave,24,F_cave.wav,None,730.8954331,4391,700267.1135,692533.2815,693299.9138,694066.5525,694833.353,695600.2486,696366.6496,697133.319,701033.683,701800.3771,702549.7679,703316.6574,704083.1876,704850.0326,705616.6482,706383.1636,705626.1129
Mixed,Female,cave,24,F_romp.wav,space,503.45363,4391,700267.1135,707149.8824,693299.9138,694066.5525,694833.353,695600.2486,696366.6496,697133.319,701033.683,701800.3771,702549.7679,703316.6574,704083.1876,704850.0326,705616.6482,706383.1636,706392.7721
Mixed,Female,cave,24,F_priest.wav,None,727.6738388,4391,700267.1135,707149.8824,707916.3396,694066.5525,694833.353,695600.2486,696366.6496,697133.319,701033.683,701800.3771,702549.7679,703316.6574,704083.1876,704850.0326,705616.6482,706383.1636,707159.4498
Mixed,Female,cave,24,F_jaw.wav,None,727.2907719,4391,700267.1135,707149.8824,707916.3396,708683.2195,694833.353,695600.2486,696366.6496,697133.319,701033.683,701800.3771,702549.7679,703316.6574,704083.1876,704850.0326,705616.6482,706383.1636,707925.6798
Mixed,Female,cave,24,F_cave.wav,None,726.3712883,4391,700267.1135,707149.8824,707916.3396,708683.2195,709449.7943,695600.2486,696366.6496,697133.319,701033.683,701800.3771,702549.7679,703316.6574,704083.1876,704850.0326,705616.6482,706383.1636,708692.5152
Mixed,Female,cave,24,M_cad.wav,space,468.7070926,4391,700267.1135,707149.8824,707916.3396,708683.2195,709449.7943,710216.8359,696366.6496,697133.319,701033.683,701800.3771,702549.7679,703316.6574,704083.1876,704850.0326,705616.6482,706383.1636,709459.4127
Mixed,Female,cave,24,F_cave.wav,None,722.4008734,4391,700267.1135,707149.8824,707916.3396,708683.2195,709449.7943,710216.8359,710983.7238,697133.319,701033.683,701800.3771,702549.7679,703316.6574,704083.1876,704850.0326,705616.6482,706383.1636,710226.9159
Mixed,Female,cave,24,M_romp.wav,space,523.7917244,4391,700267.1135,707149.8824,707916.3396,708683.2195,709449.7943,710216.8359,710983.7238,711750.217,701033.683,701800.3771,702549.7679,703316.6574,704083.1876,704850.0326,705616.6482,706383.1636,710988.3596
Mixed,Male,cave,18,F_depth.wav,None,719.7255897,4391,714866.8072,707149.8824,707916.3396,708683.2195,709449.7943,710216.8359,710983.7238,711750.217,701033.683,701800.3771,702549.7679,703316.6574,704083.1876,704850.0326,705616.6482,706383.1636,711760.0005
Mixed,Male,cave,18,M_cave.wav,None,720.6200305,4391,714866.8072,707149.8824,707916.3396,708683.2195,709449.7943,710216.8359,710983.7238,711750.217,715633.4017,701800.3771,702549.7679,703316.6574,704083.1876,704850.0326,705616.6482,706383.1636,714876.659
Mixed,Male,cave,18,F_jolt.wav,space,484.9606869,4391,714866.8072,707149.8824,707916.3396,708683.2195,709449.7943,710216.8359,710983.7238,711750.217,715633.4017,716382.9035,702549.7679,703316.6574,704083.1876,704850.0326,705616.6482,706383.1636,715643.1011
Mixed,Male,cave,18,M_cave.wav,None,735.1923357,4391,714866.8072,707149.8824,707916.3396,708683.2195,709449.7943,710216.8359,710983.7238,711750.217,715633.4017,716382.9035,717149.6929,703316.6574,704083.1876,704850.0326,705616.6482,706383.1636,716392.4307
Mixed,Male,cave,18,M_depth.wav,space,416.904035,4391,714866.8072,707149.8824,707916.3396,708683.2195,709449.7943,710216.8359,710983.7238,711750.217,715633.4017,716382.9035,717149.6929,717916.4618,704083.1876,704850.0326,705616.6482,706383.1636,717159.1156
Mixed,Male,cave,18,F_cad.wav,None,731.5712878,4391,714866.8072,707149.8824,707916.3396,708683.2195,709449.7943,710216.8359,710983.7238,711750.217,715633.4017,716382.9035,717149.6929,717916.4618,718682.9759,704850.0326,705616.6482,706383.1636,717926.5569
Mixed,Male,cave,18,M_cave.wav,None,731.606843,4391,714866.8072,707149.8824,707916.3396,708683.2195,709449.7943,710216.8359,710983.7238,711750.217,715633.4017,716382.9035,717149.6929,717916.4618,718682.9759,719449.4919,705616.6482,706383.1636,718692.4388
Mixed,Male,cave,18,M_park.wav,space,485.0642602,4391,714866.8072,707149.8824,707916.3396,708683.2195,709449.7943,710216.8359,710983.7238,711750.217,715633.4017,716382.9035,717149.6929,717916.4618,718682.9759,719449.4919,720216.2522,706383.1636,719458.9233
Mixed,Male,cave,18,F_priest.wav,None,729.1204641,4391,714866.8072,707149.8824,707916.3396,708683.2195,709449.7943,710216.8359,710983.7238,711750.217,715633.4017,716382.9035,717149.6929,717916.4618,718682.9759,719449.4919,720216.2522,720982.7737,720225.4374
Mixed,Male,cave,18,M_jaw.wav,None,728.7571849,4391,714866.8072,721749.7186,707916.3396,708683.2195,709449.7943,710216.8359,710983.7238,711750.217,715633.4017,716382.9035,717149.6929,717916.4618,718682.9759,719449.4919,720216.2522,720982.7737,720991.7775
Mixed,Male,cave,18,F_cad.wav,None,727.4227892,4391,714866.8072,721749.7186,722516.3904,708683.2195,709449.7943,710216.8359,710983.7238,711750.217,715633.4017,716382.9035,717149.6929,717916.4618,718682.9759,719449.4919,720216.2522,720982.7737,721759.0927
Mixed,Male,cave,18,M_cave.wav,None,727.0041672,4391,714866.8072,721749.7186,722516.3904,723282.7336,709449.7943,710216.8359,710983.7238,711750.217,715633.4017,716382.9035,717149.6929,717916.4618,718682.9759,719449.4919,720216.2522,720982.7737,722526.2846
Mixed,Male,cave,18,F_lash.wav,space,428.0911931,4391,714866.8072,721749.7186,722516.3904,723282.7336,724049.4088,710216.8359,710983.7238,711750.217,715633.4017,716382.9035,717149.6929,717916.4618,718682.9759,719449.4919,720216.2522,720982.7737,723291.8564
Mixed,Male,cave,18,F_reek.wav,None,724.9339372,4391,714866.8072,721749.7186,722516.3904,723282.7336,724049.4088,724816.4878,710983.7238,711750.217,715633.4017,716382.9035,717149.6929,717916.4618,718682.9759,719449.4919,720216.2522,720982.7737,724058.8649
Mixed,Male,cave,18,M_park.wav,None,723.9232468,4391,714866.8072,721749.7186,722516.3904,723282.7336,724049.4088,724816.4878,725583.0582,711750.217,715633.4017,716382.9035,717149.6929,717916.4618,718682.9759,719449.4919,720216.2522,720982.7737,724825.7612
Mixed,Male,cave,18,F_depth.wav,None,722.7307623,4391,714866.8072,721749.7186,722516.3904,723282.7336,724049.4088,724816.4878,725583.0582,726350.0878,715633.4017,716382.9035,717149.6929,717916.4618,718682.9759,719449.4919,720216.2522,720982.7737,725592.9391
Mixed,Female,done,44,M_park.wav,None,721.7713948,4391,729483.1307,721749.7186,722516.3904,723282.7336,724049.4088,724816.4878,725583.0582,726350.0878,715633.4017,716382.9035,717149.6929,717916.4618,718682.9759,719449.4919,720216.2522,720982.7737,726359.8781
Mixed,Female,done,44,M_romp.wav,None,721.5469345,4391,729483.1307,721749.7186,722516.3904,723282.7336,724049.4088,724816.4878,725583.0582,726350.0878,730249.6965,716382.9035,717149.6929,717916.4618,718682.9759,719449.4919,720216.2522,720982.7737,729492.7741
Mixed,Female,done,44,F_done.wav,None,721.1895287,4391,729483.1307,721749.7186,722516.3904,723282.7336,724049.4088,724816.4878,725583.0582,726350.0878,730249.6965,731016.3235,717149.6929,717916.4618,718682.9759,719449.4919,720216.2522,720982.7737,730259.2951
Mixed,Female,done,44,M_depth.wav,space,421.98253,4391,729483.1307,721749.7186,722516.3904,723282.7336,724049.4088,724816.4878,725583.0582,726350.0878,730249.6965,731016.3235,731782.8491,717916.4618,718682.9759,719449.4919,720216.2522,720982.7737,731025.8655
Mixed,Female,done,44,F_done.wav,None,722.2892614,4391,729483.1307,721749.7186,722516.3904,723282.7336,724049.4088,724816.4878,725583.0582,726350.0878,730249.6965,731016.3235,731782.8491,732549.9083,718682.9759,719449.4919,720216.2522,720982.7737,731792.6134
Mixed,Female,done,44,F_jolt.wav,space,423.7791412,4391,729483.1307,721749.7186,722516.3904,723282.7336,724049.4088,724816.4878,725583.0582,726350.0878,730249.6965,731016.3235,731782.8491,732549.9083,733316.6654,719449.4919,720216.2522,720982.7737,732560.0572
Mixed,Female,done,44,M_lash.wav,None,718.7000588,4391,729483.1307,721749.7186,722516.3904,723282.7336,724049.4088,724816.4878,725583.0582,726350.0878,730249.6965,731016.3235,731782.8491,732549.9083,733316.6654,734066.1206,720216.2522,720982.7737,733326.6379
Mixed,Female,done,44,F_done.wav,None,735.6363097,4391,729483.1307,721749.7186,722516.3904,723282.7336,724049.4088,724816.4878,725583.0582,726350.0878,730249.6965,731016.3235,731782.8491,732549.9083,733316.6654,734066.1206,734832.5531,720982.7737,734075.7118
Mixed,Female,done,44,F_lash.wav,space,390.0992544,4391,729483.1307,721749.7186,722516.3904,723282.7336,724049.4088,724816.4878,725583.0582,726350.0878,730249.6965,731016.3235,731782.8491,732549.9083,733316.6654,734066.1206,734832.5531,735599.5799,734841.6926
Mixed,Female,done,44,F_jolt.wav,None,732.5668288,4391,729483.1307,736366.1379,722516.3904,723282.7336,724049.4088,724816.4878,725583.0582,726350.0878,730249.6965,731016.3235,731782.8491,732549.9083,733316.6654,734066.1206,734832.5531,735599.5799,735609.3878
Mixed,Female,done,44,M_greet.wav,None,732.2323024,4391,729483.1307,736366.1379,737132.8583,723282.7336,724049.4088,724816.4878,725583.0582,726350.0878,730249.6965,731016.3235,731782.8491,732549.9083,733316.6654,734066.1206,734832.5531,735599.5799,736375.6664
Mixed,Female,done,44,F_gnash.wav,None,731.7230925,4391,729483.1307,736366.1379,737132.8583,737899.5172,724049.4088,724816.4878,725583.0582,726350.0878,730249.6965,731016.3235,731782.8491,732549.9083,733316.6654,734066.1206,734832.5531,735599.5799,737142.2254
Mixed,Female,done,44,M_jaw.wav,None,731.0997974,4391,729483.1307,736366.1379,737132.8583,737899.5172,738665.9222,724816.4878,725583.0582,726350.0878,730249.6965,731016.3235,731782.8491,732549.9083,733316.6654,734066.1206,734832.5531,735599.5799,737908.9989
Mixed,Female,done,44,F_done.wav,None,731.0855752,4391,729483.1307,736366.1379,737132.8583,737899.5172,738665.9222,739432.5303,725583.0582,726350.0878,730249.6965,731016.3235,731782.8491,732549.9083,733316.6654,734066.1206,734832.5531,735599.5799,738675.3579
Mixed,Female,done,44,M_romp.wav,space,422.0650792,4391,729483.1307,736366.1379,737132.8583,737899.5172,738665.9222,739432.5303,740199.481,726350.0878,730249.6965,731016.3235,731782.8491,732549.9083,733316.6654,734066.1206,734832.5531,735599.5799,739441.6293
Mixed,Female,done,44,M_dime.wav,None,728.4795465,4391,729483.1307,736366.1379,737132.8583,737899.5172,738665.9222,739432.5303,740199.481,740965.8622,730249.6965,731016.3235,731782.8491,732549.9083,733316.6654,734066.1206,734832.5531,735599.5799,740208.8107
Mixed,Male,done,41,F_bluff.wav,None,728.725649,4391,744099.7368,736366.1379,737132.8583,737899.5172,738665.9222,739432.5303,740199.481,740965.8622,730249.6965,731016.3235,731782.8491,732549.9083,733316.6654,734066.1206,734832.5531,735599.5799,740974.7241
Mixed,Male,done,41,M_cling.wav,None,721.6115515,4391,744099.7368,736366.1379,737132.8583,737899.5172,738665.9222,739432.5303,740199.481,740965.8622,744866.1604,731016.3235,731782.8491,732549.9083,733316.6654,734066.1206,734832.5531,735599.5799,744109.431
Mixed,Male,done,41,M_jaw.wav,None,721.770158,4391,744099.7368,736366.1379,737132.8583,737899.5172,738665.9222,739432.5303,740199.481,740965.8622,744866.1604,745632.8711,731782.8491,732549.9083,733316.6654,734066.1206,734832.5531,735599.5799,744875.4637
Mixed,Male,done,41,F_priest.wav,None,720.5365533,4391,744099.7368,736366.1379,737132.8583,737899.5172,738665.9222,739432.5303,740199.481,740965.8622,744866.1604,745632.8711,746399.7282,732549.9083,733316.6654,734066.1206,734832.5531,735599.5799,745642.9295
Mixed,Male,done,41,M_done.wav,None,720.1163853,4391,744099.7368,736366.1379,737132.8583,737899.5172,738665.9222,739432.5303,740199.481,740965.8622,744866.1604,745632.8711,746399.7282,747166.4238,733316.6654,734066.1206,734832.5531,735599.5799,746409.4696
Mixed,Male,done,41,F_jolt.wav,space,639.2277698,4391,744099.7368,736366.1379,737132.8583,737899.5172,738665.9222,739432.5303,740199.481,740965.8622,744866.1604,745632.8711,746399.7282,747166.4238,747915.8511,734066.1206,734832.5531,735599.5799,747176.3866
Mixed,Male,done,41,F_priest.wav,None,735.128955,4391,744099.7368,736366.1379,737132.8583,737899.5172,738665.9222,739432.5303,740199.481,740965.8622,744866.1604,745632.8711,746399.7282,747166.4238,747915.8511,748682.4466,734832.5531,735599.5799,747925.1761
Mixed,Male,done,41,M_done.wav,None,734.3683862,4391,744099.7368,736366.1379,737132.8583,737899.5172,738665.9222,739432.5303,740199.481,740965.8622,744866.1604,745632.8711,746399.7282,747166.4238,747915.8511,748682.4466,749448.9246,735599.5799,748692.0233
Mixed,Male,done,41,M_romp.wav,space,509.1702603,4391,744099.7368,736366.1379,737132.8583,737899.5172,738665.9222,739432.5303,740199.481,740965.8622,744866.1604,745632.8711,746399.7282,747166.4238,747915.8511,748682.4466,749448.9246,750215.8073,749458.4258
Mixed,Male,done,41,M_done.wav,None,732.5458052,4391,744099.7368,750982.5981,737132.8583,737899.5172,738665.9222,739432.5303,740199.481,740965.8622,744866.1604,745632.8711,746399.7282,747166.4238,747915.8511,748682.4466,749448.9246,750215.8073,750224.9437
Mixed,Male,done,41,F_gnash.wav,space,631.4647156,4391,744099.7368,750982.5981,751749.2353,737899.5172,738665.9222,739432.5303,740199.481,740965.8622,744866.1604,745632.8711,746399.7282,747166.4238,747915.8511,748682.4466,749448.9246,750215.8073,750992.0493
Mixed,Male,done,41,F_park.wav,None,729.7069682,4391,744099.7368,750982.5981,751749.2353,752515.8871,738665.9222,739432.5303,740199.481,740965.8622,744866.1604,745632.8711,746399.7282,747166.4238,747915.8511,748682.4466,749448.9246,750215.8073,751758.4243
Mixed,Male,done,41,M_reek.wav,None,728.9062068,4391,744099.7368,750982.5981,751749.2353,752515.8871,753282.6319,739432.5303,740199.481,740965.8622,744866.1604,745632.8711,746399.7282,747166.4238,747915.8511,748682.4466,749448.9246,750215.8073,752525.4034
Mixed,Male,done,41,F_cling.wav,None,728.0531954,4391,744099.7368,750982.5981,751749.2353,752515.8871,753282.6319,754049.3046,740199.481,740965.8622,744866.1604,745632.8711,746399.7282,747166.4238,747915.8511,748682.4466,749448.9246,750215.8073,753292.4216
Mixed,Male,done,41,M_done.wav,None,727.8645993,4391,744099.7368,750982.5981,751749.2353,752515.8871,753282.6319,754049.3046,754815.8308,740965.8622,744866.1604,745632.8711,746399.7282,747166.4238,747915.8511,748682.4466,749448.9246,750215.8073,754058.7765
Mixed,Male,done,41,F_depth.wav,space,510.0872703,4391,744099.7368,750982.5981,751749.2353,752515.8871,753282.6319,754049.3046,754815.8308,755582.3629,744866.1604,745632.8711,746399.7282,747166.4238,747915.8511,748682.4466,749448.9246,750215.8073,754825.3831
Mixed,Female,tile,33,M_cling.wav,None,725.4833397,4391,758716.1995,750982.5981,751749.2353,752515.8871,753282.6319,754049.3046,754815.8308,755582.3629,744866.1604,745632.8711,746399.7282,747166.4238,747915.8511,748682.4466,749448.9246,750215.8073,755591.7575
Mixed,Female,tile,33,M_depth.wav,None,720.6147742,4391,758716.1995,750982.5981,751749.2353,752515.8871,753282.6319,754049.3046,754815.8308,755582.3629,759482.6669,745632.8711,746399.7282,747166.4238,747915.8511,748682.4466,749448.9246,750215.8073,758726.3005
Mixed,Female,tile,33,M_dime.wav,None,720.8874659,4391,758716.1995,750982.5981,751749.2353,752515.8871,753282.6319,754049.3046,754815.8308,755582.3629,759482.6669,760248.866,746399.7282,747166.4238,747915.8511,748682.4466,749448.9246,750215.8073,759492.2686
Mixed,Female,tile,33,M_gnash.wav,None,724.9020925,4391,758716.1995,750982.5981,751749.2353,752515.8871,753282.6319,754049.3046,754815.8308,755582.3629,759482.6669,760248.866,761016.2749,747166.4238,747915.8511,748682.4466,749448.9246,750215.8073,760257.8661
Mixed,Female,tile,33,F_tile.wav,None,722.9747004,4391,758716.1995,750982.5981,751749.2353,752515.8871,753282.6319,754049.3046,754815.8308,755582.3629,759482.6669,760248.866,761016.2749,761782.6391,747915.8511,748682.4466,749448.9246,750215.8073,761026.0127
Mixed,Female,tile,33,M_priest.wav,space,551.1103529,4391,758716.1995,750982.5981,751749.2353,752515.8871,753282.6319,754049.3046,754815.8308,755582.3629,759482.6669,760248.866,761016.2749,761782.6391,762549.7228,748682.4466,749448.9246,750215.8073,761792.2826
Mixed,Female,tile,33,F_tile.wav,None,720.4570957,4391,758716.1995,750982.5981,751749.2353,752515.8871,753282.6319,754049.3046,754815.8308,755582.3629,759482.6669,760248.866,761016.2749,761782.6391,762549.7228,763316.1099,749448.9246,750215.8073,762559.5604
Mixed,Female,tile,33,M_jaw.wav,space,481.0035671,4391,758716.1995,750982.5981,751749.2353,752515.8871,753282.6319,754049.3046,754815.8308,755582.3629,759482.6669,760248.866,761016.2749,761782.6391,762549.7228,763316.1099,764082.8098,750215.8073,763326.3621
Mixed,Female,tile,33,F_tile.wav,None,718.5494909,4391,758716.1995,750982.5981,751749.2353,752515.8871,753282.6319,754049.3046,754815.8308,755582.3629,759482.6669,760248.866,761016.2749,761782.6391,762549.7228,763316.1099,764082.8098,764832.1611,764092.1923
Mixed,Female,tile,33,F_park.wav,space,622.1261104,4391,758716.1995,765599.0592,751749.2353,752515.8871,753282.6319,754049.3046,754815.8308,755582.3629,759482.6669,760248.866,761016.2749,761782.6391,762549.7228,763316.1099,764082.8098,764832.1611,764841.1865
Mixed,Female,tile,33,M_reek.wav,None,733.4170579,4391,758716.1995,765599.0592,766365.4704,752515.8871,753282.6319,754049.3046,754815.8308,755582.3629,759482.6669,760248.866,761016.2749,761782.6391,762549.7228,763316.1099,764082.8098,764832.1611,765608.3765
Mixed,Female,tile,33,F_knife.wav,None,733.3644978,4391,758716.1995,765599.0592,766365.4704,767132.1967,753282.6319,754049.3046,754815.8308,755582.3629,759482.6669,760248.866,761016.2749,761782.6391,762549.7228,763316.1099,764082.8098,764832.1611,766374.7812
Mixed,Female,tile,33,F_tile.wav,None,733.2834941,4391,758716.1995,765599.0592,766365.4704,767132.1967,767899.0259,754049.3046,754815.8308,755582.3629,759482.6669,760248.866,761016.2749,761782.6391,762549.7228,763316.1099,764082.8098,764832.1611,767141.1352
Mixed,Female,tile,33,M_bluff.wav,space,475.1743972,4391,758716.1995,765599.0592,766365.4704,767132.1967,767899.0259,768665.6878,754815.8308,755582.3629,759482.6669,760248.866,761016.2749,761782.6391,762549.7228,763316.1099,764082.8098,764832.1611,767908.0844
Mixed,Female,tile,33,F_jaw.wav,None,730.3794217,4391,758716.1995,765599.0592,766365.4704,767132.1967,767899.0259,768665.6878,769432.2094,755582.3629,759482.6669,760248.866,761016.2749,761782.6391,762549.7228,763316.1099,764082.8098,764832.1611,768675.1977
Mixed,Female,tile,33,F_dime.wav,None,730.0912715,4391,758716.1995,765599.0592,766365.4704,767132.1967,767899.0259,768665.6878,769432.2094,770198.8206,759482.6669,760248.866,761016.2749,761782.6391,762549.7228,763316.1099,764082.8098,764832.1611,769441.7143
Mixed,Female,done,48,M_cling.wav,None,729.7261367,4391,773332.429,765599.0592,766365.4704,767132.1967,767899.0259,768665.6878,769432.2094,770198.8206,759482.6669,760248.866,761016.2749,761782.6391,762549.7228,763316.1099,764082.8098,764832.1611,770208.5145
Mixed,Female,done,48,F_done.wav,None,720.803061,4391,773332.429,765599.0592,766365.4704,767132.1967,767899.0259,768665.6878,769432.2094,770198.8206,774099.2576,760248.866,761016.2749,761782.6391,762549.7228,763316.1099,764082.8098,764832.1611,773342.6778
Mixed,Female,done,48,M_cad.wav,space,410.169913,4391,773332.429,765599.0592,766365.4704,767132.1967,767899.0259,768665.6878,769432.2094,770198.8206,774099.2576,774849.0708,761016.2749,761782.6391,762549.7228,763316.1099,764082.8098,764832.1611,774109.017
Mixed,Female,done,48,M_gnash.wav,None,736.206736,4391,773332.429,765599.0592,766365.4704,767132.1967,767899.0259,768665.6878,769432.2094,770198.8206,774099.2576,774849.0708,775615.4028,761782.6391,762549.7228,763316.1099,764082.8098,764832.1611,774858.1265
Mixed,Female,done,48,F_jolt.wav,None,736.0175219,4391,773332.429,765599.0592,766365.4704,767132.1967,767899.0259,768665.6878,769432.2094,770198.8206,774099.2576,774849.0708,775615.4028,776381.7921,762549.7228,763316.1099,764082.8098,764832.1611,775624.6669
Mixed,Female,done,48,F_done.wav,None,735.4668821,4391,773332.429,765599.0592,766365.4704,767132.1967,767899.0259,768665.6878,769432.2094,770198.8206,774099.2576,774849.0708,775615.4028,776381.7921,777148.8977,763316.1099,764082.8098,764832.1611,776391.493
Mixed,Female,done,48,M_gnash.wav,space,417.203316,4391,773332.429,765599.0592,766365.4704,767132.1967,767899.0259,768665.6878,769432.2094,770198.8206,774099.2576,774849.0708,775615.4028,776381.7921,777148.8977,777915.5364,764082.8098,764832.1611,777157.9602
Mixed,Female,done,48,F_done.wav,None,732.7566617,4391,773332.429,765599.0592,766365.4704,767132.1967,767899.0259,768665.6878,769432.2094,770198.8206,774099.2576,774849.0708,775615.4028,776381.7921,777148.8977,777915.5364,778682.0506,764832.1611,777925.0225
Mixed,Female,done,48,F_depth.wav,space,484.1048927,4391,773332.429,765599.0592,766365.4704,767132.1967,767899.0259,768665.6878,769432.2094,770198.8206,774099.2576,774849.0708,775615.4028,776381.7921,777148.8977,777915.5364,778682.0506,779448.6442,778691.024
Mixed,Female,done,48,F_depth.wav,None,730.4523867,4391,773332.429,780215.4978,766365.4704,767132.1967,767899.0259,768665.6878,769432.2094,770198.8206,774099.2576,774849.0708,775615.4028,776381.7921,777148.8977,777915.5364,778682.0506,779448.6442,779457.9593
Mixed,Female,done,48,F_done.wav,None,729.2122892,4391,773332.429,780215.4978,780981.9795,767132.1967,767899.0259,768665.6878,769432.2094,770198.8206,774099.2576,774849.0708,775615.4028,776381.7921,777148.8977,777915.5364,778682.0506,779448.6442,780225.4625
Mixed,Female,done,48,M_bluff.wav,space,664.0940285,4391,773332.429,780215.4978,780981.9795,781748.9082,767899.0259,768665.6878,769432.2094,770198.8206,774099.2576,774849.0708,775615.4028,776381.7921,777148.8977,777915.5364,778682.0506,779448.6442,780990.9984
Mixed,Female,done,48,F_greet.wav,None,727.5161599,4391,773332.429,780215.4978,780981.9795,781748.9082,782515.4471,768665.6878,769432.2094,770198.8206,774099.2576,774849.0708,775615.4028,776381.7921,777148.8977,777915.5364,778682.0506,779448.6442,781757.9219
Mixed,Female,done,48,M_cad.wav,None,726.9333666,4391,773332.429,780215.4978,780981.9795,781748.9082,782515.4471,783281.9733,769432.2094,770198.8206,774099.2576,774849.0708,775615.4028,776381.7921,777148.8977,777915.5364,778682.0506,779448.6442,782524.9827
Mixed,Female,done,48,M_cad.wav,None,726.8437059,4391,773332.429,780215.4978,780981.9795,781748.9082,782515.4471,783281.9733,784048.8044,770198.8206,774099.2576,774849.0708,775615.4028,776381.7921,777148.8977,777915.5364,778682.0506,779448.6442,783291.4297
Mixed,Female,done,48,M_cling.wav,None,726.3845825,4391,773332.429,780215.4978,780981.9795,781748.9082,782515.4471,783281.9733,784048.8044,784815.2041,774099.2576,774849.0708,775615.4028,776381.7921,777148.8977,777915.5364,778682.0506,779448.6442,784058.1656
Mixed,Male,cave,14,M_cad.wav,None,726.4272487,4391,787949.1031,780215.4978,780981.9795,781748.9082,782515.4471,783281.9733,784048.8044,784815.2041,774099.2576,774849.0708,775615.4028,776381.7921,777148.8977,777915.5364,778682.0506,779448.6442,784824.4549
Mixed,Male,cave,14,M_cave.wav,None,720.5180028,4391,787949.1031,780215.4978,780981.9795,781748.9082,782515.4471,783281.9733,784048.8044,784815.2041,788715.8114,774849.0708,775615.4028,776381.7921,777148.8977,777915.5364,778682.0506,779448.6442,787958.7852
Mixed,Male,cave,14,F_gnash.wav,space,513.5809383,4391,787949.1031,780215.4978,780981.9795,781748.9082,782515.4471,783281.9733,784048.8044,784815.2041,788715.8114,789465.2901,775615.4028,776381.7921,777148.8977,777915.5364,778682.0506,779448.6442,788725.3773
Mixed,Male,cave,14,F_jolt.wav,None,735.5899336,4391,787949.1031,780215.4978,780981.9795,781748.9082,782515.4471,783281.9733,784048.8044,784815.2041,788715.8114,789465.2901,790231.8148,776381.7921,777148.8977,777915.5364,778682.0506,779448.6442,789474.4757
Mixed,Male,cave,14,F_park.wav,None,734.4784527,4391,787949.1031,780215.4978,780981.9795,781748.9082,782515.4471,783281.9733,784048.8044,784815.2041,788715.8114,789465.2901,790231.8148,790998.5184,777148.8977,777915.5364,778682.0506,779448.6442,790241.8169
Mixed,Male,cave,14,M_jaw.wav,None,734.75269,4391,787949.1031,780215.4978,780981.9795,781748.9082,782515.4471,783281.9733,784048.8044,784815.2041,788715.8114,789465.2901,790231.8148,790998.5184,791781.6677,777915.5364,778682.0506,779448.6442,791007.8731
Mixed,Male,cave,14,F_depth.wav,None,724.1891366,4391,787949.1031,780215.4978,780981.9795,781748.9082,782515.4471,783281.9733,784048.8044,784815.2041,788715.8114,789465.2901,790231.8148,790998.5184,791781.6677,792549.0219,778682.0506,779448.6442,791790.421
Mixed,Male,cave,14,M_cling.wav,None,722.1281817,4391,787949.1031,780215.4978,780981.9795,781748.9082,782515.4471,783281.9733,784048.8044,784815.2041,788715.8114,789465.2901,790231.8148,790998.5184,791781.6677,792549.0219,793315.6507,779448.6442,792558.8264
Mixed,Male,cave,14,F_depth.wav,None,721.6134067,4391,787949.1031,780215.4978,780981.9795,781748.9082,782515.4471,783281.9733,784048.8044,784815.2041,788715.8114,789465.2901,790231.8148,790998.5184,791781.6677,792549.0219,793315.6507,794082.1769,793325.7202
Mixed,Male,cave,14,M_cave.wav,None,721.4563461,4391,787949.1031,794848.5331,780981.9795,781748.9082,782515.4471,783281.9733,784048.8044,784815.2041,788715.8114,789465.2901,790231.8148,790998.5184,791781.6677,792549.0219,793315.6507,794082.1769,794092.1858
Mixed,Male,cave,14,F_depth.wav,space,541.1410322,4391,787949.1031,794848.5331,795615.1963,781748.9082,782515.4471,783281.9733,784048.8044,784815.2041,788715.8114,789465.2901,790231.8148,790998.5184,791781.6677,792549.0219,793315.6507,794082.1769,794857.7527
Mixed,Male,cave,14,M_cave.wav,None,720.1769836,4391,787949.1031,794848.5331,795615.1963,796381.9998,782515.4471,783281.9733,784048.8044,784815.2041,788715.8114,789465.2901,790231.8148,790998.5184,791781.6677,792549.0219,793315.6507,794082.1769,795624.4044
Mixed,Male,cave,14,F_depth.wav,space,454.6186444,4391,787949.1031,794848.5331,795615.1963,796381.9998,797131.6998,783281.9733,784048.8044,784815.2041,788715.8114,789465.2901,790231.8148,790998.5184,791781.6677,792549.0219,793315.6507,794082.1769,796392.2313
Mixed,Male,cave,14,M_cave.wav,None,734.6515898,4391,787949.1031,794848.5331,795615.1963,796381.9998,797131.6998,797898.4638,784048.8044,784815.2041,788715.8114,789465.2901,790231.8148,790998.5184,791781.6677,792549.0219,793315.6507,794082.1769,797140.7438
Mixed,Male,cave,14,M_greet.wav,space,386.6788605,4391,787949.1031,794848.5331,795615.1963,796381.9998,797131.6998,797898.4638,798665.2472,784815.2041,788715.8114,789465.2901,790231.8148,790998.5184,791781.6677,792549.0219,793315.6507,794082.1769,797908.1539
Mixed,Male,cave,14,F_knife.wav,None,731.6655861,4391,787949.1031,794848.5331,795615.1963,796381.9998,797131.6998,797898.4638,798665.2472,799431.7348,788715.8114,789465.2901,790231.8148,790998.5184,791781.6677,792549.0219,793315.6507,794082.1769,798674.644
Mixed,Male,cave,17,F_dime.wav,None,731.4358698,4391,802565.712,794848.5331,795615.1963,796381.9998,797131.6998,797898.4638,798665.2472,799431.7348,788715.8114,789465.2901,790231.8148,790998.5184,791781.6677,792549.0219,793315.6507,794082.1769,799441.2654
Mixed,Male,cave,17,F_jolt.wav,None,720.4827568,4391,802565.712,794848.5331,795615.1963,796381.9998,797131.6998,797898.4638,798665.2472,799431.7348,803332.0654,789465.2901,790231.8148,790998.5184,791781.6677,792549.0219,793315.6507,794082.1769,802575.7293
Mixed,Male,cave,17,M_cave.wav,None,720.8856111,4391,802565.712,794848.5331,795615.1963,796381.9998,797131.6998,797898.4638,798665.2472,799431.7348,803332.0654,804098.6872,790231.8148,790998.5184,791781.6677,792549.0219,793315.6507,794082.1769,803341.8081
Mixed,Male,cave,17,F_park.wav,space,418.9396375,4391,802565.712,794848.5331,795615.1963,796381.9998,797131.6998,797898.4638,798665.2472,799431.7348,803332.0654,804098.6872,804848.385,790998.5184,791781.6677,792549.0219,793315.6507,794082.1769,804107.8208
Mixed,Male,cave,17,M_greet.wav,None,735.4146321,4391,802565.712,794848.5331,795615.1963,796381.9998,797131.6998,797898.4638,798665.2472,799431.7348,803332.0654,804098.6872,804848.385,805614.8049,791781.6677,792549.0219,793315.6507,794082.1769,804858.1283
Mixed,Male,cave,17,F_gnash.wav,None,735.9031271,4391,802565.712,794848.5331,795615.1963,796381.9998,797131.6998,797898.4638,798665.2472,799431.7348,803332.0654,804098.6872,804848.385,805614.8049,806381.3416,792549.0219,793315.6507,794082.1769,805624.1506
Mixed,Male,cave,17,M_cave.wav,None,735.4879058,4391,802565.712,794848.5331,795615.1963,796381.9998,797131.6998,797898.4638,798665.2472,799431.7348,803332.0654,804098.6872,804848.385,805614.8049,806381.3416,807148.1158,793315.6507,794082.1769,806391.0147
Mixed,Male,cave,17,M_greet.wav,space,353.1847876,4391,802565.712,794848.5331,795615.1963,796381.9998,797131.6998,797898.4638,798665.2472,799431.7348,803332.0654,804098.6872,804848.385,805614.8049,806381.3416,807148.1158,807914.8612,794082.1769,807157.4952
Mixed,Male,cave,17,M_cave.wav,None,733.4359176,4391,802565.712,794848.5331,795615.1963,796381.9998,797131.6998,797898.4638,798665.2472,799431.7348,803332.0654,804098.6872,804848.385,805614.8049,806381.3416,807148.1158,807914.8612,808681.6261,807924.0538
Mixed,Male,cave,17,F_reek.wav,space,667.7404284,4391,802565.712,809448.1888,795615.1963,796381.9998,797131.6998,797898.4638,798665.2472,799431.7348,803332.0654,804098.6872,804848.385,805614.8049,806381.3416,807148.1158,807914.8612,808681.6261,808690.96
Mixed,Male,cave,17,F_greet.wav,None,730.6678812,4391,802565.712,809448.1888,810215.034,796381.9998,797131.6998,797898.4638,798665.2472,799431.7348,803332.0654,804098.6872,804848.385,805614.8049,806381.3416,807148.1158,807914.8612,808681.6261,809457.6087
Mixed,Male,cave,17,F_reek.wav,None,730.1472318,4391,802565.712,809448.1888,810215.034,810981.5643,797131.6998,797898.4638,798665.2472,799431.7348,803332.0654,804098.6872,804848.385,805614.8049,806381.3416,807148.1158,807914.8612,808681.6261,810224.5662
Mixed,Male,cave,17,M_gnash.wav,None,730.1373384,4391,802565.712,809448.1888,810215.034,810981.5643,811748.2098,797898.4638,798665.2472,799431.7348,803332.0654,804098.6872,804848.385,805614.8049,806381.3416,807148.1158,807914.8612,808681.6261,810991.1193
Mixed,Male,cave,17,M_cling.wav,None,730.1970087,4391,802565.712,809448.1888,810215.034,810981.5643,811748.2098,812514.7852,798665.2472,799431.7348,803332.0654,804098.6872,804848.385,805614.8049,806381.3416,807148.1158,807914.8612,808681.6261,811757.5549
Mixed,Male,cave,17,M_cave.wav,None,730.4703188,4391,802565.712,809448.1888,810215.034,810981.5643,811748.2098,812514.7852,813281.4975,799431.7348,803332.0654,804098.6872,804848.385,805614.8049,806381.3416,807148.1158,807914.8612,808681.6261,812523.9179
Mixed,Male,cave,17,F_bluff.wav,space,435.768296,4391,802565.712,809448.1888,810215.034,810981.5643,811748.2098,812514.7852,813281.4975,814048.4389,803332.0654,804098.6872,804848.385,805614.8049,806381.3416,807148.1158,807914.8612,808681.6261,813290.8556
Mixed,Male,tile,27,M_priest.wav,None,727.8751107,4391,817182.043,809448.1888,810215.034,810981.5643,811748.2098,812514.7852,813281.4975,814048.4389,803332.0654,804098.6872,804848.385,805614.8049,806381.3416,807148.1158,807914.8612,808681.6261,814057.5036
Mixed,Male,tile,27,F_dime.wav,None,719.7367195,4391,817182.043,809448.1888,810215.034,810981.5643,811748.2098,812514.7852,813281.4975,814048.4389,817948.6208,804098.6872,804848.385,805614.8049,806381.3416,807148.1158,807914.8612,808681.6261,817193.3489
Mixed,Male,tile,27,M_tile.wav,None,721.3258748,4391,817182.043,809448.1888,810215.034,810981.5643,811748.2098,812514.7852,813281.4975,814048.4389,817948.6208,818715.4027,804848.385,805614.8049,806381.3416,807148.1158,807914.8612,808681.6261,817958.4912
Mixed,Male,tile,27,F_reek.wav,space,481.2023658,4391,817182.043,809448.1888,810215.034,810981.5643,811748.2098,812514.7852,813281.4975,814048.4389,817948.6208,818715.4027,819481.7768,805614.8049,806381.3416,807148.1158,807914.8612,808681.6261,818725.3213
Mixed,Male,tile,27,F_priest.wav,None,719.0302568,4391,817182.043,809448.1888,810215.034,810981.5643,811748.2098,812514.7852,813281.4975,814048.4389,817948.6208,818715.4027,819481.7768,820248.6929,806381.3416,807148.1158,807914.8612,808681.6261,819491.9718
Mixed,Male,tile,27,F_reek.wav,None,719.0144886,4391,817182.043,809448.1888,810215.034,810981.5643,811748.2098,812514.7852,813281.4975,814048.4389,817948.6208,818715.4027,819481.7768,820248.6929,821015.1041,807148.1158,807914.8612,808681.6261,820258.6981
Mixed,Male,tile,27,M_tile.wav,None,718.9906822,4391,817182.043,809448.1888,810215.034,810981.5643,811748.2098,812514.7852,813281.4975,814048.4389,817948.6208,818715.4027,819481.7768,820248.6929,821015.1041,821782.1101,807914.8612,808681.6261,821025.3959
Mixed,Male,tile,27,F_lash.wav,space,454.6507983,4391,817182.043,809448.1888,810215.034,810981.5643,811748.2098,812514.7852,813281.4975,814048.4389,817948.6208,818715.4027,819481.7768,820248.6929,821015.1041,821782.1101,822531.4033,808681.6261,821791.8312
Mixed,Male,tile,27,M_jaw.wav,None,734.7261012,4391,817182.043,809448.1888,810215.034,810981.5643,811748.2098,812514.7852,813281.4975,814048.4389,817948.6208,818715.4027,819481.7768,820248.6929,821015.1041,821782.1101,822531.4033,823297.9833,822540.9088
Mixed,Male,tile,27,M_knife.wav,None,735.0362027,4391,817182.043,824064.5766,810215.034,810981.5643,811748.2098,812514.7852,813281.4975,814048.4389,817948.6208,818715.4027,819481.7768,820248.6929,821015.1041,821782.1101,822531.4033,823297.9833,823307.4218
Mixed,Male,tile,27,M_tile.wav,None,736.1739636,4391,817182.043,824064.5766,824830.9674,810981.5643,811748.2098,812514.7852,813281.4975,814048.4389,817948.6208,818715.4027,819481.7768,820248.6929,821015.1041,821782.1101,822531.4033,823297.9833,824073.7179
Mixed,Male,tile,27,M_cling.wav,space,550.1645892,4391,817182.043,824064.5766,824830.9674,825598.2096,811748.2098,812514.7852,813281.4975,814048.4389,817948.6208,818715.4027,819481.7768,820248.6929,821015.1041,821782.1101,822531.4033,823297.9833,824840.2488
Mixed,Male,tile,27,M_tile.wav,None,733.5670069,4391,817182.043,824064.5766,824830.9674,825598.2096,826364.5203,812514.7852,813281.4975,814048.4389,817948.6208,818715.4027,819481.7768,820248.6929,821015.1041,821782.1101,822531.4033,823297.9833,825607.7458
Mixed,Male,tile,27,F_knife.wav,space,368.6153605,4391,817182.043,824064.5766,824830.9674,825598.2096,826364.5203,827131.2852,813281.4975,814048.4389,817948.6208,818715.4027,819481.7768,820248.6929,821015.1041,821782.1101,822531.4033,823297.9833,826373.7977
Mixed,Male,tile,27,F_park.wav,None,732.7412032,4391,817182.043,824064.5766,824830.9674,825598.2096,826364.5203,827131.2852,827898.005,814048.4389,817948.6208,818715.4027,819481.7768,820248.6929,821015.1041,821782.1101,822531.4033,823297.9833,827141.0069
Mixed,Male,tile,27,F_park.wav,None,733.3141025,4391,817182.043,824064.5766,824830.9674,825598.2096,826364.5203,827131.2852,827898.005,828664.7751,817948.6208,818715.4027,819481.7768,820248.6929,821015.1041,821782.1101,822531.4033,823297.9833,827907.3213
Mixed,Male,ball,2,M_lash.wav,None,733.3171945,4391,831798.5214,824064.5766,824830.9674,825598.2096,826364.5203,827131.2852,827898.005,828664.7751,817948.6208,818715.4027,819481.7768,820248.6929,821015.1041,821782.1101,822531.4033,823297.9833,828674.2022
Mixed,Male,ball,2,M_ball.wav,None,721.0819363,4391,831798.5214,824064.5766,824830.9674,825598.2096,826364.5203,827131.2852,827898.005,828664.7751,832565.0962,818715.4027,819481.7768,820248.6929,821015.1041,821782.1101,822531.4033,823297.9833,831808.7226
Mixed,Male,ball,2,F_cling.wav,space,423.072678,4391,831798.5214,824064.5766,824830.9674,825598.2096,826364.5203,827131.2852,827898.005,828664.7751,832565.0962,833331.6684,819481.7768,820248.6929,821015.1041,821782.1101,822531.4033,823297.9833,832575.2575
Mixed,Male,ball,2,F_cling.wav,None,719.2058675,4391,831798.5214,824064.5766,824830.9674,825598.2096,826364.5203,827131.2852,827898.005,828664.7751,832565.0962,833331.6684,834098.3795,820248.6929,821015.1041,821782.1101,822531.4033,823297.9833,833341.8628
Mixed,Male,ball,2,M_ball.wav,None,719.4433133,4391,831798.5214,824064.5766,824830.9674,825598.2096,826364.5203,827131.2852,827898.005,828664.7751,832565.0962,833331.6684,834098.3795,834865.0133,821015.1041,821782.1101,822531.4033,823297.9833,834108.3272
Mixed,Male,ball,2,M_park.wav,space,515.1064037,4391,831798.5214,824064.5766,824830.9674,825598.2096,826364.5203,827131.2852,827898.005,828664.7751,832565.0962,833331.6684,834098.3795,834865.0133,835614.2938,821782.1101,822531.4033,823297.9833,834875.1858
Mixed,Male,ball,2,M_ball.wav,None,735.9597059,4391,831798.5214,824064.5766,824830.9674,825598.2096,826364.5203,827131.2852,827898.005,828664.7751,832565.0962,833331.6684,834098.3795,834865.0133,835614.2938,836380.8429,822531.4033,823297.9833,835623.3316
Mixed,Male,ball,2,M_dime.wav,space,696.1009735,4391,831798.5214,824064.5766,824830.9674,825598.2096,826364.5203,827131.2852,827898.005,828664.7751,832565.0962,833331.6684,834098.3795,834865.0133,835614.2938,836380.8429,837147.9469,823297.9833,836390.1707
Mixed,Male,ball,2,M_ball.wav,None,733.9364705,4391,831798.5214,824064.5766,824830.9674,825598.2096,826364.5203,827131.2852,827898.005,828664.7751,832565.0962,833331.6684,834098.3795,834865.0133,835614.2938,836380.8429,837147.9469,837914.364,837157.4819
Mixed,Male,ball,2,F_knife.wav,space,618.5869938,4391,831798.5214,838681.1048,824830.9674,825598.2096,826364.5203,827131.2852,827898.005,828664.7751,832565.0962,833331.6684,834098.3795,834865.0133,835614.2938,836380.8429,837147.9469,837914.364,837923.6618
Mixed,Male,ball,2,F_reek.wav,None,732.0987391,4391,831798.5214,838681.1048,839447.7259,825598.2096,826364.5203,827131.2852,827898.005,828664.7751,832565.0962,833331.6684,834098.3795,834865.0133,835614.2938,836380.8429,837147.9469,837914.364,838690.5909
Mixed,Male,ball,2,F_gnash.wav,None,732.2010756,4391,831798.5214,838681.1048,839447.7259,840214.5975,826364.5203,827131.2852,827898.005,828664.7751,832565.0962,833331.6684,834098.3795,834865.0133,835614.2938,836380.8429,837147.9469,837914.364,839457.1579
Mixed,Male,ball,2,M_reek.wav,None,731.9320943,4391,831798.5214,838681.1048,839447.7259,840214.5975,840981.3466,827131.2852,827898.005,828664.7751,832565.0962,833331.6684,834098.3795,834865.0133,835614.2938,836380.8429,837147.9469,837914.364,840224.1157
Mixed,Male,ball,2,F_knife.wav,None,731.7017592,4391,831798.5214,838681.1048,839447.7259,840214.5975,840981.3466,841747.7983,827898.005,828664.7751,832565.0962,833331.6684,834098.3795,834865.0133,835614.2938,836380.8429,837147.9469,837914.364,840990.9941
Mixed,Male,ball,2,F_priest.wav,None,732.2768238,4391,831798.5214,838681.1048,839447.7259,840214.5975,840981.3466,841747.7983,842514.3152,828664.7751,832565.0962,833331.6684,834098.3795,834865.0133,835614.2938,836380.8429,837147.9469,837914.364,841757.1137
Mixed,Male,ball,2,F_jaw.wav,None,732.7885064,4391,831798.5214,838681.1048,839447.7259,840214.5975,840981.3466,841747.7983,842514.3152,843281.0044,832565.0962,833331.6684,834098.3795,834865.0133,835614.2938,836380.8429,837147.9469,837914.364,842523.2355
Mixed,Female,cave,21,M_reek.wav,None,731.7506089,4391,865398.1121,838681.1048,839447.7259,840214.5975,840981.3466,841747.7983,842514.3152,843281.0044,832565.0962,833331.6684,834098.3795,834865.0133,835614.2938,836380.8429,837147.9469,837914.364,843290.9041
Mixed,Female,cave,21,M_lash.wav,None,720.2842669,4391,865398.1121,838681.1048,839447.7259,840214.5975,840981.3466,841747.7983,842514.3152,843281.0044,866164.5388,833331.6684,834098.3795,834865.0133,835614.2938,836380.8429,837147.9469,837914.364,865408.0487
Mixed,Female,cave,21,M_knife.wav,None,720.2814845,4391,865398.1121,838681.1048,839447.7259,840214.5975,840981.3466,841747.7983,842514.3152,843281.0044,866164.5388,866930.8996,834098.3795,834865.0133,835614.2938,836380.8429,837147.9469,837914.364,866174.7322
Mixed,Female,cave,21,F_cave.wav,None,720.9625952,4391,865398.1121,838681.1048,839447.7259,840214.5975,840981.3466,841747.7983,842514.3152,843281.0044,866164.5388,866930.8996,867697.9344,834865.0133,835614.2938,836380.8429,837147.9469,837914.364,866940.6754
Mixed,Female,cave,21,F_park.wav,space,434.0492878,4391,865398.1121,838681.1048,839447.7259,840214.5975,840981.3466,841747.7983,842514.3152,843281.0044,866164.5388,866930.8996,867697.9344,868464.5082,835614.2938,836380.8429,837147.9469,837914.364,867707.7587
Mixed,Female,cave,21,M_jaw.wav,None,718.6116348,4391,865398.1121,838681.1048,839447.7259,840214.5975,840981.3466,841747.7983,842514.3152,843281.0044,866164.5388,866930.8996,867697.9344,868464.5082,869231.2298,836380.8429,837147.9469,837914.364,868474.5622
Mixed,Female,cave,21,F_knife.wav,None,718.9829531,4391,865398.1121,838681.1048,839447.7259,840214.5975,840981.3466,841747.7983,842514.3152,843281.0044,866164.5388,866930.8996,867697.9344,868464.5082,869231.2298,869997.5346,837147.9469,837914.364,869241.1036
Mixed,Female,cave,21,F_cave.wav,None,720.2425287,4391,865398.1121,838681.1048,839447.7259,840214.5975,840981.3466,841747.7983,842514.3152,843281.0044,866164.5388,866930.8996,867697.9344,868464.5082,869231.2298,869997.5346,870764.0658,837914.364,870006.8034
