Condition,Talker,Target,Trial,current_stimulus,response_response,response_time_response,subject_nr,time_Audio1,time_Audio10,time_Audio11,time_Audio12,time_Audio13,time_Audio14,time_Audio15,time_Audio16,time_Audio2,time_Audio3,time_Audio4,time_Audio5,time_Audio6,time_Audio7,time_Audio8,time_Audio9,time_response,title
Blocked,Female,ball,4,F_dime.wav,NA,NA,106,699772.3874,NA,NA,NA,NA,NA,NA,NA,NA,NA,NA,NA,NA,NA,NA,NA,NA,Mapping
Blocked,Female,ball,4,F_cave.wav,None,718.8331963,106,699772.3874,NA,NA,NA,NA,NA,NA,NA,700539.0947,NA,NA,NA,NA,NA,NA,NA,699786.8805,Mapping
Blocked,Female,ball,4,F_cave.wav,None,721.5687523,106,699772.3874,NA,NA,NA,NA,NA,NA,NA,700539.0947,701288.8491,NA,NA,NA,NA,NA,NA,700550.2314,Mapping
Blocked,Female,ball,4,F_bluff.wav,None,735.9486625,106,699772.3874,NA,NA,NA,NA,NA,NA,NA,700539.0947,701288.8491,702055.7951,NA,NA,NA,NA,NA,701298.9433,Mapping
Blocked,Female,ball,4,F_ball.wav,None,735.7489374,106,699772.3874,NA,NA,NA,NA,NA,NA,NA,700539.0947,701288.8491,702055.7951,702821.8039,NA,NA,NA,NA,702065.5349,Mapping
Blocked,Female,ball,4,F_jaw.wav,space,366.8273023,106,699772.3874,NA,NA,NA,NA,NA,NA,NA,700539.0947,701288.8491,702055.7951,702821.8039,703588.3087,NA,NA,NA,702831.4177,Mapping
Blocked,Female,ball,4,F_gnash.wav,None,736.0080236,106,699772.3874,NA,NA,NA,NA,NA,NA,NA,700539.0947,701288.8491,702055.7951,702821.8039,703588.3087,704355.0627,NA,NA,703597.5106,Mapping
Blocked,Female,ball,4,F_ball.wav,None,735.6302151,106,699772.3874,NA,NA,NA,NA,NA,NA,NA,700539.0947,701288.8491,702055.7951,702821.8039,703588.3087,704355.0627,705122.3895,NA,704364.9667,Mapping
Blocked,Female,ball,4,F_lash.wav,space,529.3987249,106,699772.3874,NA,NA,NA,NA,NA,NA,NA,700539.0947,701288.8491,702055.7951,702821.8039,703588.3087,704355.0627,705122.3895,705888.4154,705132.7681,Mapping
Blocked,Female,ball,4,F_jolt.wav,None,732.6513405,106,699772.3874,706655.2631,NA,NA,NA,NA,NA,NA,700539.0947,701288.8491,702055.7951,702821.8039,703588.3087,704355.0627,705122.3895,705888.4154,705897.5307,Mapping
Blocked,Female,ball,4,F_ball.wav,None,731.1524735,106,699772.3874,706655.2631,707422.0535,NA,NA,NA,NA,NA,700539.0947,701288.8491,702055.7951,702821.8039,703588.3087,704355.0627,705122.3895,705888.4154,706665.202,Mapping
Blocked,Female,ball,4,F_jaw.wav,space,342.8380096,106,699772.3874,706655.2631,707422.0535,708188.8885,NA,NA,NA,NA,700539.0947,701288.8491,702055.7951,702821.8039,703588.3087,704355.0627,705122.3895,705888.4154,707431.2628,Mapping
Blocked,Female,ball,4,F_priest.wav,None,724.0925253,106,699772.3874,706655.2631,707422.0535,708188.8885,708956.0846,NA,NA,NA,700539.0947,701288.8491,702055.7951,702821.8039,703588.3087,704355.0627,705122.3895,705888.4154,708198.8151,Mapping
Blocked,Female,ball,4,F_ball.wav,None,723.3118655,106,699772.3874,706655.2631,707422.0535,708188.8885,708956.0846,709722.0811,NA,NA,700539.0947,701288.8491,702055.7951,702821.8039,703588.3087,704355.0627,705122.3895,705888.4154,708965.9332,Mapping
Blocked,Female,ball,4,F_reek.wav,space,386.0726561,106,699772.3874,706655.2631,707422.0535,708188.8885,708956.0846,709722.0811,710489.4982,NA,700539.0947,701288.8491,702055.7951,702821.8039,703588.3087,704355.0627,705122.3895,705888.4154,709732.0002,Mapping
Blocked,Female,ball,4,F_gnash.wav,None,719.5826299,106,699772.3874,706655.2631,707422.0535,708188.8885,708956.0846,709722.0811,710489.4982,711238.7527,700539.0947,701288.8491,702055.7951,702821.8039,703588.3087,704355.0627,705122.3895,705888.4154,710499.6316,Mapping
Blocked,Female,tile,15,F_depth.wav,None,733.878136,106,714406.0461,706655.2631,707422.0535,708188.8885,708956.0846,709722.0811,710489.4982,711238.7527,700539.0947,701288.8491,702055.7951,702821.8039,703588.3087,704355.0627,705122.3895,705888.4154,711248.6836,Mapping
Blocked,Female,tile,15,F_reek.wav,None,722.7862726,106,714406.0461,706655.2631,707422.0535,708188.8885,708956.0846,709722.0811,710489.4982,711238.7527,715172.5292,701288.8491,702055.7951,702821.8039,703588.3087,704355.0627,705122.3895,705888.4154,714415.849,Mapping
Blocked,Female,tile,15,F_tile.wav,None,719.2889162,106,714406.0461,706655.2631,707422.0535,708188.8885,708956.0846,709722.0811,710489.4982,711238.7527,715172.5292,715939.3175,702055.7951,702821.8039,703588.3087,704355.0627,705122.3895,705888.4154,715183.0767,Mapping
Blocked,Female,tile,15,F_bluff.wav,space,424.6146863,106,714406.0461,706655.2631,707422.0535,708188.8885,708956.0846,709722.0811,710489.4982,711238.7527,715172.5292,715939.3175,716688.999,702821.8039,703588.3087,704355.0627,705122.3895,705888.4154,715949.373,Mapping
Blocked,Female,tile,15,F_tile.wav,None,734.1100152,106,714406.0461,706655.2631,707422.0535,708188.8885,708956.0846,709722.0811,710489.4982,711238.7527,715172.5292,715939.3175,716688.999,717455.134,703588.3087,704355.0627,705122.3895,705888.4154,716697.7869,Mapping
Blocked,Female,tile,15,F_priest.wav,space,461.7762625,106,714406.0461,706655.2631,707422.0535,708188.8885,708956.0846,709722.0811,710489.4982,711238.7527,715172.5292,715939.3175,716688.999,717455.134,718221.7903,704355.0627,705122.3895,705888.4154,717464.173,Mapping
Blocked,Female,tile,15,F_gnash.wav,None,726.974629,106,714406.0461,706655.2631,707422.0535,708188.8885,708956.0846,709722.0811,710489.4982,711238.7527,715172.5292,715939.3175,716688.999,717455.134,718221.7903,718988.9511,705122.3895,705888.4154,718231.3656,Mapping
Blocked,Female,tile,15,F_park.wav,None,722.6295223,106,714406.0461,706655.2631,707422.0535,708188.8885,708956.0846,709722.0811,710489.4982,711238.7527,715172.5292,715939.3175,716688.999,717455.134,718221.7903,718988.9511,719755.2085,705888.4154,718998.9627,Mapping
Blocked,Female,tile,15,F_romp.wav,None,723.5088082,106,714406.0461,706655.2631,707422.0535,708188.8885,708956.0846,709722.0811,710489.4982,711238.7527,715172.5292,715939.3175,716688.999,717455.134,718221.7903,718988.9511,719755.2085,720521.9588,719764.6769,Mapping
Blocked,Female,tile,15,F_tile.wav,None,723.1186328,106,714406.0461,721289.1796,707422.0535,708188.8885,708956.0846,709722.0811,710489.4982,711238.7527,715172.5292,715939.3175,716688.999,717455.134,718221.7903,718988.9511,719755.2085,720521.9588,720531.6158,Mapping
Blocked,Female,tile,15,F_dime.wav,space,362.4472591,106,714406.0461,721289.1796,722038.3383,708188.8885,708956.0846,709722.0811,710489.4982,711238.7527,715172.5292,715939.3175,716688.999,717455.134,718221.7903,718988.9511,719755.2085,720521.9588,721299.4157,Mapping
Blocked,Female,tile,15,F_knife.wav,None,735.6419637,106,714406.0461,721289.1796,722038.3383,722805.1018,708956.0846,709722.0811,710489.4982,711238.7527,715172.5292,715939.3175,716688.999,717455.134,718221.7903,718988.9511,719755.2085,720521.9588,722047.8812,Mapping
Blocked,Female,tile,15,F_ball.wav,None,735.5161306,106,714406.0461,721289.1796,722038.3383,722805.1018,723571.5868,709722.0811,710489.4982,711238.7527,715172.5292,715939.3175,716688.999,717455.134,718221.7903,718988.9511,719755.2085,720521.9588,722814.2941,Mapping
Blocked,Female,tile,15,F_tile.wav,None,732.4435768,106,714406.0461,721289.1796,722038.3383,722805.1018,723571.5868,724337.9648,710489.4982,711238.7527,715172.5292,715939.3175,716688.999,717455.134,718221.7903,718988.9511,719755.2085,720521.9588,723580.8261,Mapping
Blocked,Female,tile,15,F_priest.wav,space,330.1477256,106,714406.0461,721289.1796,722038.3383,722805.1018,723571.5868,724337.9648,725105.2076,711238.7527,715172.5292,715939.3175,716688.999,717455.134,718221.7903,718988.9511,719755.2085,720521.9588,724347.68,Mapping
Blocked,Female,tile,15,F_cling.wav,None,724.5507187,106,714406.0461,721289.1796,722038.3383,722805.1018,723571.5868,724337.9648,725105.2076,725871.8948,715172.5292,715939.3175,716688.999,717455.134,718221.7903,718988.9511,719755.2085,720521.9588,725115.3537,Mapping
Blocked,Female,done,21,F_cad.wav,None,726.1571776,106,728988.7956,721289.1796,722038.3383,722805.1018,723571.5868,724337.9648,725105.2076,725871.8948,715172.5292,715939.3175,716688.999,717455.134,718221.7903,718988.9511,719755.2085,720521.9588,725881.0027,Mapping
Blocked,Female,done,21,F_jolt.wav,None,722.1224798,106,728988.7956,721289.1796,722038.3383,722805.1018,723571.5868,724337.9648,725105.2076,725871.8948,729755.6337,715939.3175,716688.999,717455.134,718221.7903,718988.9511,719755.2085,720521.9588,728998.8264,Mapping
Blocked,Female,done,21,F_knife.wav,None,718.3150236,106,728988.7956,721289.1796,722038.3383,722805.1018,723571.5868,724337.9648,725105.2076,725871.8948,729755.6337,730505.27,716688.999,717455.134,718221.7903,718988.9511,719755.2085,720521.9588,729765.8886,Mapping
Blocked,Female,done,21,F_lash.wav,None,732.0255759,106,728988.7956,721289.1796,722038.3383,722805.1018,723571.5868,724337.9648,725105.2076,725871.8948,729755.6337,730505.27,731271.7547,717455.134,718221.7903,718988.9511,719755.2085,720521.9588,730515.3444,Mapping
Blocked,Female,done,21,F_done.wav,None,729.3982302,106,728988.7956,721289.1796,722038.3383,722805.1018,723571.5868,724337.9648,725105.2076,725871.8948,729755.6337,730505.27,731271.7547,732038.3349,718221.7903,718988.9511,719755.2085,720521.9588,731281.2611,Mapping
Blocked,Female,done,21,F_dime.wav,space,261.3890553,106,728988.7956,721289.1796,722038.3383,722805.1018,723571.5868,724337.9648,725105.2076,725871.8948,729755.6337,730505.27,731271.7547,732038.3349,732805.0879,718988.9511,719755.2085,720521.9588,732048.204,Mapping
Blocked,Female,done,21,F_lash.wav,None,725.5113168,106,728988.7956,721289.1796,722038.3383,722805.1018,723571.5868,724337.9648,725105.2076,725871.8948,729755.6337,730505.27,731271.7547,732038.3349,732805.0879,733572.0422,719755.2085,720521.9588,732814.7455,Mapping
Blocked,Female,done,21,F_done.wav,None,720.8576561,106,728988.7956,721289.1796,722038.3383,722805.1018,723571.5868,724337.9648,725105.2076,725871.8948,729755.6337,730505.27,731271.7547,732038.3349,732805.0879,733572.0422,734321.9874,720521.9588,733582.7949,Mapping
Blocked,Female,done,21,F_lash.wav,space,369.9292274,106,728988.7956,721289.1796,722038.3383,722805.1018,723571.5868,724337.9648,725105.2076,725871.8948,729755.6337,730505.27,731271.7547,732038.3349,732805.0879,733572.0422,734321.9874,735088.1744,734331.6274,Mapping
Blocked,Female,done,21,F_done.wav,None,732.3044493,106,728988.7956,735854.6575,722038.3383,722805.1018,723571.5868,724337.9648,725105.2076,725871.8948,729755.6337,730505.27,731271.7547,732038.3349,732805.0879,733572.0422,734321.9874,735088.1744,735097.6978,Mapping
Blocked,Female,done,21,F_jaw.wav,space,413.2300369,106,728988.7956,735854.6575,736621.6418,722805.1018,723571.5868,724337.9648,725105.2076,725871.8948,729755.6337,730505.27,731271.7547,732038.3349,732805.0879,733572.0422,734321.9874,735088.1744,735864.3164,Mapping
Blocked,Female,done,21,F_bluff.wav,None,725.1032095,106,728988.7956,735854.6575,736621.6418,737388.918,723571.5868,724337.9648,725105.2076,725871.8948,729755.6337,730505.27,731271.7547,732038.3349,732805.0879,733572.0422,734321.9874,735088.1744,736631.5332,Mapping
Blocked,Female,done,21,F_done.wav,None,720.7278039,106,728988.7956,735854.6575,736621.6418,737388.918,738138.6229,724337.9648,725105.2076,725871.8948,729755.6337,730505.27,731271.7547,732038.3349,732805.0879,733572.0422,734321.9874,735088.1744,737399.2248,Mapping
Blocked,Female,done,21,F_depth.wav,space,608.9883173,106,728988.7956,735854.6575,736621.6418,737388.918,738138.6229,738904.7743,725105.2076,725871.8948,729755.6337,730505.27,731271.7547,732038.3349,732805.0879,733572.0422,734321.9874,735088.1744,738148.4123,Mapping
Blocked,Female,done,21,F_greet.wav,None,732.2772422,106,728988.7956,735854.6575,736621.6418,737388.918,738138.6229,738904.7743,739671.3286,725871.8948,729755.6337,730505.27,731271.7547,732038.3349,732805.0879,733572.0422,734321.9874,735088.1744,738914.594,Mapping
Blocked,Female,done,21,F_ball.wav,None,732.9435083,106,728988.7956,735854.6575,736621.6418,737388.918,738138.6229,738904.7743,739671.3286,740438.2445,729755.6337,730505.27,731271.7547,732038.3349,732805.0879,733572.0422,734321.9874,735088.1744,739680.8359,Mapping
Blocked,Female,done,19,F_cling.wav,None,729.247045,106,743571.7164,735854.6575,736621.6418,737388.918,738138.6229,738904.7743,739671.3286,740438.2445,729755.6337,730505.27,731271.7547,732038.3349,732805.0879,733572.0422,734321.9874,735088.1744,740447.9334,Mapping
Blocked,Female,done,19,F_greet.wav,None,720.135739,106,743571.7164,735854.6575,736621.6418,737388.918,738138.6229,738904.7743,739671.3286,740438.2445,744321.4455,730505.27,731271.7547,732038.3349,732805.0879,733572.0422,734321.9874,735088.1744,743581.1607,Mapping
Blocked,Female,done,19,F_romp.wav,None,733.624924,106,743571.7164,735854.6575,736621.6418,737388.918,738138.6229,738904.7743,739671.3286,740438.2445,744321.4455,745088.1663,731271.7547,732038.3349,732805.0879,733572.0422,734321.9874,735088.1744,744331.2258,Mapping
Blocked,Female,done,19,F_knife.wav,None,730.5211439,106,743571.7164,735854.6575,736621.6418,737388.918,738138.6229,738904.7743,739671.3286,740438.2445,744321.4455,745088.1663,745854.7051,732038.3349,732805.0879,733572.0422,734321.9874,735088.1744,745097.5834,Mapping
Blocked,Female,done,19,F_dime.wav,None,727.4281847,106,743571.7164,735854.6575,736621.6418,737388.918,738138.6229,738904.7743,739671.3286,740438.2445,744321.4455,745088.1663,745854.7051,746621.772,732805.0879,733572.0422,734321.9874,735088.1744,745864.4137,Mapping
Blocked,Female,done,19,F_cave.wav,space,317.2422578,106,743571.7164,735854.6575,736621.6418,737388.918,738138.6229,738904.7743,739671.3286,740438.2445,744321.4455,745088.1663,745854.7051,746621.772,747388.3646,733572.0422,734321.9874,735088.1744,746632.0578,Mapping
Blocked,Female,done,19,F_done.wav,None,719.3878513,106,743571.7164,735854.6575,736621.6418,737388.918,738138.6229,738904.7743,739671.3286,740438.2445,744321.4455,745088.1663,745854.7051,746621.772,747388.3646,748138.0099,734321.9874,735088.1744,747398.6924,Mapping
Blocked,Female,done,19,F_ball.wav,space,409.3879533,106,743571.7164,735854.6575,736621.6418,737388.918,738138.6229,738904.7743,739671.3286,740438.2445,744321.4455,745088.1663,745854.7051,746621.772,747388.3646,748138.0099,748904.6847,735088.1744,748147.8697,Mapping
Blocked,Female,done,19,F_greet.wav,None,729.848385,106,743571.7164,735854.6575,736621.6418,737388.918,738138.6229,738904.7743,739671.3286,740438.2445,744321.4455,745088.1663,745854.7051,746621.772,747388.3646,748138.0099,748904.6847,749671.378,748914.8036,Mapping
Blocked,Female,done,19,F_dime.wav,None,727.3113176,106,743571.7164,750438.5058,736621.6418,737388.918,738138.6229,738904.7743,739671.3286,740438.2445,744321.4455,745088.1663,745854.7051,746621.772,747388.3646,748138.0099,748904.6847,749671.378,749681.1439,Mapping
Blocked,Female,done,19,F_done.wav,None,723.2784749,106,743571.7164,750438.5058,751205.0641,737388.918,738138.6229,738904.7743,739671.3286,740438.2445,744321.4455,745088.1663,745854.7051,746621.772,747388.3646,748138.0099,748904.6847,749671.378,750448.5712,Mapping
Blocked,Female,done,19,F_park.wav,space,470.8752016,106,743571.7164,750438.5058,751205.0641,751954.6825,738138.6229,738904.7743,739671.3286,740438.2445,744321.4455,745088.1663,745854.7051,746621.772,747388.3646,748138.0099,748904.6847,749671.378,751214.3541,Mapping
Blocked,Female,done,19,F_done.wav,None,735.5717815,106,743571.7164,750438.5058,751205.0641,751954.6825,752721.3969,738904.7743,739671.3286,740438.2445,744321.4455,745088.1663,745854.7051,746621.772,747388.3646,748138.0099,748904.6847,749671.378,751964.209,Mapping
Blocked,Female,done,19,F_greet.wav,space,625.7624574,106,743571.7164,750438.5058,751205.0641,751954.6825,752721.3969,753488.068,739671.3286,740438.2445,744321.4455,745088.1663,745854.7051,746621.772,747388.3646,748138.0099,748904.6847,749671.378,752731.4604,Mapping
Blocked,Female,done,19,F_done.wav,None,728.6834239,106,743571.7164,750438.5058,751205.0641,751954.6825,752721.3969,753488.068,754254.505,740438.2445,744321.4455,745088.1663,745854.7051,746621.772,747388.3646,748138.0099,748904.6847,749671.378,753497.7336,Mapping
Blocked,Female,done,19,F_gnash.wav,space,644.935465,106,743571.7164,750438.5058,751205.0641,751954.6825,752721.3969,753488.068,754254.505,755020.5337,744321.4455,745088.1663,745854.7051,746621.772,747388.3646,748138.0099,748904.6847,749671.378,754264.2195,Mapping
Blocked,Female,done,20,F_dime.wav,None,726.0137217,106,758138.4823,750438.5058,751205.0641,751954.6825,752721.3969,753488.068,754254.505,755020.5337,744321.4455,745088.1663,745854.7051,746621.772,747388.3646,748138.0099,748904.6847,749671.378,755029.5275,Mapping
Blocked,Female,done,20,F_done.wav,space,472.3929283,106,758138.4823,750438.5058,751205.0641,751954.6825,752721.3969,753488.068,754254.505,755020.5337,758887.7869,745088.1663,745854.7051,746621.772,747388.3646,748138.0099,748904.6847,749671.378,758148.6587,Mapping
Blocked,Female,done,20,F_park.wav,space,619.7907956,106,758138.4823,750438.5058,751205.0641,751954.6825,752721.3969,753488.068,754254.505,755020.5337,758887.7869,759654.4181,745854.7051,746621.772,747388.3646,748138.0099,748904.6847,749671.378,758897.2364,Mapping
Blocked,Female,done,20,F_greet.wav,None,729.2516825,106,758138.4823,750438.5058,751205.0641,751954.6825,752721.3969,753488.068,754254.505,755020.5337,758887.7869,759654.4181,760421.113,746621.772,747388.3646,748138.0099,748904.6847,749671.378,759663.9258,Mapping
Blocked,Female,done,20,F_priest.wav,None,726.2684796,106,758138.4823,750438.5058,751205.0641,751954.6825,752721.3969,753488.068,754254.505,755020.5337,758887.7869,759654.4181,760421.113,761188.626,747388.3646,748138.0099,748904.6847,749671.378,760430.3146,Mapping
Blocked,Female,done,20,F_romp.wav,None,721.1414763,106,758138.4823,750438.5058,751205.0641,751954.6825,752721.3969,753488.068,754254.505,755020.5337,758887.7869,759654.4181,760421.113,761188.626,761954.7301,748138.0099,748904.6847,749671.378,761198.7446,Mapping
Blocked,Female,done,20,F_priest.wav,None,718.8480366,106,758138.4823,750438.5058,751205.0641,751954.6825,752721.3969,753488.068,754254.505,755020.5337,758887.7869,759654.4181,760421.113,761188.626,761954.7301,762704.3911,748904.6847,749671.378,761964.6536,Mapping
Blocked,Female,done,20,F_romp.wav,None,733.262265,106,758138.4823,750438.5058,751205.0641,751954.6825,752721.3969,753488.068,754254.505,755020.5337,758887.7869,759654.4181,760421.113,761188.626,761954.7301,762704.3911,763471.0793,749671.378,762713.7244,Mapping
Blocked,Female,done,20,F_done.wav,None,729.5395219,106,758138.4823,750438.5058,751205.0641,751954.6825,752721.3969,753488.068,754254.505,755020.5337,758887.7869,759654.4181,760421.113,761188.626,761954.7301,762704.3911,763471.0793,764237.7559,763481.0454,Mapping
Blocked,Female,done,20,F_park.wav,space,411.7475559,106,758138.4823,765004.4651,751205.0641,751954.6825,752721.3969,753488.068,754254.505,755020.5337,758887.7869,759654.4181,760421.113,761188.626,761954.7301,762704.3911,763471.0793,764237.7559,764249.1975,Mapping
Blocked,Female,done,20,F_done.wav,None,722.5760355,106,758138.4823,765004.4651,765771.4429,751954.6825,752721.3969,753488.068,754254.505,755020.5337,758887.7869,759654.4181,760421.113,761188.626,761954.7301,762704.3911,763471.0793,764237.7559,765014.8183,Mapping
Blocked,Female,done,20,F_gnash.wav,space,463.3768473,106,758138.4823,765004.4651,765771.4429,766520.9704,752721.3969,753488.068,754254.505,755020.5337,758887.7869,759654.4181,760421.113,761188.626,761954.7301,762704.3911,763471.0793,764237.7559,765781.5163,Mapping
Blocked,Female,done,20,F_cave.wav,None,733.8595857,106,758138.4823,765004.4651,765771.4429,766520.9704,767287.6835,753488.068,754254.505,755020.5337,758887.7869,759654.4181,760421.113,761188.626,761954.7301,762704.3911,763471.0793,764237.7559,766530.3346,Mapping
Blocked,Female,done,20,F_done.wav,None,729.8091202,106,758138.4823,765004.4651,765771.4429,766520.9704,767287.6835,768054.3352,754254.505,755020.5337,758887.7869,759654.4181,760421.113,761188.626,761954.7301,762704.3911,763471.0793,764237.7559,767297.846,Mapping
Blocked,Female,done,20,F_depth.wav,space,469.7711476,106,758138.4823,765004.4651,765771.4429,766520.9704,767287.6835,768054.3352,768821.3188,755020.5337,758887.7869,759654.4181,760421.113,761188.626,761954.7301,762704.3911,763471.0793,764237.7559,768071.0908,Mapping
Blocked,Female,done,20,F_jaw.wav,None,716.9559024,106,758138.4823,765004.4651,765771.4429,766520.9704,767287.6835,768054.3352,768821.3188,769587.8629,758887.7869,759654.4181,760421.113,761188.626,761954.7301,762704.3911,763471.0793,764237.7559,768837.3204,Mapping
Blocked,Female,ball,6,F_reek.wav,None,665.8985798,106,772704.3723,765004.4651,765771.4429,766520.9704,767287.6835,768054.3352,768821.3188,769587.8629,758887.7869,759654.4181,760421.113,761188.626,761954.7301,762704.3911,763471.0793,764237.7559,769652.0263,Mapping
Blocked,Female,ball,6,F_priest.wav,None,719.5377999,106,772704.3723,765004.4651,765771.4429,766520.9704,767287.6835,768054.3352,768821.3188,769587.8629,773453.9251,759654.4181,760421.113,761188.626,761954.7301,762704.3911,763471.0793,764237.7559,772714.1706,Mapping
Blocked,Female,ball,6,F_ball.wav,None,733.9776895,106,772704.3723,765004.4651,765771.4429,766520.9704,767287.6835,768054.3352,768821.3188,769587.8629,773453.9251,774220.8652,760421.113,761188.626,761954.7301,762704.3911,763471.0793,764237.7559,773463.4507,Mapping
Blocked,Female,ball,6,F_knife.wav,space,430.3414838,106,772704.3723,765004.4651,765771.4429,766520.9704,767287.6835,768054.3352,768821.3188,769587.8629,773453.9251,774220.8652,774987.1978,761188.626,761954.7301,762704.3911,763471.0793,764237.7559,774230.3509,Mapping
Blocked,Female,ball,6,F_depth.wav,None,727.7809503,106,772704.3723,765004.4651,765771.4429,766520.9704,767287.6835,768054.3352,768821.3188,769587.8629,773453.9251,774220.8652,774987.1978,775754.4613,761954.7301,762704.3911,763471.0793,764237.7559,774996.0899,Mapping
Blocked,Female,ball,6,F_reek.wav,None,723.5418896,106,772704.3723,765004.4651,765771.4429,766520.9704,767287.6835,768054.3352,768821.3188,769587.8629,773453.9251,774220.8652,774987.1978,775754.4613,776521.188,762704.3911,763471.0793,764237.7559,775763.8845,Mapping
Blocked,Female,ball,6,F_bluff.wav,None,720.4708817,106,772704.3723,765004.4651,765771.4429,766520.9704,767287.6835,768054.3352,768821.3188,769587.8629,773453.9251,774220.8652,774987.1978,775754.4613,776521.188,777270.5773,763471.0793,764237.7559,776530.7569,Mapping
Blocked,Female,ball,6,F_lash.wav,None,734.4853504,106,772704.3723,765004.4651,765771.4429,766520.9704,767287.6835,768054.3352,768821.3188,769587.8629,773453.9251,774220.8652,774987.1978,775754.4613,776521.188,777270.5773,778037.4012,764237.7559,777280.4681,Mapping
Blocked,Female,ball,6,F_knife.wav,None,731.8774825,106,772704.3723,765004.4651,765771.4429,766520.9704,767287.6835,768054.3352,768821.3188,769587.8629,773453.9251,774220.8652,774987.1978,775754.4613,776521.188,777270.5773,778037.4012,778804.0893,778046.6816,Mapping
Blocked,Female,ball,6,F_park.wav,None,728.7795766,106,772704.3723,779570.7174,765771.4429,766520.9704,767287.6835,768054.3352,768821.3188,769587.8629,773453.9251,774220.8652,774987.1978,775754.4613,776521.188,777270.5773,778037.4012,778804.0893,778813.4504,Mapping
Blocked,Female,ball,6,F_ball.wav,None,726.0597884,106,772704.3723,779570.7174,780337.0392,766520.9704,767287.6835,768054.3352,768821.3188,769587.8629,773453.9251,774220.8652,774987.1978,775754.4613,776521.188,777270.5773,778037.4012,778804.0893,779579.7768,Mapping
Blocked,Female,ball,6,F_park.wav,space,354.2331709,106,772704.3723,779570.7174,780337.0392,781104.545,767287.6835,768054.3352,768821.3188,769587.8629,773453.9251,774220.8652,774987.1978,775754.4613,776521.188,777270.5773,778037.4012,778804.0893,780346.374,Mapping
Blocked,Female,ball,6,F_ball.wav,None,718.8449448,106,772704.3723,779570.7174,780337.0392,781104.545,781853.9999,768054.3352,768821.3188,769587.8629,773453.9251,774220.8652,774987.1978,775754.4613,776521.188,777270.5773,778037.4012,778804.0893,781114.2608,Mapping
Blocked,Female,ball,6,F_gnash.wav,space,645.1760009,106,772704.3723,779570.7174,780337.0392,781104.545,781853.9999,782620.7239,768821.3188,769587.8629,773453.9251,774220.8652,774987.1978,775754.4613,776521.188,777270.5773,778037.4012,778804.0893,781863.3536,Mapping
Blocked,Female,ball,6,F_ball.wav,None,729.772947,106,772704.3723,779570.7174,780337.0392,781104.545,781853.9999,782620.7239,783387.3066,769587.8629,773453.9251,774220.8652,774987.1978,775754.4613,776521.188,777270.5773,778037.4012,778804.0893,782630.1876,Mapping
Blocked,Female,ball,6,F_cad.wav,space,503.1837012,106,772704.3723,779570.7174,780337.0392,781104.545,781853.9999,782620.7239,783387.3066,784154.136,773453.9251,774220.8652,774987.1978,775754.4613,776521.188,777270.5773,778037.4012,778804.0893,783397.3655,Mapping
Blocked,Female,cave,11,F_bluff.wav,None,722.142576,106,787271.2668,779570.7174,780337.0392,781104.545,781853.9999,782620.7239,783387.3066,784154.136,773453.9251,774220.8652,774987.1978,775754.4613,776521.188,777270.5773,778037.4012,778804.0893,784164.3504,Mapping
Blocked,Female,cave,11,F_ball.wav,None,719.5708813,106,787271.2668,779570.7174,780337.0392,781104.545,781853.9999,782620.7239,783387.3066,784154.136,788020.5473,774220.8652,774987.1978,775754.4613,776521.188,777270.5773,778037.4012,778804.0893,787281.0741,Mapping
Blocked,Female,cave,11,F_gnash.wav,None,734.7602044,106,787271.2668,779570.7174,780337.0392,781104.545,781853.9999,782620.7239,783387.3066,784154.136,788020.5473,788787.3062,774987.1978,775754.4613,776521.188,777270.5773,778037.4012,778804.0893,788029.5154,Mapping
Blocked,Female,cave,11,F_tile.wav,None,730.8828754,106,787271.2668,779570.7174,780337.0392,781104.545,781853.9999,782620.7239,783387.3066,784154.136,788020.5473,788787.3062,789553.9121,775754.4613,776521.188,777270.5773,778037.4012,778804.0893,788797.0405,Mapping
Blocked,Female,cave,11,F_cad.wav,None,728.4162992,106,787271.2668,779570.7174,780337.0392,781104.545,781853.9999,782620.7239,783387.3066,784154.136,788020.5473,788787.3062,789553.9121,790320.5291,776521.188,777270.5773,778037.4012,778804.0893,789563.2967,Mapping
Blocked,Female,cave,11,F_cave.wav,space,274.4336505,106,787271.2668,779570.7174,780337.0392,781104.545,781853.9999,782620.7239,783387.3066,784154.136,788020.5473,788787.3062,789553.9121,790320.5291,791087.5316,777270.5773,778037.4012,778804.0893,790329.9758,Mapping
Blocked,Female,cave,11,F_ball.wav,space,562.9961635,106,787271.2668,779570.7174,780337.0392,781104.545,781853.9999,782620.7239,783387.3066,784154.136,788020.5473,788787.3062,789553.9121,790320.5291,791087.5316,791836.8569,778037.4012,778804.0893,791097.4427,Mapping
Blocked,Female,cave,11,F_priest.wav,None,738.8270561,106,787271.2668,779570.7174,780337.0392,781104.545,781853.9999,782620.7239,783387.3066,784154.136,788020.5473,788787.3062,789553.9121,790320.5291,791087.5316,791836.8569,792603.273,778804.0893,791843.0147,Mapping
Blocked,Female,cave,11,F_dime.wav,None,733.4020108,106,787271.2668,779570.7174,780337.0392,781104.545,781853.9999,782620.7239,783387.3066,784154.136,788020.5473,788787.3062,789553.9121,790320.5291,791087.5316,791836.8569,792603.273,793370.5389,792612.1428,Mapping
Blocked,Female,cave,11,F_cave.wav,None,729.7021465,106,787271.2668,794137.1553,780337.0392,781104.545,781853.9999,782620.7239,783387.3066,784154.136,788020.5473,788787.3062,789553.9121,790320.5291,791087.5316,791836.8569,792603.273,793370.5389,793379.5315,Mapping
Blocked,Female,cave,11,F_lash.wav,space,545.7635209,106,787271.2668,794137.1553,794904.1585,781104.545,781853.9999,782620.7239,783387.3066,784154.136,788020.5473,788787.3062,789553.9121,790320.5291,791087.5316,791836.8569,792603.273,793370.5389,794146.5807,Mapping
Blocked,Female,cave,11,F_cave.wav,None,722.4127926,106,787271.2668,794137.1553,794904.1585,795670.863,781853.9999,782620.7239,783387.3066,784154.136,788020.5473,788787.3062,789553.9121,790320.5291,791087.5316,791836.8569,792603.273,793370.5389,794913.8284,Mapping
Blocked,Female,cave,11,F_knife.wav,space,635.3279374,106,787271.2668,794137.1553,794904.1585,795670.863,796420.3388,782620.7239,783387.3066,784154.136,788020.5473,788787.3062,789553.9121,790320.5291,791087.5316,791836.8569,792603.273,793370.5389,795680.9778,Mapping
Blocked,Female,cave,11,F_cave.wav,None,733.8592765,106,787271.2668,794137.1553,794904.1585,795670.863,796420.3388,797187.0331,783387.3066,784154.136,788020.5473,788787.3062,789553.9121,790320.5291,791087.5316,791836.8569,792603.273,793370.5389,796429.4378,Mapping
Blocked,Female,cave,11,F_park.wav,space,471.6790494,106,787271.2668,794137.1553,794904.1585,795670.863,796420.3388,797187.0331,797953.4829,784154.136,788020.5473,788787.3062,789553.9121,790320.5291,791087.5316,791836.8569,792603.273,793370.5389,797196.581,Mapping
Blocked,Female,cave,11,F_gnash.wav,None,727.1861029,106,787271.2668,794137.1553,794904.1585,795670.863,796420.3388,797187.0331,797953.4829,798721.2611,788020.5473,788787.3062,789553.9121,790320.5291,791087.5316,791836.8569,792603.273,793370.5389,797962.7818,Mapping
Blocked,Female,done,24,F_bluff.wav,None,722.3571416,106,801837.2833,794137.1553,794904.1585,795670.863,796420.3388,797187.0331,797953.4829,798721.2611,788020.5473,788787.3062,789553.9121,790320.5291,791087.5316,791836.8569,792603.273,793370.5389,798731.4783,Mapping
Blocked,Female,done,24,F_reek.wav,None,719.2589265,106,801837.2833,794137.1553,794904.1585,795670.863,796420.3388,797187.0331,797953.4829,798721.2611,802586.9106,788787.3062,789553.9121,790320.5291,791087.5316,791836.8569,792603.273,793370.5389,801847.1347,Mapping
Blocked,Female,done,24,F_dime.wav,None,733.858349,106,801837.2833,794137.1553,794904.1585,795670.863,796420.3388,797187.0331,797953.4829,798721.2611,802586.9106,803353.6244,789553.9121,790320.5291,791087.5316,791836.8569,792603.273,793370.5389,802596.3268,Mapping
Blocked,Female,done,24,F_reek.wav,space,417.0990183,106,801837.2833,794137.1553,794904.1585,795670.863,796420.3388,797187.0331,797953.4829,798721.2611,802586.9106,803353.6244,804120.2021,790320.5291,791087.5316,791836.8569,792603.273,793370.5389,803362.9976,Mapping
Blocked,Female,done,24,F_done.wav,None,727.5963743,106,801837.2833,794137.1553,794904.1585,795670.863,796420.3388,797187.0331,797953.4829,798721.2611,802586.9106,803353.6244,804120.2021,804886.8454,791087.5316,791836.8569,792603.273,793370.5389,804129.8848,Mapping
Blocked,Female,done,24,F_cling.wav,space,555.7961602,106,801837.2833,794137.1553,794904.1585,795670.863,796420.3388,797187.0331,797953.4829,798721.2611,802586.9106,803353.6244,804120.2021,804886.8454,805653.8968,791836.8569,792603.273,793370.5389,804896.2903,Mapping
Blocked,Female,done,24,F_done.wav,None,720.254152,106,801837.2833,794137.1553,794904.1585,795670.863,796420.3388,797187.0331,797953.4829,798721.2611,802586.9106,803353.6244,804120.2021,804886.8454,805653.8968,806403.3572,792603.273,793370.5389,805663.8429,Mapping
Blocked,Female,done,24,F_depth.wav,space,567.407124,106,801837.2833,794137.1553,794904.1585,795670.863,796420.3388,797187.0331,797953.4829,798721.2611,802586.9106,803353.6244,804120.2021,804886.8454,805653.8968,806403.3572,807170.2101,793370.5389,806412.6584,Mapping
Blocked,Female,done,24,F_cave.wav,None,731.162058,106,801837.2833,794137.1553,794904.1585,795670.863,796420.3388,797187.0331,797953.4829,798721.2611,802586.9106,803353.6244,804120.2021,804886.8454,805653.8968,806403.3572,807170.2101,807936.7845,807180.1126,Mapping
Blocked,Female,done,24,F_reek.wav,None,729.4041045,106,801837.2833,808703.3894,794904.1585,795670.863,796420.3388,797187.0331,797953.4829,798721.2611,802586.9106,803353.6244,804120.2021,804886.8454,805653.8968,806403.3572,807170.2101,807936.7845,807946.1985,Mapping
Blocked,Female,done,24,F_knife.wav,None,726.5943472,106,801837.2833,808703.3894,809470.4758,795670.863,796420.3388,797187.0331,797953.4829,798721.2611,802586.9106,803353.6244,804120.2021,804886.8454,805653.8968,806403.3572,807170.2101,807936.7845,808712.7833,Mapping
Blocked,Female,done,24,F_tile.wav,None,722.8716041,106,801837.2833,808703.3894,809470.4758,810237.1197,796420.3388,797187.0331,797953.4829,798721.2611,802586.9106,803353.6244,804120.2021,804886.8454,805653.8968,806403.3572,807170.2101,807936.7845,809480.2907,Mapping
Blocked,Female,done,24,F_done.wav,None,719.8587207,106,801837.2833,808703.3894,809470.4758,810237.1197,810986.5674,797187.0331,797953.4829,798721.2611,802586.9106,803353.6244,804120.2021,804886.8454,805653.8968,806403.3572,807170.2101,807936.7845,810247.2741,Mapping
Blocked,Female,done,24,F_lash.wav,space,439.7823676,106,801837.2833,808703.3894,809470.4758,810237.1197,810986.5674,811753.2571,797953.4829,798721.2611,802586.9106,803353.6244,804120.2021,804886.8454,805653.8968,806403.3572,807170.2101,807936.7845,810996.178,Mapping
Blocked,Female,done,24,F_done.wav,None,731.1750432,106,801837.2833,808703.3894,809470.4758,810237.1197,810986.5674,811753.2571,812519.7965,798721.2611,802586.9106,803353.6244,804120.2021,804886.8454,805653.8968,806403.3572,807170.2101,807936.7845,811762.7159,Mapping
Blocked,Female,done,24,F_ball.wav,space,394.9789809,106,801837.2833,808703.3894,809470.4758,810237.1197,810986.5674,811753.2571,812519.7965,813286.7372,802586.9106,803353.6244,804120.2021,804886.8454,805653.8968,806403.3572,807170.2101,807936.7845,812528.965,Mapping
Blocked,Female,ball,1,F_tile.wav,None,724.7572456,106,816403.7712,808703.3894,809470.4758,810237.1197,810986.5674,811753.2571,812519.7965,813286.7372,802586.9106,803353.6244,804120.2021,804886.8454,805653.8968,806403.3572,807170.2101,807936.7845,813296.3119,Mapping
Blocked,Female,ball,1,F_cave.wav,None,719.6964052,106,816403.7712,808703.3894,809470.4758,810237.1197,810986.5674,811753.2571,812519.7965,813286.7372,817152.9521,803353.6244,804120.2021,804886.8454,805653.8968,806403.3572,807170.2101,807936.7845,816413.473,Mapping
Blocked,Female,ball,1,F_ball.wav,None,734.470201,106,816403.7712,808703.3894,809470.4758,810237.1197,810986.5674,811753.2571,812519.7965,813286.7372,817152.9521,817919.9414,804120.2021,804886.8454,805653.8968,806403.3572,807170.2101,807936.7845,817162.4277,Mapping
Blocked,Female,ball,1,F_gnash.wav,space,370.8057307,106,816403.7712,808703.3894,809470.4758,810237.1197,810986.5674,811753.2571,812519.7965,813286.7372,817152.9521,817919.9414,818686.3046,804886.8454,805653.8968,806403.3572,807170.2101,807936.7845,817929.0326,Mapping
Blocked,Female,ball,1,F_park.wav,None,728.7430943,106,816403.7712,808703.3894,809470.4758,810237.1197,810986.5674,811753.2571,812519.7965,813286.7372,817152.9521,817919.9414,818686.3046,819453.1788,805653.8968,806403.3572,807170.2101,807936.7845,818695.3061,Mapping
Blocked,Female,ball,1,F_dime.wav,None,725.2197673,106,816403.7712,808703.3894,809470.4758,810237.1197,810986.5674,811753.2571,812519.7965,813286.7372,817152.9521,817919.9414,818686.3046,819453.1788,820220.2089,806403.3572,807170.2101,807936.7845,819462.8621,Mapping
Blocked,Female,ball,1,F_park.wav,None,721.8819439,106,816403.7712,808703.3894,809470.4758,810237.1197,810986.5674,811753.2571,812519.7965,813286.7372,817152.9521,817919.9414,818686.3046,819453.1788,820220.2089,820986.9925,807170.2101,807936.7845,820230.03,Mapping
Blocked,Female,ball,1,F_romp.wav,None,718.8273221,106,816403.7712,808703.3894,809470.4758,810237.1197,810986.5674,811753.2571,812519.7965,813286.7372,817152.9521,817919.9414,818686.3046,819453.1788,820220.2089,820986.9925,821736.5253,807936.7845,820996.9503,Mapping
Blocked,Female,ball,1,F_ball.wav,None,733.6057553,106,816403.7712,808703.3894,809470.4758,810237.1197,810986.5674,811753.2571,812519.7965,813286.7372,817152.9521,817919.9414,818686.3046,819453.1788,820220.2089,820986.9925,821736.5253,822502.9147,821745.9869,Mapping
Blocked,Female,ball,1,F_cave.wav,space,411.4284902,106,816403.7712,823269.8625,809470.4758,810237.1197,810986.5674,811753.2571,812519.7965,813286.7372,817152.9521,817919.9414,818686.3046,819453.1788,820220.2089,820986.9925,821736.5253,822502.9147,822512.248,Mapping
Blocked,Female,ball,1,F_ball.wav,None,726.84354,106,816403.7712,823269.8625,824036.4026,810237.1197,810986.5674,811753.2571,812519.7965,813286.7372,817152.9521,817919.9414,818686.3046,819453.1788,820220.2089,820986.9925,821736.5253,822502.9147,823279.7458,Mapping
Blocked,Female,ball,1,F_tile.wav,space,501.7587263,106,816403.7712,823269.8625,824036.4026,824803.3334,810986.5674,811753.2571,812519.7965,813286.7372,817152.9521,817919.9414,818686.3046,819453.1788,820220.2089,820986.9925,821736.5253,822502.9147,824045.9164,Mapping
Blocked,Female,ball,1,F_ball.wav,None,720.0603009,106,816403.7712,823269.8625,824036.4026,824803.3334,825553.0758,811753.2571,812519.7965,813286.7372,817152.9521,817919.9414,818686.3046,819453.1788,820220.2089,820986.9925,821736.5253,822502.9147,824813.3796,Mapping
Blocked,Female,ball,1,F_depth.wav,space,376.7919237,106,816403.7712,823269.8625,824036.4026,824803.3334,825553.0758,826319.5097,812519.7965,813286.7372,817152.9521,817919.9414,818686.3046,819453.1788,820220.2089,820986.9925,821736.5253,822502.9147,825562.8422,Mapping
Blocked,Female,ball,1,F_done.wav,None,732.1365688,106,816403.7712,823269.8625,824036.4026,824803.3334,825553.0758,826319.5097,827086.0609,813286.7372,817152.9521,817919.9414,818686.3046,819453.1788,820220.2089,820986.9925,821736.5253,822502.9147,826328.878,Mapping
Blocked,Female,ball,1,F_priest.wav,None,729.737083,106,816403.7712,823269.8625,824036.4026,824803.3334,825553.0758,826319.5097,827086.0609,827853.0214,817152.9521,817919.9414,818686.3046,819453.1788,820220.2089,820986.9925,821736.5253,822502.9147,827095.1258,Mapping
Blocked,Female,ball,5,F_lash.wav,None,726.3627772,106,830970.2514,823269.8625,824036.4026,824803.3334,825553.0758,826319.5097,827086.0609,827853.0214,817152.9521,817919.9414,818686.3046,819453.1788,820220.2089,820986.9925,821736.5253,822502.9147,827862.4817,Mapping
Blocked,Female,ball,5,F_greet.wav,None,719.8667591,106,830970.2514,823269.8625,824036.4026,824803.3334,825553.0758,826319.5097,827086.0609,827853.0214,831719.4537,817919.9414,818686.3046,819453.1788,820220.2089,820986.9925,821736.5253,822502.9147,830979.863,Mapping
Blocked,Female,ball,5,F_ball.wav,None,734.5688267,106,830970.2514,823269.8625,824036.4026,824803.3334,825553.0758,826319.5097,827086.0609,827853.0214,831719.4537,832486.3273,818686.3046,819453.1788,820220.2089,820986.9925,821736.5253,822502.9147,831729.2291,Mapping
Blocked,Female,ball,5,F_tile.wav,space,443.8077901,106,830970.2514,823269.8625,824036.4026,824803.3334,825553.0758,826319.5097,827086.0609,827853.0214,831719.4537,832486.3273,833252.8581,819453.1788,820220.2089,820986.9925,821736.5253,822502.9147,832495.6891,Mapping
Blocked,Female,ball,5,F_romp.wav,None,728.0944509,106,830970.2514,823269.8625,824036.4026,824803.3334,825553.0758,826319.5097,827086.0609,827853.0214,831719.4537,832486.3273,833252.8581,834019.3607,820220.2089,820986.9925,821736.5253,822502.9147,833262.5237,Mapping
Blocked,Female,ball,5,F_ball.wav,None,726.4341959,106,830970.2514,823269.8625,824036.4026,824803.3334,825553.0758,826319.5097,827086.0609,827853.0214,831719.4537,832486.3273,833252.8581,834019.3607,834786.5623,820986.9925,821736.5253,822502.9147,834028.1659,Mapping
Blocked,Female,ball,5,F_priest.wav,space,366.6127367,106,830970.2514,823269.8625,824036.4026,824803.3334,825553.0758,826319.5097,827086.0609,827853.0214,831719.4537,832486.3273,833252.8581,834019.3607,834786.5623,835553.3265,821736.5253,822502.9147,834796.8392,Mapping
Blocked,Female,ball,5,F_knife.wav,None,718.7487923,106,830970.2514,823269.8625,824036.4026,824803.3334,825553.0758,826319.5097,827086.0609,827853.0214,831719.4537,832486.3273,833252.8581,834019.3607,834786.5623,835553.3265,836302.9919,822502.9147,835563.0435,Mapping
Blocked,Female,ball,5,F_greet.wav,None,733.0257482,106,830970.2514,823269.8625,824036.4026,824803.3334,825553.0758,826319.5097,827086.0609,827853.0214,831719.4537,832486.3273,833252.8581,834019.3607,834786.5623,835553.3265,836302.9919,837069.5461,836312.6155,Mapping
Blocked,Female,ball,5,F_cave.wav,None,730.5678289,106,830970.2514,837836.208,824036.4026,824803.3334,825553.0758,826319.5097,827086.0609,827853.0214,831719.4537,832486.3273,833252.8581,834019.3607,834786.5623,835553.3265,836302.9919,837069.5461,837079.0931,Mapping
Blocked,Female,ball,5,F_ball.wav,None,728.0539494,106,830970.2514,837836.208,838602.6518,824803.3334,825553.0758,826319.5097,827086.0609,827853.0214,831719.4537,832486.3273,833252.8581,834019.3607,834786.5623,835553.3265,836302.9919,837069.5461,837845.6597,Mapping
Blocked,Female,ball,5,F_knife.wav,space,526.7945671,106,830970.2514,837836.208,838602.6518,839369.7935,825553.0758,826319.5097,827086.0609,827853.0214,831719.4537,832486.3273,833252.8581,834019.3607,834786.5623,835553.3265,836302.9919,837069.5461,838612.5617,Mapping
Blocked,Female,ball,5,F_ball.wav,None,720.9751416,106,830970.2514,837836.208,838602.6518,839369.7935,840119.1299,826319.5097,827086.0609,827853.0214,831719.4537,832486.3273,833252.8581,834019.3607,834786.5623,835553.3265,836302.9919,837069.5461,839379.6079,Mapping
Blocked,Female,ball,5,F_knife.wav,space,522.6123942,106,830970.2514,837836.208,838602.6518,839369.7935,840119.1299,840886.0645,827086.0609,827853.0214,831719.4537,832486.3273,833252.8581,834019.3607,834786.5623,835553.3265,836302.9919,837069.5461,840128.7529,Mapping
Blocked,Female,ball,5,F_gnash.wav,None,732.3174346,106,830970.2514,837836.208,838602.6518,839369.7935,840119.1299,840886.0645,841652.9984,827853.0214,831719.4537,832486.3273,833252.8581,834019.3607,834786.5623,835553.3265,836302.9919,837069.5461,840895.4605,Mapping
Blocked,Female,ball,5,F_park.wav,None,729.1215211,106,830970.2514,837836.208,838602.6518,839369.7935,840119.1299,840886.0645,841652.9984,842419.1702,831719.4537,832486.3273,833252.8581,834019.3607,834786.5623,835553.3265,836302.9919,837069.5461,841662.7054,Mapping
Blocked,Female,cave,12,F_cling.wav,None,727.8934889,106,845553.1515,837836.208,838602.6518,839369.7935,840119.1299,840886.0645,841652.9984,842419.1702,831719.4537,832486.3273,833252.8581,834019.3607,834786.5623,835553.3265,836302.9919,837069.5461,842428.2975,Mapping
Blocked,Female,cave,12,F_lash.wav,None,719.5684079,106,845553.1515,837836.208,838602.6518,839369.7935,840119.1299,840886.0645,841652.9984,842419.1702,846302.3473,832486.3273,833252.8581,834019.3607,834786.5623,835553.3265,836302.9919,837069.5461,845563.0422,Mapping
Blocked,Female,cave,12,F_priest.wav,None,734.8396617,106,845553.1515,837836.208,838602.6518,839369.7935,840119.1299,840886.0645,841652.9984,842419.1702,846302.3473,847069.3387,833252.8581,834019.3607,834786.5623,835553.3265,836302.9919,837069.5461,846311.8481,Mapping
Blocked,Female,cave,12,F_cave.wav,None,731.7788565,106,845553.1515,837836.208,838602.6518,839369.7935,840119.1299,840886.0645,841652.9984,842419.1702,846302.3473,847069.3387,847835.9563,834019.3607,834786.5623,835553.3265,836302.9919,837069.5461,847078.9004,Mapping
Blocked,Female,cave,12,F_done.wav,space,573.773908,106,845553.1515,837836.208,838602.6518,839369.7935,840119.1299,840886.0645,841652.9984,842419.1702,846302.3473,847069.3387,847835.9563,848602.5659,834786.5623,835553.3265,836302.9919,837069.5461,847845.3907,Mapping
Blocked,Female,cave,12,F_cave.wav,None,725.9521964,106,845553.1515,837836.208,838602.6518,839369.7935,840119.1299,840886.0645,841652.9984,842419.1702,846302.3473,847069.3387,847835.9563,848602.5659,849369.2593,835553.3265,836302.9919,837069.5461,848611.8491,Mapping
Blocked,Female,cave,12,F_bluff.wav,space,568.8191135,106,845553.1515,837836.208,838602.6518,839369.7935,840119.1299,840886.0645,841652.9984,842419.1702,846302.3473,847069.3387,847835.9563,848602.5659,849369.2593,850135.8722,836302.9919,837069.5461,849378.3461,Mapping
Blocked,Female,cave,12,F_done.wav,None,723.9589629,106,845553.1515,837836.208,838602.6518,839369.7935,840119.1299,840886.0645,841652.9984,842419.1702,846302.3473,847069.3387,847835.9563,848602.5659,849369.2593,850135.8722,850903.068,837069.5461,850144.7535,Mapping
Blocked,Female,cave,12,F_jolt.wav,None,720.0476249,106,845553.1515,837836.208,838602.6518,839369.7935,840119.1299,840886.0645,841652.9984,842419.1702,846302.3473,847069.3387,847835.9563,848602.5659,849369.2593,850135.8722,850903.068,851652.2087,850912.8314,Mapping
Blocked,Female,cave,12,F_cave.wav,None,735.6530939,106,845553.1515,852419.2076,838602.6518,839369.7935,840119.1299,840886.0645,841652.9984,842419.1702,846302.3473,847069.3387,847835.9563,848602.5659,849369.2593,850135.8722,850903.068,851652.2087,851661.2891,Mapping
Blocked,Female,cave,12,F_done.wav,space,590.910707,106,845553.1515,852419.2076,853185.8437,839369.7935,840119.1299,840886.0645,841652.9984,842419.1702,846302.3473,847069.3387,847835.9563,848602.5659,849369.2593,850135.8722,850903.068,851652.2087,852428.1791,Mapping
Blocked,Female,cave,12,F_tile.wav,None,728.8080205,106,845553.1515,852419.2076,853185.8437,853952.2496,840119.1299,840886.0645,841652.9984,842419.1702,846302.3473,847069.3387,847835.9563,848602.5659,849369.2593,850135.8722,850903.068,851652.2087,853195.2126,Mapping
Blocked,Female,cave,12,F_knife.wav,None,726.1432648,106,845553.1515,852419.2076,853185.8437,853952.2496,854719.557,840886.0645,841652.9984,842419.1702,846302.3473,847069.3387,847835.9563,848602.5659,849369.2593,850135.8722,850903.068,851652.2087,853961.9091,Mapping
Blocked,Female,cave,12,F_cave.wav,None,723.0336104,106,845553.1515,852419.2076,853185.8437,853952.2496,854719.557,855485.2839,841652.9984,842419.1702,846302.3473,847069.3387,847835.9563,848602.5659,849369.2593,850135.8722,850903.068,851652.2087,854729.0891,Mapping
Blocked,Female,cave,12,F_greet.wav,space,472.2664767,106,845553.1515,852419.2076,853185.8437,853952.2496,854719.557,855485.2839,856235.6984,842419.1702,846302.3473,847069.3387,847835.9563,848602.5659,849369.2593,850135.8722,850903.068,851652.2087,855490.7463,Mapping
Blocked,Female,cave,12,F_reek.wav,None,733.7516845,106,845553.1515,852419.2076,853185.8437,853952.2496,854719.557,855485.2839,856235.6984,857002.1082,846302.3473,847069.3387,847835.9563,848602.5659,849369.2593,850135.8722,850903.068,851652.2087,856245.2302,Mapping
Blocked,Female,cave,10,F_jaw.wav,None,731.6245796,106,860136.2309,852419.2076,853185.8437,853952.2496,854719.557,855485.2839,856235.6984,857002.1082,846302.3473,847069.3387,847835.9563,848602.5659,849369.2593,850135.8722,850903.068,851652.2087,857011.3976,Mapping
Blocked,Female,cave,10,F_ball.wav,None,718.9179095,106,860136.2309,852419.2076,853185.8437,853952.2496,854719.557,855485.2839,856235.6984,857002.1082,860885.5927,847069.3387,847835.9563,848602.5659,849369.2593,850135.8722,850903.068,851652.2087,860146.3937,Mapping
Blocked,Female,cave,10,F_cave.wav,None,734.4844228,106,860136.2309,852419.2076,853185.8437,853952.2496,854719.557,855485.2839,856235.6984,857002.1082,860885.5927,861652.0653,847835.9563,848602.5659,849369.2593,850135.8722,850903.068,851652.2087,860895.0326,Mapping
Blocked,Female,cave,10,F_park.wav,space,493.5239236,106,860136.2309,852419.2076,853185.8437,853952.2496,854719.557,855485.2839,856235.6984,857002.1082,860885.5927,861652.0653,862418.9825,848602.5659,849369.2593,850135.8722,850903.068,851652.2087,861661.4406,Mapping
Blocked,Female,cave,10,F_cling.wav,None,728.3958938,106,860136.2309,852419.2076,853185.8437,853952.2496,854719.557,855485.2839,856235.6984,857002.1082,860885.5927,861652.0653,862418.9825,863185.7287,849369.2593,850135.8722,850903.068,851652.2087,862428.3863,Mapping
Blocked,Female,cave,10,F_cave.wav,None,725.2172939,106,860136.2309,852419.2076,853185.8437,853952.2496,854719.557,855485.2839,856235.6984,857002.1082,860885.5927,861652.0653,862418.9825,863185.7287,863952.4833,850135.8722,850903.068,851652.2087,863195.5858,Mapping
Blocked,Female,cave,10,F_depth.wav,space,488.4878169,106,860136.2309,852419.2076,853185.8437,853952.2496,854719.557,855485.2839,856235.6984,857002.1082,860885.5927,861652.0653,862418.9825,863185.7287,863952.4833,864719.2818,850903.068,851652.2087,863962.3873,Mapping
Blocked,Female,cave,10,F_done.wav,None,718.9976759,106,860136.2309,852419.2076,853185.8437,853952.2496,854719.557,855485.2839,856235.6984,857002.1082,860885.5927,861652.0653,862418.9825,863185.7287,863952.4833,864719.2818,865468.6482,851652.2087,864728.9125,Mapping
Blocked,Female,cave,10,F_cave.wav,None,734.4463946,106,860136.2309,852419.2076,853185.8437,853952.2496,854719.557,855485.2839,856235.6984,857002.1082,860885.5927,861652.0653,862418.9825,863185.7287,863952.4833,864719.2818,865468.6482,866235.64,865477.8569,Mapping
Blocked,Female,cave,10,F_romp.wav,space,485.3404434,106,860136.2309,867002.1537,853185.8437,853952.2496,854719.557,855485.2839,856235.6984,857002.1082,860885.5927,861652.0653,862418.9825,863185.7287,863952.4833,864719.2818,865468.6482,866235.64,866245.4169,Mapping
Blocked,Female,cave,10,F_reek.wav,None,727.9553233,106,860136.2309,867002.1537,867768.8774,853952.2496,854719.557,855485.2839,856235.6984,857002.1082,860885.5927,861652.0653,862418.9825,863185.7287,863952.4833,864719.2818,865468.6482,866235.64,867011.5244,Mapping
Blocked,Female,cave,10,F_cave.wav,None,725.8464595,106,860136.2309,867002.1537,867768.8774,868536.0098,854719.557,855485.2839,856235.6984,857002.1082,860885.5927,861652.0653,862418.9825,863185.7287,863952.4833,864719.2818,865468.6482,866235.64,867777.7985,Mapping
Blocked,Female,cave,10,F_park.wav,space,520.8383638,106,860136.2309,867002.1537,867768.8774,868536.0098,869302.6945,855485.2839,856235.6984,857002.1082,860885.5927,861652.0653,862418.9825,863185.7287,863952.4833,864719.2818,865468.6482,866235.64,868545.9286,Mapping
Blocked,Female,cave,10,F_gnash.wav,None,718.5067105,106,860136.2309,867002.1537,867768.8774,868536.0098,869302.6945,870051.8089,856235.6984,857002.1082,860885.5927,861652.0653,862418.9825,863185.7287,863952.4833,864719.2818,865468.6482,866235.64,869312.387,Mapping
Blocked,Female,cave,10,F_park.wav,None,734.3969271,106,860136.2309,867002.1537,867768.8774,868536.0098,869302.6945,870051.8089,870818.77,857002.1082,860885.5927,861652.0653,862418.9825,863185.7287,863952.4833,864719.2818,865468.6482,866235.64,870060.9505,Mapping
Blocked,Female,cave,10,F_dime.wav,None,731.5333738,106,860136.2309,867002.1537,867768.8774,868536.0098,869302.6945,870051.8089,870818.77,871585.4254,860885.5927,861652.0653,862418.9825,863185.7287,863952.4833,864719.2818,865468.6482,866235.64,870827.8625,Mapping
Blocked,Female,tile,18,F_knife.wav,None,728.6797139,106,874719.1436,867002.1537,867768.8774,868536.0098,869302.6945,870051.8089,870818.77,871585.4254,860885.5927,861652.0653,862418.9825,863185.7287,863952.4833,864719.2818,865468.6482,866235.64,871594.9327,Mapping
Blocked,Female,tile,18,F_tile.wav,None,720.0884356,106,874719.1436,867002.1537,867768.8774,868536.0098,869302.6945,870051.8089,870818.77,871585.4254,875468.4417,861652.0653,862418.9825,863185.7287,863952.4833,864719.2818,865468.6482,866235.64,874729.124,Mapping
Blocked,Female,tile,18,F_lash.wav,space,452.371552,106,874719.1436,867002.1537,867768.8774,868536.0098,869302.6945,870051.8089,870818.77,871585.4254,875468.4417,876235.4164,862418.9825,863185.7287,863952.4833,864719.2818,865468.6482,866235.64,875478.2289,Mapping
Blocked,Female,tile,18,F_depth.wav,None,731.5982999,106,874719.1436,867002.1537,867768.8774,868536.0098,869302.6945,870051.8089,870818.77,871585.4254,875468.4417,876235.4164,877001.9969,863185.7287,863952.4833,864719.2818,865468.6482,866235.64,876245.0756,Mapping
Blocked,Female,tile,18,F_lash.wav,None,729.6214526,106,874719.1436,867002.1537,867768.8774,868536.0098,869302.6945,870051.8089,870818.77,871585.4254,875468.4417,876235.4164,877001.9969,877768.7166,863952.4833,864719.2818,865468.6482,866235.64,877011.3429,Mapping
Blocked,Female,tile,18,F_ball.wav,None,727.1678617,106,874719.1436,867002.1537,867768.8774,868536.0098,869302.6945,870051.8089,870818.77,871585.4254,875468.4417,876235.4164,877001.9969,877768.7166,878535.0674,864719.2818,865468.6482,866235.64,877778.2666,Mapping
Blocked,Female,tile,18,F_tile.wav,None,724.9470775,106,874719.1436,867002.1537,867768.8774,868536.0098,869302.6945,870051.8089,870818.77,871585.4254,875468.4417,876235.4164,877001.9969,877768.7166,878535.0674,879302.2836,865468.6482,866235.64,878544.8079,Mapping
Blocked,Female,tile,18,F_bluff.wav,space,481.7725958,106,874719.1436,867002.1537,867768.8774,868536.0098,869302.6945,870051.8089,870818.77,871585.4254,875468.4417,876235.4164,877001.9969,877768.7166,878535.0674,879302.2836,880069.1195,866235.64,879312.7435,Mapping
Blocked,Female,tile,18,F_tile.wav,None,718.5549412,106,874719.1436,867002.1537,867768.8774,868536.0098,869302.6945,870051.8089,870818.77,871585.4254,875468.4417,876235.4164,877001.9969,877768.7166,878535.0674,879302.2836,880069.1195,880818.2797,880078.6262,Mapping
Blocked,Female,tile,18,F_done.wav,space,511.1130418,106,874719.1436,881585.2198,867768.8774,868536.0098,869302.6945,870051.8089,870818.77,871585.4254,875468.4417,876235.4164,877001.9969,877768.7166,878535.0674,879302.2836,880069.1195,880818.2797,880827.3826,Mapping
Blocked,Female,tile,18,F_lash.wav,None,729.8629162,106,874719.1436,881585.2198,882351.6958,868536.0098,869302.6945,870051.8089,870818.77,871585.4254,875468.4417,876235.4164,877001.9969,877768.7166,878535.0674,879302.2836,880069.1195,880818.2797,881594.967,Mapping
Blocked,Female,tile,18,F_tile.wav,None,729.8004634,106,874719.1436,881585.2198,882351.6958,883118.5527,869302.6945,870051.8089,870818.77,871585.4254,875468.4417,876235.4164,877001.9969,877768.7166,878535.0674,879302.2836,880069.1195,880818.2797,882361.0965,Mapping
Blocked,Female,tile,18,F_dime.wav,space,594.466497,106,874719.1436,881585.2198,882351.6958,883118.5527,883885.2622,870051.8089,870818.77,871585.4254,875468.4417,876235.4164,877001.9969,877768.7166,878535.0674,879302.2836,880069.1195,880818.2797,883127.9951,Mapping
Blocked,Female,tile,18,F_gnash.wav,None,724.4601311,106,874719.1436,881585.2198,882351.6958,883118.5527,883885.2622,884652.1138,870818.77,871585.4254,875468.4417,876235.4164,877001.9969,877768.7166,878535.0674,879302.2836,880069.1195,880818.2797,883894.7367,Mapping
Blocked,Female,tile,18,F_depth.wav,None,721.8451522,106,874719.1436,881585.2198,882351.6958,883118.5527,883885.2622,884652.1138,885418.6678,871585.4254,875468.4417,876235.4164,877001.9969,877768.7166,878535.0674,879302.2836,880069.1195,880818.2797,884661.6233,Mapping
Blocked,Female,tile,18,F_gnash.wav,None,719.5983976,106,874719.1436,881585.2198,882351.6958,883118.5527,883885.2622,884652.1138,885418.6678,886168.4417,875468.4417,876235.4164,877001.9969,877768.7166,878535.0674,879302.2836,880069.1195,880818.2797,885428.3303,Mapping
Blocked,Female,cave,7,F_reek.wav,None,734.3112864,106,889302.1964,881585.2198,882351.6958,883118.5527,883885.2622,884652.1138,885418.6678,886168.4417,875468.4417,876235.4164,877001.9969,877768.7166,878535.0674,879302.2836,880069.1195,880818.2797,886177.8108,Mapping
Blocked,Female,cave,7,F_cave.wav,None,725.2748001,106,889302.1964,881585.2198,882351.6958,883118.5527,883885.2622,884652.1138,885418.6678,886168.4417,890051.4741,876235.4164,877001.9969,877768.7166,878535.0674,879302.2836,880069.1195,880818.2797,889306.3068,Mapping
Blocked,Female,cave,7,F_tile.wav,space,501.26807,106,889302.1964,881585.2198,882351.6958,883118.5527,883885.2622,884652.1138,885418.6678,886168.4417,890051.4741,890818.4154,877001.9969,877768.7166,878535.0674,879302.2836,880069.1195,880818.2797,890061.0074,Mapping
Blocked,Female,cave,7,F_dime.wav,None,731.1113536,106,889302.1964,881585.2198,882351.6958,883118.5527,883885.2622,884652.1138,885418.6678,886168.4417,890051.4741,890818.4154,891585.0173,877768.7166,878535.0674,879302.2836,880069.1195,880818.2797,890828.0242,Mapping
Blocked,Female,cave,7,F_cave.wav,None,728.8995355,106,889302.1964,881585.2198,882351.6958,883118.5527,883885.2622,884652.1138,885418.6678,886168.4417,890051.4741,890818.4154,891585.0173,892351.4361,878535.0674,879302.2836,880069.1195,880818.2797,891594.4439,Mapping
Blocked,Female,cave,7,F_done.wav,space,481.5688513,106,889302.1964,881585.2198,882351.6958,883118.5527,883885.2622,884652.1138,885418.6678,886168.4417,890051.4741,890818.4154,891585.0173,892351.4361,893118.9015,879302.2836,880069.1195,880818.2797,892360.6825,Mapping
Blocked,Female,cave,7,F_ball.wav,None,722.8913911,106,889302.1964,881585.2198,882351.6958,883118.5527,883885.2622,884652.1138,885418.6678,886168.4417,890051.4741,890818.4154,891585.0173,892351.4361,893118.9015,893885.5797,880069.1195,880818.2797,893128.9814,Mapping
Blocked,Female,cave,7,F_jolt.wav,None,720.8131354,106,889302.1964,881585.2198,882351.6958,883118.5527,883885.2622,884652.1138,885418.6678,886168.4417,890051.4741,890818.4154,891585.0173,892351.4361,893118.9015,893885.5797,894651.8869,880818.2797,893895.3996,Mapping
Blocked,Female,cave,7,F_cling.wav,None,719.0792975,106,889302.1964,881585.2198,882351.6958,883118.5527,883885.2622,884652.1138,885418.6678,886168.4417,890051.4741,890818.4154,891585.0173,892351.4361,893118.9015,893885.5797,894651.8869,895401.305,894661.6895,Mapping
Blocked,Female,cave,7,F_cave.wav,None,734.7200121,106,889302.1964,896168.3508,882351.6958,883118.5527,883885.2622,884652.1138,885418.6678,886168.4417,890051.4741,890818.4154,891585.0173,892351.4361,893118.9015,893885.5797,894651.8869,895401.305,895410.513,Mapping
Blocked,Female,cave,7,F_cling.wav,space,424.2804712,106,889302.1964,896168.3508,896934.9814,883118.5527,883885.2622,884652.1138,885418.6678,886168.4417,890051.4741,890818.4154,891585.0173,892351.4361,893118.9015,893885.5797,894651.8869,895401.305,896177.869,Mapping
Blocked,Female,cave,7,F_lash.wav,None,727.6554263,106,889302.1964,896168.3508,896934.9814,897701.2617,883885.2622,884652.1138,885418.6678,886168.4417,890051.4741,890818.4154,891585.0173,892351.4361,893118.9015,893885.5797,894651.8869,895401.305,896944.7494,Mapping
Blocked,Female,cave,7,F_reek.wav,None,726.8370474,106,889302.1964,896168.3508,896934.9814,897701.2617,898468.0868,884652.1138,885418.6678,886168.4417,890051.4741,890818.4154,891585.0173,892351.4361,893118.9015,893885.5797,894651.8869,895401.305,897710.0713,Mapping
Blocked,Female,cave,7,F_depth.wav,None,723.9997736,106,889302.1964,896168.3508,896934.9814,897701.2617,898468.0868,899235.2739,885418.6678,886168.4417,890051.4741,890818.4154,891585.0173,892351.4361,893118.9015,893885.5797,894651.8869,895401.305,898477.2958,Mapping
Blocked,Female,cave,7,F_cave.wav,None,720.6143376,106,889302.1964,896168.3508,896934.9814,897701.2617,898468.0868,899235.2739,899985.3935,886168.4417,890051.4741,890818.4154,891585.0173,892351.4361,893118.9015,893885.5797,894651.8869,895401.305,899245.2252,Mapping
Blocked,Female,cave,7,F_lash.wav,space,503.2647043,106,889302.1964,896168.3508,896934.9814,897701.2617,898468.0868,899235.2739,899985.3935,900751.2007,890051.4741,890818.4154,891585.0173,892351.4361,893118.9015,893885.5797,894651.8869,895401.305,899994.7849,Mapping
Blocked,Female,tile,14,F_greet.wav,None,732.9500009,106,903885.2696,896168.3508,896934.9814,897701.2617,898468.0868,899235.2739,899985.3935,900751.2007,890051.4741,890818.4154,891585.0173,892351.4361,893118.9015,893885.5797,894651.8869,895401.305,900760.1998,Mapping
Blocked,Female,tile,14,F_depth.wav,None,719.2511972,106,903885.2696,896168.3508,896934.9814,897701.2617,898468.0868,899235.2739,899985.3935,900751.2007,904634.6842,890818.4154,891585.0173,892351.4361,893118.9015,893885.5797,894651.8869,895401.305,903895.121,Mapping
Blocked,Female,tile,14,F_jolt.wav,None,738.4003984,106,903885.2696,896168.3508,896934.9814,897701.2617,898468.0868,899235.2739,899985.3935,900751.2007,904634.6842,905401.4744,891585.0173,892351.4361,893118.9015,893885.5797,894651.8869,895401.305,904640.2846,Mapping
Blocked,Female,tile,14,F_tile.wav,None,732.3876166,106,903885.2696,896168.3508,896934.9814,897701.2617,898468.0868,899235.2739,899985.3935,900751.2007,904634.6842,905401.4744,906168.0447,892351.4361,893118.9015,893885.5797,894651.8869,895401.305,905410.7928,Mapping
Blocked,Female,tile,14,F_priest.wav,space,520.3025683,106,903885.2696,896168.3508,896934.9814,897701.2617,898468.0868,899235.2739,899985.3935,900751.2007,904634.6842,905401.4744,906168.0447,906934.7081,893118.9015,893885.5797,894651.8869,895401.305,906177.6859,Mapping
Blocked,Female,tile,14,F_depth.wav,None,726.6642201,106,903885.2696,896168.3508,896934.9814,897701.2617,898468.0868,899235.2739,899985.3935,900751.2007,904634.6842,905401.4744,906168.0447,906934.7081,907701.9001,893885.5797,894651.8869,895401.305,906944.123,Mapping
Blocked,Female,tile,14,F_priest.wav,None,723.6058883,106,903885.2696,896168.3508,896934.9814,897701.2617,898468.0868,899235.2739,899985.3935,900751.2007,904634.6842,905401.4744,906168.0447,906934.7081,907701.9001,908468.4009,894651.8869,895401.305,907711.6749,Mapping
Blocked,Female,tile,14,F_tile.wav,None,721.8080516,106,903885.2696,896168.3508,896934.9814,897701.2617,898468.0868,899235.2739,899985.3935,900751.2007,904634.6842,905401.4744,906168.0447,906934.7081,907701.9001,908468.4009,909234.8318,895401.305,908477.9206,Mapping
Blocked,Female,tile,14,F_ball.wav,space,452.5066603,106,903885.2696,896168.3508,896934.9814,897701.2617,898468.0868,899235.2739,899985.3935,900751.2007,904634.6842,905401.4744,906168.0447,906934.7081,907701.9001,908468.4009,909234.8318,909984.5031,909245.3882,Mapping
Blocked,Female,tile,14,F_cave.wav,None,733.8051713,106,903885.2696,910751.006,896934.9814,897701.2617,898468.0868,899235.2739,899985.3935,900751.2007,904634.6842,905401.4744,906168.0447,906934.7081,907701.9001,908468.4009,909234.8318,909984.5031,909993.7516,Mapping
Blocked,Female,tile,14,F_tile.wav,None,732.0558749,106,903885.2696,910751.006,911518.0509,897701.2617,898468.0868,899235.2739,899985.3935,900751.2007,904634.6842,905401.4744,906168.0447,906934.7081,907701.9001,908468.4009,909234.8318,909984.5031,910760.0786,Mapping
Blocked,Female,tile,14,F_lash.wav,space,586.2814711,106,903885.2696,910751.006,911518.0509,912284.3293,898468.0868,899235.2739,899985.3935,900751.2007,904634.6842,905401.4744,906168.0447,906934.7081,907701.9001,908468.4009,909234.8318,909984.5031,911527.5486,Mapping
Blocked,Female,tile,14,F_tile.wav,None,727.1477655,106,903885.2696,910751.006,911518.0509,912284.3293,913051.3189,899235.2739,899985.3935,900751.2007,904634.6842,905401.4744,906168.0447,906934.7081,907701.9001,908468.4009,909234.8318,909984.5031,912293.4379,Mapping
Blocked,Female,tile,14,F_cad.wav,space,684.8996875,106,903885.2696,910751.006,911518.0509,912284.3293,913051.3189,913817.559,899985.3935,900751.2007,904634.6842,905401.4744,906168.0447,906934.7081,907701.9001,908468.4009,909234.8318,909984.5031,913060.8791,Mapping
Blocked,Female,tile,14,F_cling.wav,None,722.9185983,106,903885.2696,910751.006,911518.0509,912284.3293,913051.3189,913817.559,914585.0844,900751.2007,904634.6842,905401.4744,906168.0447,906934.7081,907701.9001,908468.4009,909234.8318,909984.5031,913826.828,Mapping
Blocked,Female,tile,14,F_cling.wav,None,719.2969547,106,903885.2696,910751.006,911518.0509,912284.3293,913051.3189,913817.559,914585.0844,915334.2758,904634.6842,905401.4744,906168.0447,906934.7081,907701.9001,908468.4009,909234.8318,909984.5031,914595.062,Mapping
Blocked,Female,cave,9,F_lash.wav,None,735.3009467,106,918468.3239,910751.006,911518.0509,912284.3293,913051.3189,913817.559,914585.0844,915334.2758,904634.6842,905401.4744,906168.0447,906934.7081,907701.9001,908468.4009,909234.8318,909984.5031,915343.4628,Mapping
Blocked,Female,cave,9,F_park.wav,None,718.3895342,106,918468.3239,910751.006,911518.0509,912284.3293,913051.3189,913817.559,914585.0844,915334.2758,919217.6866,905401.4744,906168.0447,906934.7081,907701.9001,908468.4009,909234.8318,909984.5031,918478.4082,Mapping
Blocked,Female,cave,9,F_bluff.wav,None,734.1604102,106,918468.3239,910751.006,911518.0509,912284.3293,913051.3189,913817.559,914585.0844,915334.2758,919217.6866,919984.529,906168.0447,906934.7081,907701.9001,908468.4009,909234.8318,909984.5031,919227.1915,Mapping
Blocked,Female,cave,9,F_cave.wav,None,731.7538136,106,918468.3239,910751.006,911518.0509,912284.3293,913051.3189,913817.559,914585.0844,915334.2758,919217.6866,919984.529,920750.9908,906934.7081,907701.9001,908468.4009,909234.8318,909984.5031,919993.8614,Mapping
Blocked,Female,cave,9,F_jaw.wav,space,497.4423726,106,918468.3239,910751.006,911518.0509,912284.3293,913051.3189,913817.559,914585.0844,915334.2758,919217.6866,919984.529,920750.9908,921517.751,907701.9001,908468.4009,909234.8318,909984.5031,920760.2202,Mapping
Blocked,Female,cave,9,F_cave.wav,None,725.9181874,106,918468.3239,910751.006,911518.0509,912284.3293,913051.3189,913817.559,914585.0844,915334.2758,919217.6866,919984.529,920750.9908,921517.751,922284.799,908468.4009,909234.8318,909984.5031,921527.3093,Mapping
Blocked,Female,cave,9,F_jaw.wav,space,642.8776145,106,918468.3239,910751.006,911518.0509,912284.3293,913051.3189,913817.559,914585.0844,915334.2758,919217.6866,919984.529,920750.9908,921517.751,922284.799,923051.7387,909234.8318,909984.5031,922294.724,Mapping
Blocked,Female,cave,9,F_done.wav,None,719.6095278,106,918468.3239,910751.006,911518.0509,912284.3293,913051.3189,913817.559,914585.0844,915334.2758,919217.6866,919984.529,920750.9908,921517.751,922284.799,923051.7387,923800.6278,909984.5031,923061.4307,Mapping
Blocked,Female,cave,9,F_cave.wav,None,736.0021494,106,918468.3239,910751.006,911518.0509,912284.3293,913051.3189,913817.559,914585.0844,915334.2758,919217.6866,919984.529,920750.9908,921517.751,922284.799,923051.7387,923800.6278,924567.6934,923809.6918,Mapping
Blocked,Female,cave,9,F_lash.wav,space,512.5673879,106,918468.3239,925333.7802,911518.0509,912284.3293,913051.3189,913817.559,914585.0844,915334.2758,919217.6866,919984.529,920750.9908,921517.751,922284.799,923051.7387,923800.6278,924567.6934,924577.0567,Mapping
Blocked,Female,cave,9,F_bluff.wav,None,730.1643591,106,918468.3239,925333.7802,926101.0536,912284.3293,913051.3189,913817.559,914585.0844,915334.2758,919217.6866,919984.529,920750.9908,921517.751,922284.799,923051.7387,923800.6278,924567.6934,925343.149,Mapping
Blocked,Female,cave,9,F_jaw.wav,None,727.6433685,106,918468.3239,925333.7802,926101.0536,926867.687,913051.3189,913817.559,914585.0844,915334.2758,919217.6866,919984.529,920750.9908,921517.751,922284.799,923051.7387,923800.6278,924567.6934,926110.6391,Mapping
Blocked,Female,cave,9,F_cave.wav,None,726.1998433,106,918468.3239,925333.7802,926101.0536,926867.687,927634.0047,913817.559,914585.0844,915334.2758,919217.6866,919984.529,920750.9908,921517.751,922284.799,923051.7387,923800.6278,924567.6934,926876.6897,Mapping
Blocked,Female,cave,9,F_jaw.wav,space,622.6704258,106,918468.3239,925333.7802,926101.0536,926867.687,927634.0047,928401.2193,914585.0844,915334.2758,919217.6866,919984.529,920750.9908,921517.751,922284.799,923051.7387,923800.6278,924567.6934,927642.7719,Mapping
Blocked,Female,cave,9,F_reek.wav,None,719.622513,106,918468.3239,925333.7802,926101.0536,926867.687,927634.0047,928401.2193,929150.6253,915334.2758,919217.6866,919984.529,920750.9908,921517.751,922284.799,923051.7387,923800.6278,924567.6934,928411.0185,Mapping
Blocked,Female,cave,9,F_done.wav,None,735.1720219,106,918468.3239,925333.7802,926101.0536,926867.687,927634.0047,928401.2193,929150.6253,929917.5252,919217.6866,919984.529,920750.9908,921517.751,922284.799,923051.7387,923800.6278,924567.6934,929160.0677,Mapping
Blocked,Female,cave,8,F_depth.wav,None,733.3219352,106,933051.2472,925333.7802,926101.0536,926867.687,927634.0047,928401.2193,929150.6253,929917.5252,919217.6866,919984.529,920750.9908,921517.751,922284.799,923051.7387,923800.6278,924567.6934,929926.4952,Mapping
Blocked,Female,cave,8,F_bluff.wav,None,720.1882983,106,933051.2472,925333.7802,926101.0536,926867.687,927634.0047,928401.2193,929150.6253,929917.5252,933800.8251,919984.529,920750.9908,921517.751,922284.799,923051.7387,923800.6278,924567.6934,933061.1357,Mapping
Blocked,Female,cave,8,F_gnash.wav,None,735.4085386,106,933051.2472,925333.7802,926101.0536,926867.687,927634.0047,928401.2193,929150.6253,929917.5252,933800.8251,934567.4764,920750.9908,921517.751,922284.799,923051.7387,923800.6278,924567.6934,933810.4749,Mapping
Blocked,Female,cave,8,F_romp.wav,None,733.7770368,106,933051.2472,925333.7802,926101.0536,926867.687,927634.0047,928401.2193,929150.6253,929917.5252,933800.8251,934567.4764,935333.6312,921517.751,922284.799,923051.7387,923800.6278,924567.6934,934576.5493,Mapping
Blocked,Female,cave,8,F_depth.wav,None,735.757285,106,933051.2472,925333.7802,926101.0536,926867.687,927634.0047,928401.2193,929150.6253,929917.5252,933800.8251,934567.4764,935333.6312,936100.4603,922284.799,923051.7387,923800.6278,924567.6934,935339.2123,Mapping
Blocked,Female,cave,8,F_cling.wav,None,729.9661796,106,933051.2472,925333.7802,926101.0536,926867.687,927634.0047,928401.2193,929150.6253,929917.5252,933800.8251,934567.4764,935333.6312,936100.4603,936867.4211,923051.7387,923800.6278,924567.6934,936109.5422,Mapping
Blocked,Female,cave,8,F_cave.wav,None,727.7889887,106,933051.2472,925333.7802,926101.0536,926867.687,927634.0047,928401.2193,929150.6253,929917.5252,933800.8251,934567.4764,935333.6312,936100.4603,936867.4211,937633.7577,923800.6278,924567.6934,936876.7346,Mapping
Blocked,Female,cave,8,F_cling.wav,space,582.5475978,106,933051.2472,925333.7802,926101.0536,926867.687,927634.0047,928401.2193,929150.6253,929917.5252,933800.8251,934567.4764,935333.6312,936100.4603,936867.4211,937633.7577,938401.2187,924567.6934,937642.7607,Mapping
Blocked,Female,cave,8,F_cave.wav,None,720.9383502,106,933051.2472,925333.7802,926101.0536,926867.687,927634.0047,928401.2193,929150.6253,929917.5252,933800.8251,934567.4764,935333.6312,936100.4603,936867.4211,937633.7577,938401.2187,939167.909,938411.3503,Mapping
Blocked,Female,cave,8,F_park.wav,space,391.583033,106,933051.2472,939917.3614,926101.0536,926867.687,927634.0047,928401.2193,929150.6253,929917.5252,933800.8251,934567.4764,935333.6312,936100.4603,936867.4211,937633.7577,938401.2187,939167.909,939177.7026,Mapping
Blocked,Female,cave,8,F_cave.wav,None,733.4078851,106,933051.2472,939917.3614,940683.9555,926867.687,927634.0047,928401.2193,929150.6253,929917.5252,933800.8251,934567.4764,935333.6312,936100.4603,936867.4211,937633.7577,938401.2187,939167.909,939926.6378,Mapping
Blocked,Female,cave,8,F_cling.wav,None,731.212453,106,933051.2472,939917.3614,940683.9555,941450.5561,927634.0047,928401.2193,929150.6253,929917.5252,933800.8251,934567.4764,935333.6312,936100.4603,936867.4211,937633.7577,938401.2187,939167.909,940693.4907,Mapping
Blocked,Female,cave,8,F_gnash.wav,space,0.034936471,106,933051.2472,939917.3614,940683.9555,941450.5561,942217.2943,928401.2193,929150.6253,929917.5252,933800.8251,934567.4764,935333.6312,936100.4603,936867.4211,937633.7577,938401.2187,939167.909,941459.924,Mapping
Blocked,Female,cave,8,F_cave.wav,None,725.6869266,106,933051.2472,939917.3614,940683.9555,941450.5561,942217.2943,942984.4196,929150.6253,929917.5252,933800.8251,934567.4764,935333.6312,936100.4603,936867.4211,937633.7577,938401.2187,939167.909,942226.7475,Mapping
Blocked,Female,cave,8,F_lash.wav,None,722.8508897,106,933051.2472,939917.3614,940683.9555,941450.5561,942217.2943,942984.4196,943751.3634,929917.5252,933800.8251,934567.4764,935333.6312,936100.4603,936867.4211,937633.7577,938401.2187,939167.909,942994.0231,Mapping
Blocked,Female,cave,8,F_jaw.wav,space,143.5675323,106,933051.2472,939917.3614,940683.9555,941450.5561,942217.2943,942984.4196,943751.3634,944500.4682,933800.8251,934567.4764,935333.6312,936100.4603,936867.4211,937633.7577,938401.2187,939167.909,943761.6359,Mapping
Blocked,Female,done,22,F_knife.wav,None,734.9673499,106,947650.5018,939917.3614,940683.9555,941450.5561,942217.2943,942984.4196,943751.3634,944500.4682,933800.8251,934567.4764,935333.6312,936100.4603,936867.4211,937633.7577,938401.2187,939167.909,944510.0897,Mapping
Blocked,Female,done,22,F_done.wav,None,720.0346396,106,947650.5018,939917.3614,940683.9555,941450.5561,942217.2943,942984.4196,943751.3634,944500.4682,948400.2417,934567.4764,935333.6312,936100.4603,936867.4211,937633.7577,938401.2187,939167.909,947660.4451,Mapping
Blocked,Female,done,22,F_park.wav,space,519.3731966,106,947650.5018,939917.3614,940683.9555,941450.5561,942217.2943,942984.4196,943751.3634,944500.4682,948400.2417,949167.1908,935333.6312,936100.4603,936867.4211,937633.7577,938401.2187,939167.909,948409.6557,Mapping
Blocked,Female,done,22,F_depth.wav,None,731.1948302,106,947650.5018,939917.3614,940683.9555,941450.5561,942217.2943,942984.4196,943751.3634,944500.4682,948400.2417,949167.1908,949933.882,936100.4603,936867.4211,937633.7577,938401.2187,939167.909,949176.9312,Mapping
Blocked,Female,done,22,F_done.wav,None,729.5624006,106,947650.5018,939917.3614,940683.9555,941450.5561,942217.2943,942984.4196,943751.3634,944500.4682,948400.2417,949167.1908,949933.882,950700.434,936867.4211,937633.7577,938401.2187,939167.909,949943.1908,Mapping
Blocked,Female,done,22,F_depth.wav,space,499.189505,106,947650.5018,939917.3614,940683.9555,941450.5561,942217.2943,942984.4196,943751.3634,944500.4682,948400.2417,949167.1908,949933.882,950700.434,951467.1333,937633.7577,938401.2187,939167.909,950709.8357,Mapping
Blocked,Female,done,22,F_done.wav,None,724.6793343,106,947650.5018,939917.3614,940683.9555,941450.5561,942217.2943,942984.4196,943751.3634,944500.4682,948400.2417,949167.1908,949933.882,950700.434,951467.1333,952234.1896,938401.2187,939167.909,951476.0421,Mapping
Blocked,Female,done,22,F_cave.wav,space,404.9031008,106,947650.5018,939917.3614,940683.9555,941450.5561,942217.2943,942984.4196,943751.3634,944500.4682,948400.2417,949167.1908,949933.882,950700.434,951467.1333,952234.1896,952983.936,939167.909,952244.1119,Mapping
Blocked,Female,done,22,F_romp.wav,None,735.3995726,106,947650.5018,939917.3614,940683.9555,941450.5561,942217.2943,942984.4196,943751.3634,944500.4682,948400.2417,949167.1908,949933.882,950700.434,951467.1333,952234.1896,952983.936,953750.0182,952993.6277,Mapping
Blocked,Female,done,22,F_jaw.wav,None,734.4371196,106,947650.5018,954517.154,940683.9555,941450.5561,942217.2943,942984.4196,943751.3634,944500.4682,948400.2417,949167.1908,949933.882,950700.434,951467.1333,952234.1896,952983.936,953750.0182,953759.1656,Mapping
Blocked,Female,done,22,F_depth.wav,None,731.7355725,106,947650.5018,954517.154,955283.673,941450.5561,942217.2943,942984.4196,943751.3634,944500.4682,948400.2417,949167.1908,949933.882,950700.434,951467.1333,952234.1896,952983.936,953750.0182,954526.8276,Mapping
Blocked,Female,done,22,F_done.wav,None,730.0270867,106,947650.5018,954517.154,955283.673,956050.0269,942217.2943,942984.4196,943751.3634,944500.4682,948400.2417,949167.1908,949933.882,950700.434,951467.1333,952234.1896,952983.936,953750.0182,955293.2292,Mapping
Blocked,Female,done,22,F_cling.wav,space,269.8102888,106,947650.5018,954517.154,955283.673,956050.0269,956817.0594,942984.4196,943751.3634,944500.4682,948400.2417,949167.1908,949933.882,950700.434,951467.1333,952234.1896,952983.936,953750.0182,956059.1208,Mapping
Blocked,Female,done,22,F_priest.wav,None,724.2149576,106,947650.5018,954517.154,955283.673,956050.0269,956817.0594,957583.8814,943751.3634,944500.4682,948400.2417,949167.1908,949933.882,950700.434,951467.1333,952234.1896,952983.936,953750.0182,956826.9498,Mapping
Blocked,Female,done,22,F_jaw.wav,None,723.251886,106,947650.5018,954517.154,955283.673,956050.0269,956817.0594,957583.8814,958350.4783,944500.4682,948400.2417,949167.1908,949933.882,950700.434,951467.1333,952234.1896,952983.936,953750.0182,957592.9639,Mapping
Blocked,Female,done,22,F_gnash.wav,None,721.458687,106,947650.5018,954517.154,955283.673,956050.0269,956817.0594,957583.8814,958350.4783,959117.5593,948400.2417,949167.1908,949933.882,950700.434,951467.1333,952234.1896,952983.936,953750.0182,958360.1096,Mapping
Blocked,Female,ball,2,F_bluff.wav,None,719.5835573,106,962234.2731,954517.154,955283.673,956050.0269,956817.0594,957583.8814,958350.4783,959117.5593,948400.2417,949167.1908,949933.882,950700.434,951467.1333,952234.1896,952983.936,953750.0182,959126.9777,Mapping
Blocked,Female,ball,2,F_priest.wav,None,719.1191807,106,962234.2731,954517.154,955283.673,956050.0269,956817.0594,957583.8814,958350.4783,959117.5593,962982.9946,949167.1908,949933.882,950700.434,951467.1333,952234.1896,952983.936,953750.0182,962244.0859,Mapping
Blocked,Female,ball,2,F_ball.wav,None,736.136021,106,962234.2731,954517.154,955283.673,956050.0269,956817.0594,957583.8814,958350.4783,959117.5593,962982.9946,963750.0862,949933.882,950700.434,951467.1333,952234.1896,952983.936,953750.0182,962991.8564,Mapping
Blocked,Female,ball,2,F_priest.wav,space,376.9202301,106,962234.2731,954517.154,955283.673,956050.0269,956817.0594,957583.8814,958350.4783,959117.5593,962982.9946,963750.0862,964516.6516,950700.434,951467.1333,952234.1896,952983.936,953750.0182,963759.8369,Mapping
Blocked,Female,ball,2,F_ball.wav,None,730.3248195,106,962234.2731,954517.154,955283.673,956050.0269,956817.0594,957583.8814,958350.4783,959117.5593,962982.9946,963750.0862,964516.6516,965283.468,951467.1333,952234.1896,952983.936,953750.0182,964525.4299,Mapping
Blocked,Female,ball,2,F_knife.wav,space,355.724927,106,962234.2731,954517.154,955283.673,956050.0269,956817.0594,957583.8814,958350.4783,959117.5593,962982.9946,963750.0862,964516.6516,965283.468,966050.3342,952234.1896,952983.936,953750.0182,965292.9911,Mapping
Blocked,Female,ball,2,F_gnash.wav,None,724.0452219,106,962234.2731,954517.154,955283.673,956050.0269,956817.0594,957583.8814,958350.4783,959117.5593,962982.9946,963750.0862,964516.6516,965283.468,966050.3342,966817.2158,952983.936,953750.0182,966059.8023,Mapping
Blocked,Female,ball,2,F_cad.wav,None,721.0394494,106,962234.2731,954517.154,955283.673,956050.0269,956817.0594,957583.8814,958350.4783,959117.5593,962982.9946,963750.0862,964516.6516,965283.468,966050.3342,966817.2158,967583.7014,953750.0182,966827.5227,Mapping
Blocked,Female,ball,2,F_tile.wav,None,720.2996003,106,962234.2731,954517.154,955283.673,956050.0269,956817.0594,957583.8814,958350.4783,959117.5593,962982.9946,963750.0862,964516.6516,965283.468,966050.3342,966817.2158,967583.7014,968350.3701,967593.5881,Mapping
Blocked,Female,ball,2,F_done.wav,None,718.9015234,106,962234.2731,969099.6654,955283.673,956050.0269,956817.0594,957583.8814,958350.4783,959117.5593,962982.9946,963750.0862,964516.6516,965283.468,966050.3342,966817.2158,967583.7014,968350.3701,968359.746,Mapping
Blocked,Female,ball,2,F_lash.wav,None,734.6340622,106,962234.2731,969099.6654,969866.9242,956050.0269,956817.0594,957583.8814,958350.4783,959117.5593,962982.9946,963750.0862,964516.6516,965283.468,966050.3342,966817.2158,967583.7014,968350.3701,969108.8453,Mapping
Blocked,Female,ball,2,F_ball.wav,None,731.8944869,106,962234.2731,969099.6654,969866.9242,970633.3199,956817.0594,957583.8814,958350.4783,959117.5593,962982.9946,963750.0862,964516.6516,965283.468,966050.3342,966817.2158,967583.7014,968350.3701,969876.414,Mapping
Blocked,Female,ball,2,F_priest.wav,space,565.8046842,106,962234.2731,969099.6654,969866.9242,970633.3199,971399.8772,957583.8814,958350.4783,959117.5593,962982.9946,963750.0862,964516.6516,965283.468,966050.3342,966817.2158,967583.7014,968350.3701,970642.804,Mapping
Blocked,Female,ball,2,F_ball.wav,None,726.9127946,106,962234.2731,969099.6654,969866.9242,970633.3199,971399.8772,972166.6018,958350.4783,959117.5593,962982.9946,963750.0862,964516.6516,965283.468,966050.3342,966817.2158,967583.7014,968350.3701,971409.2578,Mapping
Blocked,Female,ball,2,F_priest.wav,space,601.1223571,106,962234.2731,969099.6654,969866.9242,970633.3199,971399.8772,972166.6018,972933.7265,959117.5593,962982.9946,963750.0862,964516.6516,965283.468,966050.3342,966817.2158,967583.7014,968350.3701,972175.4574,Mapping
Blocked,Female,ball,2,F_dime.wav,None,720.8864092,106,962234.2731,969099.6654,969866.9242,970633.3199,971399.8772,972166.6018,972933.7265,973700.5534,962982.9946,963750.0862,964516.6516,965283.468,966050.3342,966817.2158,967583.7014,968350.3701,972943.7356,Mapping
Blocked,Female,done,23,F_greet.wav,None,719.1290741,106,976816.9212,969099.6654,969866.9242,970633.3199,971399.8772,972166.6018,972933.7265,973700.5534,962982.9946,963750.0862,964516.6516,965283.468,966050.3342,966817.2158,967583.7014,968350.3701,973710.4435,Mapping
Blocked,Female,done,23,F_depth.wav,None,720.6285596,106,976816.9212,969099.6654,969866.9242,970633.3199,971399.8772,972166.6018,972933.7265,973700.5534,977566.3377,963750.0862,964516.6516,965283.468,966050.3342,966817.2158,967583.7014,968350.3701,976826.3577,Mapping
Blocked,Female,done,23,F_done.wav,None,736.4977525,106,976816.9212,969099.6654,969866.9242,970633.3199,971399.8772,972166.6018,972933.7265,973700.5534,977566.3377,978332.6162,964516.6516,965283.468,966050.3342,966817.2158,967583.7014,968350.3701,977575.5328,Mapping
Blocked,Female,done,23,F_jolt.wav,space,474.3904901,106,976816.9212,969099.6654,969866.9242,970633.3199,971399.8772,972166.6018,972933.7265,973700.5534,977566.3377,978332.6162,979099.5225,965283.468,966050.3342,966817.2158,967583.7014,968350.3701,978342.0623,Mapping
Blocked,Female,done,23,F_jolt.wav,None,731.3469428,106,976816.9212,969099.6654,969866.9242,970633.3199,971399.8772,972166.6018,972933.7265,973700.5534,977566.3377,978332.6162,979099.5225,979866.53,966050.3342,966817.2158,967583.7014,968350.3701,979108.7343,Mapping
Blocked,Female,done,23,F_lash.wav,None,729.5874436,106,976816.9212,969099.6654,969866.9242,970633.3199,971399.8772,972166.6018,972933.7265,973700.5534,977566.3377,978332.6162,979099.5225,979866.53,980632.9139,966817.2158,967583.7014,968350.3701,979875.5987,Mapping
Blocked,Female,done,23,F_park.wav,None,727.8894697,106,976816.9212,969099.6654,969866.9242,970633.3199,971399.8772,972166.6018,972933.7265,973700.5534,977566.3377,978332.6162,979099.5225,979866.53,980632.9139,981399.4941,967583.7014,968350.3701,980642.1356,Mapping
Blocked,Female,done,23,F_done.wav,None,726.4508912,106,976816.9212,969099.6654,969866.9242,970633.3199,971399.8772,972166.6018,972933.7265,973700.5534,977566.3377,978332.6162,979099.5225,979866.53,980632.9139,981399.4941,982166.8071,968350.3701,981408.3937,Mapping
Blocked,Female,done,23,F_gnash.wav,space,495.3675177,106,976816.9212,969099.6654,969866.9242,970633.3199,971399.8772,972166.6018,972933.7265,973700.5534,977566.3377,978332.6162,979099.5225,979866.53,980632.9139,981399.4941,982166.8071,982933.703,982177.0054,Mapping
Blocked,Female,done,23,F_romp.wav,None,718.9466625,106,976816.9212,983682.6811,969866.9242,970633.3199,971399.8772,972166.6018,972933.7265,973700.5534,977566.3377,978332.6162,979099.5225,979866.53,980632.9139,981399.4941,982166.8071,982933.703,982943.7186,Mapping
Blocked,Female,done,23,F_done.wav,None,735.9007408,106,976816.9212,983682.6811,984449.4338,970633.3199,971399.8772,972166.6018,972933.7265,973700.5534,977566.3377,978332.6162,979099.5225,979866.53,980632.9139,981399.4941,982166.8071,982933.703,983691.6038,Mapping
Blocked,Female,done,23,F_reek.wav,None,733.9776895,106,976816.9212,983682.6811,984449.4338,985216.1055,971399.8772,972166.6018,972933.7265,973700.5534,977566.3377,978332.6162,979099.5225,979866.53,980632.9139,981399.4941,982166.8071,982933.703,984458.3973,Mapping
Blocked,Female,done,23,F_depth.wav,space,78.99598172,106,976816.9212,983682.6811,984449.4338,985216.1055,985983.0521,972166.6018,972933.7265,973700.5534,977566.3377,978332.6162,979099.5225,979866.53,980632.9139,981399.4941,982166.8071,982933.703,985225.2876,Mapping
Blocked,Female,done,23,F_knife.wav,None,727.1168482,106,976816.9212,983682.6811,984449.4338,985216.1055,985983.0521,986749.393,972933.7265,973700.5534,977566.3377,978332.6162,979099.5225,979866.53,980632.9139,981399.4941,982166.8071,982933.703,985992.949,Mapping
Blocked,Female,done,23,F_done.wav,None,726.6255736,106,976816.9212,983682.6811,984449.4338,985216.1055,985983.0521,986749.393,987516.4463,973700.5534,977566.3377,978332.6162,979099.5225,979866.53,980632.9139,981399.4941,982166.8071,982933.703,986758.509,Mapping
Blocked,Female,done,23,F_bluff.wav,space,466.7196176,106,976816.9212,983682.6811,984449.4338,985216.1055,985983.0521,986749.393,987516.4463,988282.7315,977566.3377,978332.6162,979099.5225,979866.53,980632.9139,981399.4941,982166.8071,982933.703,987525.5406,Mapping
Blocked,Female,tile,17,F_jaw.wav,None,721.1779587,106,991399.8123,983682.6811,984449.4338,985216.1055,985983.0521,986749.393,987516.4463,988282.7315,977566.3377,978332.6162,979099.5225,979866.53,980632.9139,981399.4941,982166.8071,982933.703,988292.1573,Mapping
Blocked,Female,tile,17,F_romp.wav,None,719.954564,106,991399.8123,983682.6811,984449.4338,985216.1055,985983.0521,986749.393,987516.4463,988282.7315,992149.5039,978332.6162,979099.5225,979866.53,980632.9139,981399.4941,982166.8071,982933.703,991409.4714,Mapping
Blocked,Female,tile,17,F_tile.wav,None,735.6589682,106,991399.8123,983682.6811,984449.4338,985216.1055,985983.0521,986749.393,987516.4463,988282.7315,992149.5039,992916.2044,979099.5225,979866.53,980632.9139,981399.4941,982166.8071,982933.703,992158.8892,Mapping
Blocked,Female,tile,17,F_knife.wav,space,402.9342919,106,991399.8123,983682.6811,984449.4338,985216.1055,985983.0521,986749.393,987516.4463,988282.7315,992149.5039,992916.2044,993682.661,979866.53,980632.9139,981399.4941,982166.8071,982933.703,992925.214,Mapping
Blocked,Female,tile,17,F_tile.wav,None,731.2211099,106,991399.8123,983682.6811,984449.4338,985216.1055,985983.0521,986749.393,987516.4463,988282.7315,992149.5039,992916.2044,993682.661,994449.3009,980632.9139,981399.4941,982166.8071,982933.703,993691.465,Mapping
Blocked,Female,tile,17,F_dime.wav,space,549.3582666,106,991399.8123,983682.6811,984449.4338,985216.1055,985983.0521,986749.393,987516.4463,988282.7315,992149.5039,992916.2044,993682.661,994449.3009,995216.1918,981399.4941,982166.8071,982933.703,994458.7535,Mapping
Blocked,Female,tile,17,F_dime.wav,None,725.2299701,106,991399.8123,983682.6811,984449.4338,985216.1055,985983.0521,986749.393,987516.4463,988282.7315,992149.5039,992916.2044,993682.661,994449.3009,995216.1918,995983.2849,982166.8071,982933.703,995225.7263,Mapping
Blocked,Female,tile,17,F_greet.wav,None,722.853363,106,991399.8123,983682.6811,984449.4338,985216.1055,985983.0521,986749.393,987516.4463,988282.7315,992149.5039,992916.2044,993682.661,994449.3009,995216.1918,995983.2849,996749.8033,982933.703,995993.2112,Mapping
Blocked,Female,tile,17,F_bluff.wav,None,721.4620879,106,991399.8123,983682.6811,984449.4338,985216.1055,985983.0521,986749.393,987516.4463,988282.7315,992149.5039,992916.2044,993682.661,994449.3009,995216.1918,995983.2849,996749.8033,997516.4401,996759.7664,Mapping
Blocked,Female,tile,17,F_tile.wav,None,720.362053,106,991399.8123,998266.2523,984449.4338,985216.1055,985983.0521,986749.393,987516.4463,988282.7315,992149.5039,992916.2044,993682.661,994449.3009,995216.1918,995983.2849,996749.8033,997516.4401,997526.0532,Mapping
Blocked,Female,tile,17,F_jaw.wav,space,580.3311421,106,991399.8123,998266.2523,999032.7426,985216.1055,985983.0521,986749.393,987516.4463,988282.7315,992149.5039,992916.2044,993682.661,994449.3009,995216.1918,995983.2849,996749.8033,997516.4401,998275.722,Mapping
Blocked,Female,tile,17,F_knife.wav,None,732.4157513,106,991399.8123,998266.2523,999032.7426,999799.312,985983.0521,986749.393,987516.4463,988282.7315,992149.5039,992916.2044,993682.661,994449.3009,995216.1918,995983.2849,996749.8033,997516.4401,999042.3186,Mapping
Blocked,Female,tile,17,F_knife.wav,None,731.0928033,106,991399.8123,998266.2523,999032.7426,999799.312,1000566.118,986749.393,987516.4463,988282.7315,992149.5039,992916.2044,993682.661,994449.3009,995216.1918,995983.2849,996749.8033,997516.4401,999808.6273,Mapping
Blocked,Female,tile,17,F_dime.wav,None,729.5781685,106,991399.8123,998266.2523,999032.7426,999799.312,1000566.118,1001332.31,987516.4463,988282.7315,992149.5039,992916.2044,993682.661,994449.3009,995216.1918,995983.2849,996749.8033,997516.4401,1000575.436,Mapping
Blocked,Female,tile,17,F_tile.wav,None,728.1881301,106,991399.8123,998266.2523,999032.7426,999799.312,1000566.118,1001332.31,1002099.179,988282.7315,992149.5039,992916.2044,993682.661,994449.3009,995216.1918,995983.2849,996749.8033,997516.4401,1001341.868,Mapping
Blocked,Female,tile,17,F_dime.wav,space,499.2556679,106,991399.8123,998266.2523,999032.7426,999799.312,1000566.118,1001332.31,1002099.179,1002866.641,992149.5039,992916.2044,993682.661,994449.3009,995216.1918,995983.2849,996749.8033,997516.4401,1002108.723,Mapping
Blocked,Female,tile,13,F_romp.wav,None,721.7907381,106,1005982.958,998266.2523,999032.7426,999799.312,1000566.118,1001332.31,1002099.179,1002866.641,992149.5039,992916.2044,993682.661,994449.3009,995216.1918,995983.2849,996749.8033,997516.4401,1002876.949,Mapping
Blocked,Female,tile,13,F_cling.wav,None,718.9605753,106,1005982.958,998266.2523,999032.7426,999799.312,1000566.118,1001332.31,1002099.179,1002866.641,1006732.419,992916.2044,993682.661,994449.3009,995216.1918,995983.2849,996749.8033,997516.4401,1005992.999,Mapping
Blocked,Female,tile,13,F_tile.wav,None,734.8823275,106,1005982.958,998266.2523,999032.7426,999799.312,1000566.118,1001332.31,1002099.179,1002866.641,1006732.419,1007499.036,993682.661,994449.3009,995216.1918,995983.2849,996749.8033,997516.4401,1006742.297,Mapping
Blocked,Female,tile,13,F_bluff.wav,space,627.5454537,106,1005982.958,998266.2523,999032.7426,999799.312,1000566.118,1001332.31,1002099.179,1002866.641,1006732.419,1007499.036,1008265.658,994449.3009,995216.1918,995983.2849,996749.8033,997516.4401,1007508.274,Mapping
Blocked,Female,tile,13,F_greet.wav,None,730.6268808,106,1005982.958,998266.2523,999032.7426,999799.312,1000566.118,1001332.31,1002099.179,1002866.641,1006732.419,1007499.036,1008265.658,1009032.256,995216.1918,995983.2849,996749.8033,997516.4401,1008274.954,Mapping
Blocked,Female,tile,13,F_romp.wav,None,729.4758324,106,1005982.958,998266.2523,999032.7426,999799.312,1000566.118,1001332.31,1002099.179,1002866.641,1006732.419,1007499.036,1008265.658,1009032.256,1009799.153,995983.2849,996749.8033,997516.4401,1009041.109,Mapping
Blocked,Female,tile,13,F_bluff.wav,None,726.6094966,106,1005982.958,998266.2523,999032.7426,999799.312,1000566.118,1001332.31,1002099.179,1002866.641,1006732.419,1007499.036,1008265.658,1009032.256,1009799.153,1010565.992,996749.8033,997516.4401,1009808.867,Mapping
Blocked,Female,tile,13,F_cave.wav,None,725.5808805,106,1005982.958,998266.2523,999032.7426,999799.312,1000566.118,1001332.31,1002099.179,1002866.641,1006732.419,1007499.036,1008265.658,1009032.256,1009799.153,1010565.992,1011332.246,997516.4401,1010574.89,Mapping
Blocked,Female,tile,13,F_tile.wav,None,723.8108695,106,1005982.958,998266.2523,999032.7426,999799.312,1000566.118,1001332.31,1002099.179,1002866.641,1006732.419,1007499.036,1008265.658,1009032.256,1009799.153,1010565.992,1011332.246,1012099.342,1011341.991,Mapping
Blocked,Female,tile,13,F_cave.wav,space,354.2761458,106,1005982.958,1012849.174,999032.7426,999799.312,1000566.118,1001332.31,1002099.179,1002866.641,1006732.419,1007499.036,1008265.658,1009032.256,1009799.153,1010565.992,1011332.246,1012099.342,1012109.448,Mapping
Blocked,Female,tile,13,F_jolt.wav,None,735.8008783,106,1005982.958,1012849.174,1013615.851,999799.312,1000566.118,1001332.31,1002099.179,1002866.641,1006732.419,1007499.036,1008265.658,1009032.256,1009799.153,1010565.992,1011332.246,1012099.342,1012858.416,Mapping
Blocked,Female,tile,13,F_tile.wav,None,734.3786858,106,1005982.958,1012849.174,1013615.851,1014382.144,1000566.118,1001332.31,1002099.179,1002866.641,1006732.419,1007499.036,1008265.658,1009032.256,1009799.153,1010565.992,1011332.246,1012099.342,1013625.152,Mapping
Blocked,Female,tile,13,F_cling.wav,space,416.7604747,106,1005982.958,1012849.174,1013615.851,1014382.144,1015148.884,1001332.31,1002099.179,1002866.641,1006732.419,1007499.036,1008265.658,1009032.256,1009799.153,1010565.992,1011332.246,1012099.342,1014390.928,Mapping
Blocked,Female,tile,13,F_tile.wav,None,729.3435067,106,1005982.958,1012849.174,1013615.851,1014382.144,1015148.884,1015915.817,1002099.179,1002866.641,1006732.419,1007499.036,1008265.658,1009032.256,1009799.153,1010565.992,1011332.246,1012099.342,1015158.3,Mapping
Blocked,Female,tile,13,F_ball.wav,space,570.8027626,106,1005982.958,1012849.174,1013615.851,1014382.144,1015148.884,1015915.817,1016682.275,1002866.641,1006732.419,1007499.036,1008265.658,1009032.256,1009799.153,1010565.992,1011332.246,1012099.342,1015924.824,Mapping
Blocked,Female,tile,13,F_priest.wav,None,724.4332331,106,1005982.958,1012849.174,1013615.851,1014382.144,1015148.884,1015915.817,1016682.275,1017448.884,1006732.419,1007499.036,1008265.658,1009032.256,1009799.153,1010565.992,1011332.246,1012099.342,1016691.824,Mapping
Blocked,Female,ball,3,F_reek.wav,None,723.7750054,106,1020566.226,1012849.174,1013615.851,1014382.144,1015148.884,1015915.817,1016682.275,1017448.884,1006732.419,1007499.036,1008265.658,1009032.256,1009799.153,1010565.992,1011332.246,1012099.342,1017457.772,Mapping
Blocked,Female,ball,3,F_gnash.wav,None,718.6362535,106,1020566.226,1012849.174,1013615.851,1014382.144,1015148.884,1015915.817,1016682.275,1017448.884,1021315.176,1007499.036,1008265.658,1009032.256,1009799.153,1010565.992,1011332.246,1012099.342,1020576.073,Mapping
Blocked,Female,ball,3,F_cling.wav,None,735.645983,106,1020566.226,1012849.174,1013615.851,1014382.144,1015148.884,1015915.817,1016682.275,1017448.884,1021315.176,1022082.323,1008265.658,1009032.256,1009799.153,1010565.992,1011332.246,1012099.342,1021324.331,Mapping
Blocked,Female,ball,3,F_done.wav,None,733.1033504,106,1020566.226,1012849.174,1013615.851,1014382.144,1015148.884,1015915.817,1016682.275,1017448.884,1021315.176,1022082.323,1022848.576,1009032.256,1009799.153,1010565.992,1011332.246,1012099.342,1022092.032,Mapping
Blocked,Female,ball,3,F_ball.wav,None,732.5684824,106,1020566.226,1012849.174,1013615.851,1014382.144,1015148.884,1015915.817,1016682.275,1017448.884,1021315.176,1022082.323,1022848.576,1023615.64,1009799.153,1010565.992,1011332.246,1012099.342,1022857.602,Mapping
Blocked,Female,ball,3,F_greet.wav,space,358.977419,106,1020566.226,1012849.174,1013615.851,1014382.144,1015148.884,1015915.817,1016682.275,1017448.884,1021315.176,1022082.323,1022848.576,1023615.64,1024382.178,1010565.992,1011332.246,1012099.342,1023624.557,Mapping
Blocked,Female,ball,3,F_cad.wav,None,726.6456697,106,1020566.226,1012849.174,1013615.851,1014382.144,1015148.884,1015915.817,1016682.275,1017448.884,1021315.176,1022082.323,1022848.576,1023615.64,1024382.178,1025148.642,1011332.246,1012099.342,1024391.672,Mapping
Blocked,Female,ball,3,F_depth.wav,None,725.0469401,106,1020566.226,1012849.174,1013615.851,1014382.144,1015148.884,1015915.817,1016682.275,1017448.884,1021315.176,1022082.323,1022848.576,1023615.64,1024382.178,1025148.642,1025916.113,1012099.342,1025158.293,Mapping
Blocked,Female,ball,3,F_tile.wav,None,722.8898454,106,1020566.226,1012849.174,1013615.851,1014382.144,1015148.884,1015915.817,1016682.275,1017448.884,1021315.176,1022082.323,1022848.576,1023615.64,1024382.178,1025148.642,1025916.113,1026682.384,1025925.726,Mapping
Blocked,Female,ball,3,F_ball.wav,None,721.0777868,106,1020566.226,1027449.197,1013615.851,1014382.144,1015148.884,1015915.817,1016682.275,1017448.884,1021315.176,1022082.323,1022848.576,1023615.64,1024382.178,1025148.642,1025916.113,1026682.384,1026692.686,Mapping
Blocked,Female,ball,3,F_cad.wav,space,324.3726973,106,1020566.226,1027449.197,1028198.257,1014382.144,1015148.884,1015915.817,1016682.275,1017448.884,1021315.176,1022082.323,1022848.576,1023615.64,1024382.178,1025148.642,1025916.113,1026682.384,1027459.029,Mapping
Blocked,Female,ball,3,F_lash.wav,None,734.4822586,106,1020566.226,1027449.197,1028198.257,1028965.486,1015148.884,1015915.817,1016682.275,1017448.884,1021315.176,1022082.323,1022848.576,1023615.64,1024382.178,1025148.642,1025916.113,1026682.384,1028207.549,Mapping
Blocked,Female,ball,3,F_ball.wav,None,732.160375,106,1020566.226,1027449.197,1028198.257,1028965.486,1029732.086,1015915.817,1016682.275,1017448.884,1021315.176,1022082.323,1022848.576,1023615.64,1024382.178,1025148.642,1025916.113,1026682.384,1028975.065,Mapping
Blocked,Female,ball,3,F_priest.wav,space,402.0169779,106,1020566.226,1027449.197,1028198.257,1028965.486,1029732.086,1030498.474,1016682.275,1017448.884,1021315.176,1022082.323,1022848.576,1023615.64,1024382.178,1025148.642,1025916.113,1026682.384,1029741.351,Mapping
Blocked,Female,ball,3,F_ball.wav,None,728.1315515,106,1020566.226,1027449.197,1028198.257,1028965.486,1029732.086,1030498.474,1031265.483,1017448.884,1021315.176,1022082.323,1022848.576,1023615.64,1024382.178,1025148.642,1025916.113,1026682.384,1030507.333,Mapping
Blocked,Female,ball,3,F_knife.wav,space,500.3535384,106,1020566.226,1027449.197,1028198.257,1028965.486,1029732.086,1030498.474,1031265.483,1032032.357,1021315.176,1022082.323,1022848.576,1023615.64,1024382.178,1025148.642,1025916.113,1026682.384,1031274.977,Mapping
Blocked,Female,tile,16,F_greet.wav,None,721.1482781,106,1035149.186,1027449.197,1028198.257,1028965.486,1029732.086,1030498.474,1031265.483,1032032.357,1021315.176,1022082.323,1022848.576,1023615.64,1024382.178,1025148.642,1025916.113,1026682.384,1032042.469,Mapping
Blocked,Female,tile,16,F_dime.wav,None,719.5900499,106,1035149.186,1027449.197,1028198.257,1028965.486,1029732.086,1030498.474,1031265.483,1032032.357,1035898.451,1022082.323,1022848.576,1023615.64,1024382.178,1025148.642,1025916.113,1026682.384,1035159.059,Mapping
Blocked,Female,tile,16,F_tile.wav,None,736.6776908,106,1035149.186,1027449.197,1028198.257,1028965.486,1029732.086,1030498.474,1031265.483,1032032.357,1035898.451,1036665.72,1022848.576,1023615.64,1024382.178,1025148.642,1025916.113,1026682.384,1035907.332,Mapping
Blocked,Female,tile,16,F_ball.wav,None,734.2939727,106,1035149.186,1027449.197,1028198.257,1028965.486,1029732.086,1030498.474,1031265.483,1032032.357,1035898.451,1036665.72,1037431.892,1023615.64,1024382.178,1025148.642,1025916.113,1026682.384,1036674.959,Mapping
Blocked,Female,tile,16,F_tile.wav,space,0.034936471,106,1035149.186,1027449.197,1028198.257,1028965.486,1029732.086,1030498.474,1031265.483,1032032.357,1035898.451,1036665.72,1037431.892,1038198.428,1024382.178,1025148.642,1025916.113,1026682.384,1037441.715,Mapping
Blocked,Female,tile,16,F_depth.wav,space,455.2137725,106,1035149.186,1027449.197,1028198.257,1028965.486,1029732.086,1030498.474,1031265.483,1032032.357,1035898.451,1036665.72,1037431.892,1038198.428,1038965.293,1025148.642,1025916.113,1026682.384,1038207.995,Mapping
Blocked,Female,tile,16,F_depth.wav,None,726.1599601,106,1035149.186,1027449.197,1028198.257,1028965.486,1029732.086,1030498.474,1031265.483,1032032.357,1035898.451,1036665.72,1037431.892,1038198.428,1038965.293,1039731.916,1025916.113,1026682.384,1038974.727,Mapping
Blocked,Female,tile,16,F_knife.wav,None,724.8382488,106,1035149.186,1027449.197,1028198.257,1028965.486,1029732.086,1030498.474,1031265.483,1032032.357,1035898.451,1036665.72,1037431.892,1038198.428,1038965.293,1039731.916,1040498.005,1026682.384,1039741.458,Mapping
Blocked,Female,tile,16,F_dime.wav,None,727.4696138,106,1035149.186,1027449.197,1028198.257,1028965.486,1029732.086,1030498.474,1031265.483,1032032.357,1035898.451,1036665.72,1037431.892,1038198.428,1038965.293,1039731.916,1040498.005,1041265.01,1040506.867,Mapping
Blocked,Female,tile,16,F_gnash.wav,None,725.4003239,106,1035149.186,1042032.36,1028198.257,1028965.486,1029732.086,1030498.474,1031265.483,1032032.357,1035898.451,1036665.72,1037431.892,1038198.428,1038965.293,1039731.916,1040498.005,1041265.01,1041274.211,Mapping
