"Condition","Talker","Target","Trial","current_stimulus","response_response","response_time_response","subject_nr","time_Audio1","time_Audio10","time_Audio11","time_Audio12","time_Audio13","time_Audio14","time_Audio15","time_Audio16","time_Audio2","time_Audio3","time_Audio4","time_Audio5","time_Audio6","time_Audio7","time_Audio8","time_Audio9","time_response"
"Mixed","Female","cave","22","M_bluff.wav","NA","NA","227","236348.341862","NA","NA","NA","NA","NA","NA","NA","NA","NA","NA","NA","NA","NA","NA","NA","NA"
"Mixed","Female","cave","22","M_reek.wav","None","717.869562621","227","236348.341862","NA","NA","NA","NA","NA","NA","NA","237114.846565","NA","NA","NA","NA","NA","NA","NA","236362.366717"
"Mixed","Female","cave","22","M_ball.wav","None","720.634774421","227","236348.341862","NA","NA","NA","NA","NA","NA","NA","237114.846565","237864.657663","NA","NA","NA","NA","NA","NA","237124.338687"
"Mixed","Female","cave","22","F_cave.wav","None","735.419876873","227","236348.341862","NA","NA","NA","NA","NA","NA","NA","237114.846565","237864.657663","238631.362089","NA","NA","NA","NA","NA","237874.379806"
"Mixed","Female","cave","22","M_knife.wav","space","460.666223138","227","236348.341862","NA","NA","NA","NA","NA","NA","NA","237114.846565","237864.657663","238631.362089","239398.261293","NA","NA","NA","NA","238641.16709"
"Mixed","Female","cave","22","M_depth.wav","None","731.67799873","227","236348.341862","NA","NA","NA","NA","NA","NA","NA","237114.846565","237864.657663","238631.362089","239398.261293","240164.527317","NA","NA","NA","239408.012189"
"Mixed","Female","cave","22","F_cave.wav","None","730.626822566","227","236348.341862","NA","NA","NA","NA","NA","NA","NA","237114.846565","237864.657663","238631.362089","239398.261293","240164.527317","240931.176711","NA","NA","240173.882476"
"Mixed","Female","cave","22","F_gnash.wav","space","585.366947053","227","236348.341862","NA","NA","NA","NA","NA","NA","NA","237114.846565","237864.657663","238631.362089","239398.261293","240164.527317","240931.176711","241697.98471","NA","240940.364301"
"Mixed","Female","cave","22","F_knife.wav","None","727.076938667","227","236348.341862","NA","NA","NA","NA","NA","NA","NA","237114.846565","237864.657663","238631.362089","239398.261293","240164.527317","240931.176711","241697.98471","242464.834755","241707.498164"
"Mixed","Female","cave","22","M_jolt.wav","None","723.378962663","227","236348.341862","243231.723756","NA","NA","NA","NA","NA","NA","237114.846565","237864.657663","238631.362089","239398.261293","240164.527317","240931.176711","241697.98471","242464.834755","242476.236307"
"Mixed","Female","cave","22","F_cave.wav","None","722.725996689","227","236348.341862","243231.723756","243998.222276","NA","NA","NA","NA","NA","237114.846565","237864.657663","238631.362089","239398.261293","240164.527317","240931.176711","241697.98471","242464.834755","243241.810101"
"Mixed","Female","cave","22","M_reek.wav","space","430.076995573","227","236348.341862","243231.723756","243998.222276","244765.470222","NA","NA","NA","NA","237114.846565","237864.657663","238631.362089","239398.261293","240164.527317","240931.176711","241697.98471","242464.834755","244007.559503"
"Mixed","Female","cave","22","F_gnash.wav","None","718.495630834","227","236348.341862","243231.723756","243998.222276","244765.470222","245514.799015","NA","NA","NA","237114.846565","237864.657663","238631.362089","239398.261293","240164.527317","240931.176711","241697.98471","242464.834755","244775.79741"
"Mixed","Female","cave","22","F_cave.wav","None","735.029705043","227","236348.341862","243231.723756","243998.222276","244765.470222","245514.799015","246281.668229","NA","NA","237114.846565","237864.657663","238631.362089","239398.261293","240164.527317","240931.176711","241697.98471","242464.834755","245524.393781"
"Mixed","Female","cave","22","F_romp.wav","space","666.56010627","227","236348.341862","243231.723756","243998.222276","244765.470222","245514.799015","246281.668229","247048.313295","NA","237114.846565","237864.657663","238631.362089","239398.261293","240164.527317","240931.176711","241697.98471","242464.834755","246291.034209"
"Mixed","Female","cave","22","M_cling.wav","None","729.419515759","227","236348.341862","243231.723756","243998.222276","244765.470222","245514.799015","246281.668229","247048.313295","247815.007519","237114.846565","237864.657663","238631.362089","239398.261293","240164.527317","240931.176711","241697.98471","242464.834755","247059.990008"
"Mixed","Female","cave","20","M_tile.wav","None","730.165850895","227","250965.222763","243231.723756","243998.222276","244765.470222","245514.799015","246281.668229","247048.313295","247815.007519","237114.846565","237864.657663","238631.362089","239398.261293","240164.527317","240931.176711","241697.98471","242464.834755","247824.062784"
"Mixed","Female","cave","20","F_depth.wav","None","721.968840691","227","250965.222763","243231.723756","243998.222276","244765.470222","245514.799015","246281.668229","247048.313295","247815.007519","251731.559896","237864.657663","238631.362089","239398.261293","240164.527317","240931.176711","241697.98471","242464.834755","250974.581014"
"Mixed","Female","cave","20","F_cave.wav","None","718.004051363","227","250965.222763","243231.723756","243998.222276","244765.470222","245514.799015","246281.668229","247048.313295","247815.007519","251731.559896","252481.331111","238631.362089","239398.261293","240164.527317","240931.176711","241697.98471","242464.834755","251743.435405"
"Mixed","Female","cave","20","F_reek.wav","space","554.584797763","227","250965.222763","243231.723756","243998.222276","244765.470222","245514.799015","246281.668229","247048.313295","247815.007519","251731.559896","252481.331111","253248.145292","239398.261293","240164.527317","240931.176711","241697.98471","242464.834755","252490.813648"
"Mixed","Female","cave","20","F_cave.wav","None","734.435481252","227","250965.222763","243231.723756","243998.222276","244765.470222","245514.799015","246281.668229","247048.313295","247815.007519","251731.559896","252481.331111","253248.145292","254014.999666","240164.527317","240931.176711","241697.98471","242464.834755","253257.484375"
"Mixed","Female","cave","20","M_cad.wav","space","645.05211357","227","250965.222763","243231.723756","243998.222276","244765.470222","245514.799015","246281.668229","247048.313295","247815.007519","251731.559896","252481.331111","253248.145292","254014.999666","254781.3739","240931.176711","241697.98471","242464.834755","254024.315252"
"Mixed","Female","cave","20","F_cave.wav","None","730.645681906","227","250965.222763","243231.723756","243998.222276","244765.470222","245514.799015","246281.668229","247048.313295","247815.007519","251731.559896","252481.331111","253248.145292","254014.999666","254781.3739","255548.064414","241697.98471","242464.834755","254791.105936"
"Mixed","Female","cave","20","M_park.wav","space","447.745721729","227","250965.222763","243231.723756","243998.222276","244765.470222","245514.799015","246281.668229","247048.313295","247815.007519","251731.559896","252481.331111","253248.145292","254014.999666","254781.3739","255548.064414","256314.779661","242464.834755","255557.533965"
"Mixed","Female","cave","20","M_priest.wav","None","727.886035165","227","250965.222763","243231.723756","243998.222276","244765.470222","245514.799015","246281.668229","247048.313295","247815.007519","251731.559896","252481.331111","253248.145292","254014.999666","254781.3739","255548.064414","256314.779661","257081.343106","256323.942517"
"Mixed","Female","cave","20","M_knife.wav","None","725.91136978","227","250965.222763","257847.641903","243998.222276","244765.470222","245514.799015","246281.668229","247048.313295","247815.007519","251731.559896","252481.331111","253248.145292","254014.999666","254781.3739","255548.064414","256314.779661","257081.343106","257090.798127"
"Mixed","Female","cave","20","F_reek.wav","None","725.062390382","227","250965.222763","257847.641903","258615.080916","244765.470222","245514.799015","246281.668229","247048.313295","247815.007519","251731.559896","252481.331111","253248.145292","254014.999666","254781.3739","255548.064414","256314.779661","257081.343106","257856.698095"
"Mixed","Female","cave","20","M_depth.wav","None","721.639575204","227","250965.222763","257847.641903","258615.080916","259381.554393","245514.799015","246281.668229","247048.313295","247815.007519","251731.559896","252481.331111","253248.145292","254014.999666","254781.3739","255548.064414","256314.779661","257081.343106","258625.045757"
"Mixed","Female","cave","20","M_cling.wav","None","721.615459945","227","250965.222763","257847.641903","258615.080916","259381.554393","260148.256655","246281.668229","247048.313295","247815.007519","251731.559896","252481.331111","253248.145292","254014.999666","254781.3739","255548.064414","256314.779661","257081.343106","259390.918827"
"Mixed","Female","cave","20","F_cave.wav","None","720.275828673","227","250965.222763","257847.641903","258615.080916","259381.554393","260148.256655","260915.104227","247048.313295","247815.007519","251731.559896","252481.331111","253248.145292","254014.999666","254781.3739","255548.064414","256314.779661","257081.343106","260157.920675"
"Mixed","Female","cave","20","M_lash.wav","space","544.276160072","227","250965.222763","257847.641903","258615.080916","259381.554393","260148.256655","260915.104227","261664.504438","247815.007519","251731.559896","252481.331111","253248.145292","254014.999666","254781.3739","255548.064414","256314.779661","257081.343106","260924.82637"
"Mixed","Female","cave","20","F_bluff.wav","None","735.158010328","227","250965.222763","257847.641903","258615.080916","259381.554393","260148.256655","260915.104227","261664.504438","262431.075922","251731.559896","252481.331111","253248.145292","254014.999666","254781.3739","255548.064414","256314.779661","257081.343106","261673.774576"
"Mixed","Female","done","45","M_gnash.wav","None","733.642770734","227","265564.889725","257847.641903","258615.080916","259381.554393","260148.256655","260915.104227","261664.504438","262431.075922","251731.559896","252481.331111","253248.145292","254014.999666","254781.3739","255548.064414","256314.779661","257081.343106","262440.311123"
"Mixed","Female","done","45","F_romp.wav","None","722.321912181","227","265564.889725","257847.641903","258615.080916","259381.554393","260148.256655","260915.104227","261664.504438","262431.075922","266331.464301","252481.331111","253248.145292","254014.999666","254781.3739","255548.064414","256314.779661","257081.343106","265574.140076"
"Mixed","Female","done","45","F_done.wav","None","720.727834385","227","265564.889725","257847.641903","258615.080916","259381.554393","260148.256655","260915.104227","261664.504438","262431.075922","266331.464301","267097.693225","253248.145292","254014.999666","254781.3739","255548.064414","256314.779661","257081.343106","266341.119354"
"Mixed","Female","done","45","F_cad.wav","space","401.916294242","227","265564.889725","257847.641903","258615.080916","259381.554393","260148.256655","260915.104227","261664.504438","262431.075922","266331.464301","267097.693225","267847.144449","254014.999666","254781.3739","255548.064414","256314.779661","257081.343106","267107.02365"
"Mixed","Female","done","45","F_done.wav","None","735.400708334","227","265564.889725","257847.641903","258615.080916","259381.554393","260148.256655","260915.104227","261664.504438","262431.075922","266331.464301","267097.693225","267847.144449","268614.212768","254781.3739","255548.064414","256314.779661","257081.343106","267856.766112"
"Mixed","Female","done","45","M_cad.wav","space","525.316960528","227","265564.889725","257847.641903","258615.080916","259381.554393","260148.256655","260915.104227","261664.504438","262431.075922","266331.464301","267097.693225","267847.144449","268614.212768","269381.317569","255548.064414","256314.779661","257081.343106","268623.584931"
"Mixed","Female","done","45","F_done.wav","None","732.060441398","227","265564.889725","257847.641903","258615.080916","259381.554393","260148.256655","260915.104227","261664.504438","262431.075922","266331.464301","267097.693225","267847.144449","268614.212768","269381.317569","270147.26484","256314.779661","257081.343106","269390.717867"
"Mixed","Female","done","45","M_cave.wav","space","344.508779177","227","265564.889725","257847.641903","258615.080916","259381.554393","260148.256655","260915.104227","261664.504438","262431.075922","266331.464301","267097.693225","267847.144449","268614.212768","269381.317569","270147.26484","270913.913306","257081.343106","270156.370808"
"Mixed","Female","done","45","M_dime.wav","None","729.756819666","227","265564.889725","257847.641903","258615.080916","259381.554393","260148.256655","260915.104227","261664.504438","262431.075922","266331.464301","267097.693225","267847.144449","268614.212768","269381.317569","270147.26484","270913.913306","271680.975133","270923.075853"
"Mixed","Female","done","45","M_dime.wav","None","727.476694796","227","265564.889725","272447.440571","258615.080916","259381.554393","260148.256655","260915.104227","261664.504438","262431.075922","266331.464301","267097.693225","267847.144449","268614.212768","269381.317569","270147.26484","270913.913306","271680.975133","271690.31607"
"Mixed","Female","done","45","M_jolt.wav","None","726.405422611","227","265564.889725","272447.440571","273214.262792","259381.554393","260148.256655","260915.104227","261664.504438","262431.075922","266331.464301","267097.693225","267847.144449","268614.212768","269381.317569","270147.26484","270913.913306","271680.975133","272456.977831"
"Mixed","Female","done","45","M_cling.wav","None","725.613021234","227","265564.889725","272447.440571","273214.262792","273981.164159","260148.256655","260915.104227","261664.504438","262431.075922","266331.464301","267097.693225","267847.144449","268614.212768","269381.317569","270147.26484","270913.913306","271680.975133","273223.445125"
"Mixed","Female","done","45","F_park.wav","None","723.411425424","227","265564.889725","272447.440571","273214.262792","273981.164159","274747.395866","260915.104227","261664.504438","262431.075922","266331.464301","267097.693225","267847.144449","268614.212768","269381.317569","270147.26484","270913.913306","271680.975133","273990.752741"
"Mixed","Female","done","45","M_priest.wav","None","722.449290042","227","265564.889725","272447.440571","273214.262792","273981.164159","274747.395866","275514.577341","261664.504438","262431.075922","266331.464301","267097.693225","267847.144449","268614.212768","269381.317569","270147.26484","270913.913306","271680.975133","274756.83079"
"Mixed","Female","done","45","F_done.wav","None","720.54326022","227","265564.889725","272447.440571","273214.262792","273981.164159","274747.395866","275514.577341","276281.166447","262431.075922","266331.464301","267097.693225","267847.144449","268614.212768","269381.317569","270147.26484","270913.913306","271680.975133","275524.224665"
"Mixed","Female","done","45","F_dime.wav","space","346.234254015","227","265564.889725","272447.440571","273214.262792","273981.164159","274747.395866","275514.577341","276281.166447","277030.587063","266331.464301","267097.693225","267847.144449","268614.212768","269381.317569","270147.26484","270913.913306","271680.975133","276290.462864"
"Mixed","Female","ball","10","F_knife.wav","None","734.375193191","227","280164.501347","272447.440571","273214.262792","273981.164159","274747.395866","275514.577341","276281.166447","277030.587063","266331.464301","267097.693225","267847.144449","268614.212768","269381.317569","270147.26484","270913.913306","271680.975133","277040.221402"
"Mixed","Female","ball","10","M_park.wav","None","721.760460408","227","280164.501347","272447.440571","273214.262792","273981.164159","274747.395866","275514.577341","276281.166447","277030.587063","280930.906497","267097.693225","267847.144449","268614.212768","269381.317569","270147.26484","270913.913306","271680.975133","280174.00769"
"Mixed","Female","ball","10","F_jolt.wav","None","720.369197836","227","280164.501347","272447.440571","273214.262792","273981.164159","274747.395866","275514.577341","276281.166447","277030.587063","280930.906497","281681.071285","267847.144449","268614.212768","269381.317569","270147.26484","270913.913306","271680.975133","280940.490133"
"Mixed","Female","ball","10","F_ball.wav","None","736.059857649","227","280164.501347","272447.440571","273214.262792","273981.164159","274747.395866","275514.577341","276281.166447","277030.587063","280930.906497","281681.071285","282446.992585","268614.212768","269381.317569","270147.26484","270913.913306","271680.975133","281690.045856"
"Mixed","Female","ball","10","M_cad.wav","space","523.889834236","227","280164.501347","272447.440571","273214.262792","273981.164159","274747.395866","275514.577341","276281.166447","277030.587063","280930.906497","281681.071285","282446.992585","283213.931671","269381.317569","270147.26484","270913.913306","271680.975133","282456.59848"
"Mixed","Female","ball","10","M_cling.wav","None","732.690837933","227","280164.501347","272447.440571","273214.262792","273981.164159","274747.395866","275514.577341","276281.166447","277030.587063","280930.906497","281681.071285","282446.992585","283213.931671","283980.51614","270147.26484","270913.913306","271680.975133","283222.985699"
"Mixed","Female","ball","10","F_ball.wav","None","731.22444714","227","280164.501347","272447.440571","273214.262792","273981.164159","274747.395866","275514.577341","276281.166447","277030.587063","280930.906497","281681.071285","282446.992585","283213.931671","283980.51614","284747.175428","270913.913306","271680.975133","283989.994658"
"Mixed","Female","ball","10","M_bluff.wav","space","327.794459183","227","280164.501347","272447.440571","273214.262792","273981.164159","274747.395866","275514.577341","276281.166447","277030.587063","280930.906497","281681.071285","282446.992585","283213.931671","283980.51614","284747.175428","285513.927466","271680.975133","284756.65209"
"Mixed","Female","ball","10","F_ball.wav","None","727.732068743","227","280164.501347","272447.440571","273214.262792","273981.164159","274747.395866","275514.577341","276281.166447","277030.587063","280930.906497","281681.071285","282446.992585","283213.931671","283980.51614","284747.175428","285513.927466","286280.486893","285523.449577"
"Mixed","Female","ball","10","M_lash.wav","space","498.953770497","227","280164.501347","287047.189464","273214.262792","273981.164159","274747.395866","275514.577341","276281.166447","277030.587063","280930.906497","281681.071285","282446.992585","283213.931671","283980.51614","284747.175428","285513.927466","286280.486893","286289.429001"
"Mixed","Female","ball","10","F_ball.wav","None","724.714265554","227","280164.501347","287047.189464","287814.183892","273981.164159","274747.395866","275514.577341","276281.166447","277030.587063","280930.906497","281681.071285","282446.992585","283213.931671","283980.51614","284747.175428","285513.927466","286280.486893","287056.571212"
"Mixed","Female","ball","10","M_cad.wav","space","451.832632942","227","280164.501347","287047.189464","287814.183892","288580.683339","274747.395866","275514.577341","276281.166447","277030.587063","280930.906497","281681.071285","282446.992585","283213.931671","283980.51614","284747.175428","285513.927466","286280.486893","287824.517263"
"Mixed","Female","ball","10","M_gnash.wav","None","721.46396694","227","280164.501347","287047.189464","287814.183892","288580.683339","289347.482371","275514.577341","276281.166447","277030.587063","280930.906497","281681.071285","282446.992585","283213.931671","283980.51614","284747.175428","285513.927466","286280.486893","288590.018711"
"Mixed","Female","ball","10","M_bluff.wav","None","719.565975538","227","280164.501347","287047.189464","287814.183892","288580.683339","289347.482371","290096.851975","276281.166447","277030.587063","280930.906497","281681.071285","282446.992585","283213.931671","283980.51614","284747.175428","285513.927466","286280.486893","289357.131241"
"Mixed","Female","ball","10","F_cling.wav","None","735.640314699","227","280164.501347","287047.189464","287814.183892","288580.683339","289347.482371","290096.851975","290863.214769","277030.587063","280930.906497","281681.071285","282446.992585","283213.931671","283980.51614","284747.175428","285513.927466","286280.486893","290106.364501"
"Mixed","Female","ball","10","F_done.wav","None","735.472744855","227","280164.501347","287047.189464","287814.183892","288580.683339","289347.482371","290096.851975","290863.214769","291629.947021","280930.906497","281681.071285","282446.992585","283213.931671","283980.51614","284747.175428","285513.927466","286280.486893","290872.32352"
"Mixed","Male","cave","17","M_dime.wav","None","734.002644022","227","294764.013415","287047.189464","287814.183892","288580.683339","289347.482371","290096.851975","290863.214769","291629.947021","280930.906497","281681.071285","282446.992585","283213.931671","283980.51614","284747.175428","285513.927466","286280.486893","291638.995174"
"Mixed","Male","cave","17","M_cave.wav","None","721.598764823","227","294764.013415","287047.189464","287814.183892","288580.683339","289347.482371","290096.851975","290863.214769","291629.947021","295530.597266","281681.071285","282446.992585","283213.931671","283980.51614","284747.175428","285513.927466","286280.486893","294773.51543"
"Mixed","Male","cave","17","F_lash.wav","space","663.978850294","227","294764.013415","287047.189464","287814.183892","288580.683339","289347.482371","290096.851975","290863.214769","291629.947021","295530.597266","296297.54099","282446.992585","283213.931671","283980.51614","284747.175428","285513.927466","286280.486893","295540.126797"
"Mixed","Male","cave","17","F_gnash.wav","None","718.631974596","227","294764.013415","287047.189464","287814.183892","288580.683339","289347.482371","290096.851975","290863.214769","291629.947021","295530.597266","296297.54099","297063.095924","283213.931671","283980.51614","284747.175428","285513.927466","286280.486893","296307.310745"
"Mixed","Male","cave","17","M_cave.wav","None","721.201791253","227","294764.013415","287047.189464","287814.183892","288580.683339","289347.482371","290096.851975","290863.214769","291629.947021","295530.597266","296297.54099","297063.095924","297813.333366","283980.51614","284747.175428","285513.927466","286280.486893","297071.83429"
"Mixed","Male","cave","17","F_jaw.wav","space","421.89575301","227","294764.013415","287047.189464","287814.183892","288580.683339","289347.482371","290096.851975","290863.214769","291629.947021","295530.597266","296297.54099","297063.095924","297813.333366","298579.951225","284747.175428","285513.927466","286280.486893","297822.167266"
"Mixed","Male","cave","17","F_cling.wav","None","733.778805297","227","294764.013415","287047.189464","287814.183892","288580.683339","289347.482371","290096.851975","290863.214769","291629.947021","295530.597266","296297.54099","297063.095924","297813.333366","298579.951225","299346.648232","285513.927466","286280.486893","298589.55743"
"Mixed","Male","cave","17","M_tile.wav","None","732.934154279","227","294764.013415","287047.189464","287814.183892","288580.683339","289347.482371","290096.851975","290863.214769","291629.947021","295530.597266","296297.54099","297063.095924","297813.333366","298579.951225","299346.648232","300113.495495","286280.486893","299356.11933"
"Mixed","Male","cave","17","F_ball.wav","None","731.372539303","227","294764.013415","287047.189464","287814.183892","288580.683339","289347.482371","290096.851975","290863.214769","291629.947021","295530.597266","296297.54099","297063.095924","297813.333366","298579.951225","299346.648232","300113.495495","300880.068215","300123.238043"
"Mixed","Male","cave","17","M_romp.wav","None","730.502536462","227","294764.013415","301646.585285","287814.183892","288580.683339","289347.482371","290096.851975","290863.214769","291629.947021","295530.597266","296297.54099","297063.095924","297813.333366","298579.951225","299346.648232","300113.495495","300880.068215","300889.464803"
"Mixed","Male","cave","17","M_cave.wav","None","729.083757731","227","294764.013415","301646.585285","302413.396684","288580.683339","289347.482371","290096.851975","290863.214769","291629.947021","295530.597266","296297.54099","297063.095924","297813.333366","298579.951225","299346.648232","300113.495495","300880.068215","301656.038142"
"Mixed","Male","cave","17","F_tile.wav","space","442.614126776","227","294764.013415","301646.585285","302413.396684","303179.900769","289347.482371","290096.851975","290863.214769","291629.947021","295530.597266","296297.54099","297063.095924","297813.333366","298579.951225","299346.648232","300113.495495","300880.068215","302417.269959"
"Mixed","Male","cave","17","F_gnash.wav","None","726.127788366","227","294764.013415","301646.585285","302413.396684","303179.900769","303946.507498","290096.851975","290863.214769","291629.947021","295530.597266","296297.54099","297063.095924","297813.333366","298579.951225","299346.648232","300113.495495","300880.068215","303188.961599"
"Mixed","Male","cave","17","F_romp.wav","None","724.449616508","227","294764.013415","301646.585285","302413.396684","303179.900769","303946.507498","304713.692992","290863.214769","291629.947021","295530.597266","296297.54099","297063.095924","297813.333366","298579.951225","299346.648232","300113.495495","300880.068215","303956.273543"
"Mixed","Male","cave","17","M_cave.wav","None","722.698171448","227","294764.013415","301646.585285","302413.396684","303179.900769","303946.507498","304713.692992","305480.219028","291629.947021","295530.597266","296297.54099","297063.095924","297813.333366","298579.951225","299346.648232","300113.495495","300880.068215","304723.263024"
"Mixed","Male","cave","17","M_depth.wav","space","521.941448271","227","294764.013415","301646.585285","302413.396684","303179.900769","303946.507498","304713.692992","305480.219028","306246.488144","295530.597266","296297.54099","297063.095924","297813.333366","298579.951225","299346.648232","300113.495495","300880.068215","305489.876864"
"Mixed","Female","ball","11","M_tile.wav","None","720.642503642","227","309363.542798","301646.585285","302413.396684","303179.900769","303946.507498","304713.692992","305480.219028","306246.488144","295530.597266","296297.54099","297063.095924","297813.333366","298579.951225","299346.648232","300113.495495","300880.068215","306255.567524"
"Mixed","Female","ball","11","M_reek.wav","None","721.605566563","227","309363.542798","301646.585285","302413.396684","303179.900769","303946.507498","304713.692992","305480.219028","306246.488144","310130.116755","296297.54099","297063.095924","297813.333366","298579.951225","299346.648232","300113.495495","300880.068215","309373.25412"
"Mixed","Female","ball","11","F_ball.wav","None","720.341372536","227","309363.542798","301646.585285","302413.396684","303179.900769","303946.507498","304713.692992","305480.219028","306246.488144","310130.116755","310896.930936","297063.095924","297813.333366","298579.951225","299346.648232","300113.495495","300880.068215","310140.101692"
"Mixed","Female","ball","11","M_dime.wav","space","433.600909193","227","309363.542798","301646.585285","302413.396684","303179.900769","303946.507498","304713.692992","305480.219028","306246.488144","310130.116755","310896.930936","311645.667979","297813.333366","298579.951225","299346.648232","300113.495495","300880.068215","310906.056692"
"Mixed","Female","ball","11","M_romp.wav","None","531.051745056","227","309363.542798","301646.585285","302413.396684","303179.900769","303946.507498","304713.692992","305480.219028","306246.488144","310130.116755","310896.930936","311645.667979","312412.857183","298579.951225","299346.648232","300113.495495","300880.068215","311860.03156"
"Mixed","Female","ball","11","F_depth.wav","None","734.727646399","227","309363.542798","301646.585285","302413.396684","303179.900769","303946.507498","304713.692992","305480.219028","306246.488144","310130.116755","310896.930936","311645.667979","312412.857183","313179.671056","299346.648232","300113.495495","300880.068215","312422.196884"
"Mixed","Female","ball","11","M_tile.wav","None","738.800645049","227","309363.542798","301646.585285","302413.396684","303179.900769","303946.507498","304713.692992","305480.219028","306246.488144","310130.116755","310896.930936","311645.667979","312412.857183","313179.671056","313946.232646","300113.495495","300880.068215","313184.024162"
"Mixed","Female","ball","11","F_ball.wav","None","732.890561398","227","309363.542798","301646.585285","302413.396684","303179.900769","303946.507498","304713.692992","305480.219028","306246.488144","310130.116755","310896.930936","311645.667979","312412.857183","313179.671056","313946.232646","314712.946348","300880.068215","313955.747337"
"Mixed","Female","ball","11","F_dime.wav","space","377.669060079","227","309363.542798","301646.585285","302413.396684","303179.900769","303946.507498","304713.692992","305480.219028","306246.488144","310130.116755","310896.930936","311645.667979","312412.857183","313179.671056","313946.232646","314712.946348","315479.676126","314721.867124"
"Mixed","Female","ball","11","M_romp.wav","None","730.027342972","227","309363.542798","316246.266779","302413.396684","303179.900769","303946.507498","304713.692992","305480.219028","306246.488144","310130.116755","310896.930936","311645.667979","312412.857183","313179.671056","313946.232646","314712.946348","315479.676126","315489.071168"
"Mixed","Female","ball","11","F_greet.wav","None","729.151156673","227","309363.542798","316246.266779","317012.99934","303179.900769","303946.507498","304713.692992","305480.219028","306246.488144","310130.116755","310896.930936","311645.667979","312412.857183","313179.671056","313946.232646","314712.946348","315479.676126","316255.714379"
"Mixed","Female","ball","11","F_ball.wav","None","728.033199848","227","309363.542798","316246.266779","317012.99934","317779.889886","303946.507498","304713.692992","305480.219028","306246.488144","310130.116755","310896.930936","311645.667979","312412.857183","313179.671056","313946.232646","314712.946348","315479.676126","317022.603071"
"Mixed","Female","ball","11","M_romp.wav","space","301.807219221","227","309363.542798","316246.266779","317012.99934","317779.889886","318546.100569","304713.692992","305480.219028","306246.488144","310130.116755","310896.930936","311645.667979","312412.857183","313179.671056","313946.232646","314712.946348","315479.676126","317789.598117"
"Mixed","Female","ball","11","M_romp.wav","None","721.119861293","227","309363.542798","316246.266779","317012.99934","317779.889886","318546.100569","319313.115402","305480.219028","306246.488144","310130.116755","310896.930936","311645.667979","312412.857183","313179.671056","313946.232646","314712.946348","315479.676126","318559.609729"
"Mixed","Female","ball","11","F_ball.wav","None","723.091435037","227","309363.542798","316246.266779","317012.99934","317779.889886","318546.100569","319313.115402","320080.141983","306246.488144","310130.116755","310896.930936","311645.667979","312412.857183","313179.671056","313946.232646","314712.946348","315479.676126","319322.957194"
"Mixed","Female","ball","11","F_reek.wav","space","456.961445336","227","309363.542798","316246.266779","317012.99934","317779.889886","318546.100569","319313.115402","320080.141983","320846.52611","310130.116755","310896.930936","311645.667979","312412.857183","313179.671056","313946.232646","314712.946348","315479.676126","320090.408264"
"Mixed","Female","ball","8","F_park.wav","None","720.308600634","227","323963.1167","316246.266779","317012.99934","317779.889886","318546.100569","319313.115402","320080.141983","320846.52611","310130.116755","310896.930936","311645.667979","312412.857183","313179.671056","313946.232646","314712.946348","315479.676126","320856.57319"
"Mixed","Female","ball","8","M_lash.wav","None","721.866814711","227","323963.1167","316246.266779","317012.99934","317779.889886","318546.100569","319313.115402","320080.141983","320846.52611","324729.65263","310896.930936","311645.667979","312412.857183","313179.671056","313946.232646","314712.946348","315479.676126","323972.814728"
"Mixed","Female","ball","8","F_ball.wav","None","721.047206491","227","323963.1167","316246.266779","317012.99934","317779.889886","318546.100569","319313.115402","320080.141983","320846.52611","324729.65263","325495.711201","311645.667979","312412.857183","313179.671056","313946.232646","314712.946348","315479.676126","324739.217096"
"Mixed","Female","ball","8","M_done.wav","space","458.043229301","227","323963.1167","316246.266779","317012.99934","317779.889886","318546.100569","319313.115402","320080.141983","320846.52611","324729.65263","325495.711201","326245.876298","312412.857183","313179.671056","313946.232646","314712.946348","315479.676126","325505.140252"
"Mixed","Female","ball","8","F_ball.wav","None","735.511391016","227","323963.1167","316246.266779","317012.99934","317779.889886","318546.100569","319313.115402","320080.141983","320846.52611","324729.65263","325495.711201","326245.876298","327012.301853","313179.671056","313946.232646","314712.946348","315479.676126","326255.351724"
"Mixed","Female","ball","8","M_depth.wav","space","373.349962523","227","323963.1167","316246.266779","317012.99934","317779.889886","318546.100569","319313.115402","320080.141983","320846.52611","324729.65263","325495.711201","326245.876298","327012.301853","327779.619054","313946.232646","314712.946348","315479.676126","327021.788409"
"Mixed","Female","ball","8","M_depth.wav","None","733.305157744","227","323963.1167","316246.266779","317012.99934","317779.889886","318546.100569","319313.115402","320080.141983","320846.52611","324729.65263","325495.711201","326245.876298","327012.301853","327779.619054","328545.518094","314712.946348","315479.676126","327788.637218"
"Mixed","Female","ball","8","M_cave.wav","None","737.213678134","227","323963.1167","316246.266779","317012.99934","317779.889886","318546.100569","319313.115402","320080.141983","320846.52611","324729.65263","325495.711201","326245.876298","327012.301853","327779.619054","328545.518094","329312.285282","315479.676126","328554.177622"
"Mixed","Female","ball","8","F_knife.wav","None","735.330217751","227","323963.1167","316246.266779","317012.99934","317779.889886","318546.100569","319313.115402","320080.141983","320846.52611","324729.65263","325495.711201","326245.876298","327012.301853","327779.619054","328545.518094","329312.285282","330079.045668","329321.575515"
"Mixed","Female","ball","8","M_done.wav","None","733.834764978","227","323963.1167","330845.645595","317012.99934","317779.889886","318546.100569","319313.115402","320080.141983","320846.52611","324729.65263","325495.711201","326245.876298","327012.301853","327779.619054","328545.518094","329312.285282","330079.045668","330088.548301"
"Mixed","Female","ball","8","F_ball.wav","None","732.62312985","227","323963.1167","330845.645595","331612.597976","317779.889886","318546.100569","319313.115402","320080.141983","320846.52611","324729.65263","325495.711201","326245.876298","327012.301853","327779.619054","328545.518094","329312.285282","330079.045668","330855.109273"
"Mixed","Female","ball","8","M_tile.wav","space","316.787407617","227","323963.1167","330845.645595","331612.597976","332379.127412","318546.100569","319313.115402","320080.141983","320846.52611","324729.65263","325495.711201","326245.876298","327012.301853","327779.619054","328545.518094","329312.285282","330079.045668","331622.246537"
"Mixed","Female","ball","8","M_tile.wav","None","729.992406792","227","323963.1167","330845.645595","331612.597976","332379.127412","333145.309343","319313.115402","320080.141983","320846.52611","324729.65263","325495.711201","326245.876298","327012.301853","327779.619054","328545.518094","329312.285282","330079.045668","332388.431249"
"Mixed","Female","ball","8","F_greet.wav","None","729.338513396","227","323963.1167","330845.645595","331612.597976","332379.127412","333145.309343","333911.942351","320080.141983","320846.52611","324729.65263","325495.711201","326245.876298","327012.301853","327779.619054","328545.518094","329312.285282","330079.045668","333154.455503"
"Mixed","Female","ball","8","F_ball.wav","None","732.790081296","227","323963.1167","330845.645595","331612.597976","332379.127412","333145.309343","333911.942351","334678.960585","320846.52611","324729.65263","325495.711201","326245.876298","327012.301853","327779.619054","328545.518094","329312.285282","330079.045668","333917.448659"
"Mixed","Female","ball","8","F_reek.wav","space","506.422377424","227","323963.1167","330845.645595","331612.597976","332379.127412","333145.309343","333911.942351","334678.960585","335445.63193","324729.65263","325495.711201","326245.876298","327012.301853","327779.619054","328545.518094","329312.285282","330079.045668","334688.470947"
"Mixed","Female","tile","31","M_romp.wav","None","726.431701973","227","338579.167481","330845.645595","331612.597976","332379.127412","333145.309343","333911.942351","334678.960585","335445.63193","324729.65263","325495.711201","326245.876298","327012.301853","327779.619054","328545.518094","329312.285282","330079.045668","335455.028518"
"Mixed","Female","tile","31","F_tile.wav","None","721.363486839","227","338579.167481","330845.645595","331612.597976","332379.127412","333145.309343","333911.942351","334678.960585","335445.63193","339345.836971","325495.711201","326245.876298","327012.301853","327779.619054","328545.518094","329312.285282","330079.045668","338588.930744"
"Mixed","Female","tile","31","F_dime.wav","space","462.771048886","227","338579.167481","330845.645595","331612.597976","332379.127412","333145.309343","333911.942351","334678.960585","335445.63193","339345.836971","340112.631057","326245.876298","327012.301853","327779.619054","328545.518094","329312.285282","330079.045668","339356.007719"
"Mixed","Female","tile","31","M_cling.wav","None","718.358977872","227","338579.167481","330845.645595","331612.597976","332379.127412","333145.309343","333911.942351","334678.960585","335445.63193","339345.836971","340112.631057","340861.919658","327012.301853","327779.619054","328545.518094","329312.285282","330079.045668","340122.490781"
"Mixed","Female","tile","31","F_tile.wav","None","734.985493764","227","338579.167481","330845.645595","331612.597976","332379.127412","333145.309343","333911.942351","334678.960585","335445.63193","339345.836971","340112.631057","340861.919658","341628.369947","327779.619054","328545.518094","329312.285282","330079.045668","340871.488453"
"Mixed","Female","tile","31","M_greet.wav","space","573.413218604","227","338579.167481","330845.645595","331612.597976","332379.127412","333145.309343","333911.942351","334678.960585","335445.63193","339345.836971","340112.631057","340861.919658","341628.369947","342395.497936","328545.518094","329312.285282","330079.045668","341637.310819"
"Mixed","Female","tile","31","M_dime.wav","None","737.880865869","227","338579.167481","330845.645595","331612.597976","332379.127412","333145.309343","333911.942351","334678.960585","335445.63193","339345.836971","340112.631057","340861.919658","341628.369947","342395.497936","343162.193397","329312.285282","330079.045668","342399.640807"
"Mixed","Female","tile","31","F_jaw.wav","None","731.447976665","227","338579.167481","330845.645595","331612.597976","332379.127412","333145.309343","333911.942351","334678.960585","335445.63193","339345.836971","340112.631057","340861.919658","341628.369947","342395.497936","343162.193397","343928.73891","330079.045668","343171.612245"
"Mixed","Female","tile","31","F_gnash.wav","None","736.284314713","227","338579.167481","330845.645595","331612.597976","332379.127412","333145.309343","333911.942351","334678.960585","335445.63193","339345.836971","340112.631057","340861.919658","341628.369947","342395.497936","343162.193397","343928.73891","344695.264018","343932.805107"
"Mixed","Female","tile","31","M_jaw.wav","None","729.994261812","227","338579.167481","345462.131068","331612.597976","332379.127412","333145.309343","333911.942351","334678.960585","335445.63193","339345.836971","340112.631057","340861.919658","341628.369947","342395.497936","343162.193397","343928.73891","344695.264018","344704.766342"
"Mixed","Female","tile","31","F_tile.wav","None","729.303886357","227","338579.167481","345462.131068","346228.667306","332379.127412","333145.309343","333911.942351","334678.960585","335445.63193","339345.836971","340112.631057","340861.919658","341628.369947","342395.497936","343162.193397","343928.73891","344695.264018","345471.578978"
"Mixed","Female","tile","31","M_romp.wav","space","428.926575929","227","338579.167481","345462.131068","346228.667306","346994.980324","333145.309343","333911.942351","334678.960585","335445.63193","339345.836971","340112.631057","340861.919658","341628.369947","342395.497936","343162.193397","343928.73891","344695.264018","346237.694746"
"Mixed","Female","tile","31","F_tile.wav","None","727.458144655","227","338579.167481","345462.131068","346228.667306","346994.980324","347762.043388","333911.942351","334678.960585","335445.63193","339345.836971","340112.631057","340861.919658","341628.369947","342395.497936","343162.193397","343928.73891","344695.264018","347003.850706"
"Mixed","Female","tile","31","M_jolt.wav","space","582.899156318","227","338579.167481","345462.131068","346228.667306","346994.980324","347762.043388","348529.032559","334678.960585","335445.63193","339345.836971","340112.631057","340861.919658","341628.369947","342395.497936","343162.193397","343928.73891","344695.264018","347771.651138"
"Mixed","Female","tile","31","F_depth.wav","None","722.925411013","227","338579.167481","345462.131068","346228.667306","346994.980324","347762.043388","348529.032559","349295.581164","335445.63193","339345.836971","340112.631057","340861.919658","341628.369947","342395.497936","343162.193397","343928.73891","344695.264018","348538.810662"
"Mixed","Female","tile","31","M_reek.wav","None","722.315110499","227","338579.167481","345462.131068","346228.667306","346994.980324","347762.043388","348529.032559","349295.581164","350062.514376","339345.836971","340112.631057","340861.919658","341628.369947","342395.497936","343162.193397","343928.73891","344695.264018","349305.142539"
"Mixed","Female","done","44","M_cad.wav","None","721.192516095","227","353178.824859","345462.131068","346228.667306","346994.980324","347762.043388","348529.032559","349295.581164","350062.514376","339345.836971","340112.631057","340861.919658","341628.369947","342395.497936","343162.193397","343928.73891","344695.264018","350072.13604"
"Mixed","Female","done","44","M_dime.wav","None","722.110131115","227","353178.824859","345462.131068","346228.667306","346994.980324","347762.043388","348529.032559","349295.581164","350062.514376","353945.526812","340112.631057","340861.919658","341628.369947","342395.497936","343162.193397","343928.73891","344695.264018","353187.902075"
"Mixed","Female","done","44","M_jolt.wav","None","720.599219901","227","353178.824859","345462.131068","346228.667306","346994.980324","347762.043388","348529.032559","349295.581164","350062.514376","353945.526812","354711.950204","340861.919658","341628.369947","342395.497936","343162.193397","343928.73891","344695.264018","353955.510204"
"Mixed","Female","done","44","F_done.wav","None","720.170401852","227","353178.824859","345462.131068","346228.667306","346994.980324","347762.043388","348529.032559","349295.581164","350062.514376","353945.526812","354711.950204","355478.022997","341628.369947","342395.497936","343162.193397","343928.73891","344695.264018","354721.587326"
"Mixed","Female","done","44","M_jolt.wav","space","467.422503571","227","353178.824859","345462.131068","346228.667306","346994.980324","347762.043388","348529.032559","349295.581164","350062.514376","353945.526812","354711.950204","355478.022997","356228.224576","342395.497936","343162.193397","343928.73891","344695.264018","355486.887195"
"Mixed","Female","done","44","F_done.wav","None","734.879757802","227","353178.824859","345462.131068","346228.667306","346994.980324","347762.043388","348529.032559","349295.581164","350062.514376","353945.526812","354711.950204","355478.022997","356228.224576","356994.890665","343162.193397","343928.73891","344695.264018","356237.529649"
"Mixed","Female","done","44","M_knife.wav","space","677.840772725","227","353178.824859","345462.131068","346228.667306","346994.980324","347762.043388","348529.032559","349295.581164","350062.514376","353945.526812","354711.950204","355478.022997","356228.224576","356994.890665","357761.311893","343928.73891","344695.264018","357004.415249"
"Mixed","Female","done","44","M_reek.wav","None","732.826254156","227","353178.824859","345462.131068","346228.667306","346994.980324","347762.043388","348529.032559","349295.581164","350062.514376","353945.526812","354711.950204","355478.022997","356228.224576","356994.890665","357761.311893","358528.047236","344695.264018","357770.226176"
"Mixed","Female","done","44","F_done.wav","None","731.461580144","227","353178.824859","345462.131068","346228.667306","346994.980324","347762.043388","348529.032559","349295.581164","350062.514376","353945.526812","354711.950204","355478.022997","356228.224576","356994.890665","357761.311893","358528.047236","359294.939638","358537.094462"
"Mixed","Female","done","44","F_depth.wav","space","553.840008506","227","353178.824859","360061.622422","346228.667306","346994.980324","347762.043388","348529.032559","349295.581164","350062.514376","353945.526812","354711.950204","355478.022997","356228.224576","356994.890665","357761.311893","358528.047236","359294.939638","359304.377654"
"Mixed","Female","done","44","M_reek.wav","None","728.214682313","227","353178.824859","360061.622422","360828.502766","346994.980324","347762.043388","348529.032559","349295.581164","350062.514376","353945.526812","354711.950204","355478.022997","356228.224576","356994.890665","357761.311893","358528.047236","359294.939638","360070.892251"
"Mixed","Female","done","44","F_bluff.wav","None","726.242799428","227","353178.824859","360061.622422","360828.502766","361594.804964","347762.043388","348529.032559","349295.581164","350062.514376","353945.526812","354711.950204","355478.022997","356228.224576","356994.890665","357761.311893","358528.047236","359294.939638","360838.312714"
"Mixed","Female","done","44","F_dime.wav","None","725.93393916","227","353178.824859","360061.622422","360828.502766","361594.804964","362361.586373","348529.032559","349295.581164","350062.514376","353945.526812","354711.950204","355478.022997","356228.224576","356994.890665","357761.311893","358528.047236","359294.939638","361604.226594"
"Mixed","Female","done","44","F_done.wav","space","495.424291817","227","353178.824859","360061.622422","360828.502766","361594.804964","362361.586373","363128.433945","349295.581164","350062.514376","353945.526812","354711.950204","355478.022997","356228.224576","356994.890665","357761.311893","358528.047236","359294.939638","362370.666372"
"Mixed","Female","done","44","M_cad.wav","space","679.889638908","227","353178.824859","360061.622422","360828.502766","361594.804964","362361.586373","363128.433945","363894.719756","350062.514376","353945.526812","354711.950204","355478.022997","356228.224576","356994.890665","357761.311893","358528.047236","359294.939638","363138.198136"
"Mixed","Female","done","44","F_priest.wav","None","721.03020217","227","353178.824859","360061.622422","360828.502766","361594.804964","362361.586373","363128.433945","363894.719756","364661.979451","353945.526812","354711.950204","355478.022997","356228.224576","356994.890665","357761.311893","358528.047236","359294.939638","363904.569277"
"Mixed","Female","tile","35","M_cling.wav","None","719.352339394","227","367777.743632","360061.622422","360828.502766","361594.804964","362361.586373","363128.433945","363894.719756","364661.979451","353945.526812","354711.950204","355478.022997","356228.224576","356994.890665","357761.311893","358528.047236","359294.939638","364671.923269"
"Mixed","Female","tile","35","M_dime.wav","None","722.259459959","227","367777.743632","360061.622422","360828.502766","361594.804964","362361.586373","363128.433945","363894.719756","364661.979451","368544.978284","354711.950204","355478.022997","356228.224576","356994.890665","357761.311893","358528.047236","359294.939638","367786.995837"
"Mixed","Female","tile","35","M_ball.wav","None","720.755659626","227","367777.743632","360061.622422","360828.502766","361594.804964","362361.586373","363128.433945","363894.719756","364661.979451","368544.978284","369311.710845","355478.022997","356228.224576","356994.890665","357761.311893","358528.047236","359294.939638","368554.681259"
"Mixed","Female","tile","35","M_reek.wav","None","719.540623657","227","367777.743632","360061.622422","360828.502766","361594.804964","362361.586373","363128.433945","363894.719756","364661.979451","368544.978284","369311.710845","370078.28171","356228.224576","356994.890665","357761.311893","358528.047236","359294.939638","369321.622509"
"Mixed","Female","tile","35","F_tile.wav","None","718.902188702","227","367777.743632","360061.622422","360828.502766","361594.804964","362361.586373","363128.433945","363894.719756","364661.979451","368544.978284","369311.710845","370078.28171","370827.923074","356994.890665","357761.311893","358528.047236","359294.939638","370087.96799"
"Mixed","Female","tile","35","M_priest.wav","space","540.435347706","227","367777.743632","360061.622422","360828.502766","361594.804964","362361.586373","363128.433945","363894.719756","364661.979451","368544.978284","369311.710845","370078.28171","370827.923074","371594.493012","357761.311893","358528.047236","359294.939638","370837.421378"
"Mixed","Female","tile","35","F_tile.wav","None","733.551256591","227","367777.743632","360061.622422","360828.502766","361594.804964","362361.586373","363128.433945","363894.719756","364661.979451","368544.978284","369311.710845","370078.28171","370827.923074","371594.493012","372360.821488","358528.047236","359294.939638","371603.990698"
"Mixed","Female","tile","35","M_dime.wav","space","575.637692935","227","367777.743632","360061.622422","360828.502766","361594.804964","362361.586373","363128.433945","363894.719756","364661.979451","368544.978284","369311.710845","370078.28171","370827.923074","371594.493012","372360.821488","373128.219691","359294.939638","372370.191796"
"Mixed","Female","tile","35","F_tile.wav","None","731.253199861","227","367777.743632","360061.622422","360828.502766","361594.804964","362361.586373","363128.433945","363894.719756","364661.979451","368544.978284","369311.710845","370078.28171","370827.923074","371594.493012","372360.821488","373128.219691","373893.946833","373137.663272"
"Mixed","Female","tile","35","F_reek.wav","space","554.510287941","227","367777.743632","374660.703818","360828.502766","361594.804964","362361.586373","363128.433945","363894.719756","364661.979451","368544.978284","369311.710845","370078.28171","370827.923074","371594.493012","372360.821488","373128.219691","373893.946833","373903.249742"
"Mixed","Female","tile","35","F_depth.wav","None","735.596721817","227","367777.743632","374660.703818","375427.363415","361594.804964","362361.586373","363128.433945","363894.719756","364661.979451","368544.978284","369311.710845","370078.28171","370827.923074","371594.493012","372360.821488","373128.219691","373893.946833","374664.088605"
"Mixed","Female","tile","35","F_tile.wav","None","729.46774622","227","367777.743632","374660.703818","375427.363415","376194.296318","362361.586373","363128.433945","363894.719756","364661.979451","368544.978284","369311.710845","370078.28171","370827.923074","371594.493012","372360.821488","373128.219691","373893.946833","375436.580994"
"Mixed","Female","tile","35","M_cling.wav","None","728.038455767","227","367777.743632","374660.703818","375427.363415","376194.296318","376961.164295","363128.433945","363894.719756","364661.979451","368544.978284","369311.710845","370078.28171","370827.923074","371594.493012","372360.821488","373128.219691","373893.946833","376203.783492"
"Mixed","Female","tile","35","M_cad.wav","space","87.1551833116","227","367777.743632","374660.703818","375427.363415","376194.296318","376961.164295","377727.341279","363894.719756","364661.979451","368544.978284","369311.710845","370078.28171","370827.923074","371594.493012","372360.821488","373128.219691","373893.946833","376970.538004"
"Mixed","Female","tile","35","F_ball.wav","None","726.099344844","227","367777.743632","374660.703818","375427.363415","376194.296318","376961.164295","377727.341279","378494.031483","364661.979451","368544.978284","369311.710845","370078.28171","370827.923074","371594.493012","372360.821488","373128.219691","373893.946833","377736.600286"
"Mixed","Female","tile","35","F_bluff.wav","None","726.266605488","227","367777.743632","374660.703818","375427.363415","376194.296318","376961.164295","377727.341279","378494.031483","379261.121444","368544.978284","369311.710845","370078.28171","370827.923074","371594.493012","372360.821488","373128.219691","373893.946833","378502.861363"
"Mixed","Female","cave","21","M_ball.wav","None","724.51608791","227","382394.567645","374660.703818","375427.363415","376194.296318","376961.164295","377727.341279","378494.031483","379261.121444","368544.978284","369311.710845","370078.28171","370827.923074","371594.493012","372360.821488","373128.219691","373893.946833","379270.520815"
"Mixed","Female","cave","21","M_depth.wav","None","721.823221829","227","382394.567645","374660.703818","375427.363415","376194.296318","376961.164295","377727.341279","378494.031483","379261.121444","383161.266816","369311.710845","370078.28171","370827.923074","371594.493012","372360.821488","373128.219691","373893.946833","382404.327198"
"Mixed","Female","cave","21","M_depth.wav","None","720.490701438","227","382394.567645","374660.703818","375427.363415","376194.296318","376961.164295","377727.341279","378494.031483","379261.121444","383161.266816","383927.825933","370078.28171","370827.923074","371594.493012","372360.821488","373128.219691","373893.946833","383171.263811"
"Mixed","Female","cave","21","F_bluff.wav","None","720.200391312","227","382394.567645","374660.703818","375427.363415","376194.296318","376961.164295","377727.341279","378494.031483","379261.121444","383161.266816","383927.825933","384694.550146","370827.923074","371594.493012","372360.821488","373128.219691","373893.946833","383937.594142"
"Mixed","Female","cave","21","F_cave.wav","None","718.891367724","227","382394.567645","374660.703818","375427.363415","376194.296318","376961.164295","377727.341279","378494.031483","379261.121444","383161.266816","383927.825933","384694.550146","385461.287654","371594.493012","372360.821488","373128.219691","373893.946833","384704.67792"
"Mixed","Female","cave","21","F_jolt.wav","space","490.63494755","227","382394.567645","374660.703818","375427.363415","376194.296318","376961.164295","377727.341279","378494.031483","379261.121444","383161.266816","383927.825933","384694.550146","385461.287654","386210.671479","372360.821488","373128.219691","373893.946833","385470.765862"
"Mixed","Female","cave","21","F_cave.wav","None","733.93957346","227","382394.567645","374660.703818","375427.363415","376194.296318","376961.164295","377727.341279","378494.031483","379261.121444","383161.266816","383927.825933","384694.550146","385461.287654","386210.671479","386977.058698","373128.219691","373893.946833","386220.408153"
"Mixed","Female","cave","21","M_jolt.wav","space","487.182761193","227","382394.567645","374660.703818","375427.363415","376194.296318","376961.164295","377727.341279","378494.031483","379261.121444","383161.266816","383927.825933","384694.550146","385461.287654","386210.671479","386977.058698","387744.011078","373893.946833","386986.158483"
"Mixed","Female","cave","21","F_tile.wav","None","731.369447603","227","382394.567645","374660.703818","375427.363415","376194.296318","376961.164295","377727.341279","378494.031483","379261.121444","383161.266816","383927.825933","384694.550146","385461.287654","386210.671479","386977.058698","387744.011078","388510.287923","387753.45095"
"Mixed","Female","cave","21","F_cave.wav","None","731.402837962","227","382394.567645","389277.338311","375427.363415","376194.296318","376961.164295","377727.341279","378494.031483","379261.121444","383161.266816","383927.825933","384694.550146","385461.287654","386210.671479","386977.058698","387744.011078","388510.287923","388519.177164"
"Mixed","Female","cave","21","M_depth.wav","space","418.484377034","227","382394.567645","389277.338311","390043.882587","376194.296318","376961.164295","377727.341279","378494.031483","379261.121444","383161.266816","383927.825933","384694.550146","385461.287654","386210.671479","386977.058698","387744.011078","388510.287923","389286.804152"
"Mixed","Female","cave","21","M_greet.wav","None","727.899638645","227","382394.567645","389277.338311","390043.882587","390810.801887","376961.164295","377727.341279","378494.031483","379261.121444","383161.266816","383927.825933","384694.550146","385461.287654","386210.671479","386977.058698","387744.011078","388510.287923","390053.501777"
"Mixed","Female","cave","21","F_cave.wav","None","727.515031816","227","382394.567645","389277.338311","390043.882587","390810.801887","391577.338743","377727.341279","378494.031483","379261.121444","383161.266816","383927.825933","384694.550146","385461.287654","386210.671479","386977.058698","387744.011078","388510.287923","390819.860243"
"Mixed","Female","cave","21","M_cad.wav","space","374.628069112","227","382394.567645","389277.338311","390043.882587","390810.801887","391577.338743","392343.468733","378494.031483","379261.121444","383161.266816","383927.825933","384694.550146","385461.287654","386210.671479","386977.058698","387744.011078","388510.287923","391586.577655"
"Mixed","Female","cave","21","M_lash.wav","None","725.354246388","227","382394.567645","389277.338311","390043.882587","390810.801887","391577.338743","392343.468733","393111.109325","379261.121444","383161.266816","383927.825933","384694.550146","385461.287654","386210.671479","386977.058698","387744.011078","388510.287923","392352.397857"
"Mixed","Female","cave","21","F_dime.wav","None","722.593053826","227","382394.567645","389277.338311","390043.882587","390810.801887","391577.338743","392343.468733","393111.109325","393877.988741","383161.266816","383927.825933","384694.550146","385461.287654","386210.671479","386977.058698","387744.011078","388510.287923","393121.013569"
"Mixed","Male","tile","27","F_priest.wav","None","721.726451826","227","397010.864834","389277.338311","390043.882587","390810.801887","391577.338743","392343.468733","393111.109325","393877.988741","383161.266816","383927.825933","384694.550146","385461.287654","386210.671479","386977.058698","387744.011078","388510.287923","393887.545788"
"Mixed","Male","tile","27","F_done.wav","None","722.159907396","227","397010.864834","389277.338311","390043.882587","390810.801887","391577.338743","392343.468733","393111.109325","393877.988741","397777.673141","383927.825933","384694.550146","385461.287654","386210.671479","386977.058698","387744.011078","388510.287923","397020.63799"
"Mixed","Male","tile","27","M_tile.wav","None","725.673927576","227","397010.864834","389277.338311","390043.882587","390810.801887","391577.338743","392343.468733","393111.109325","393877.988741","397777.673141","398543.815498","384694.550146","385461.287654","386210.671479","386977.058698","387744.011078","388510.287923","397783.252104"
"Mixed","Male","tile","27","F_ball.wav","space","439.439883863","227","397010.864834","389277.338311","390043.882587","390810.801887","391577.338743","392343.468733","393111.109325","393877.988741","397777.673141","398543.815498","399311.02016","385461.287654","386210.671479","386977.058698","387744.011078","388510.287923","398553.580615"
"Mixed","Male","tile","27","M_romp.wav","None","719.321731653","227","397010.864834","389277.338311","390043.882587","390810.801887","391577.338743","392343.468733","393111.109325","393877.988741","397777.673141","398543.815498","399311.02016","400077.487454","386210.671479","386977.058698","387744.011078","388510.287923","399320.740139"
"Mixed","Male","tile","27","M_dime.wav","None","719.148596749","227","397010.864834","389277.338311","390043.882587","390810.801887","391577.338743","392343.468733","393111.109325","393877.988741","397777.673141","398543.815498","399311.02016","400077.487454","400844.127882","386977.058698","387744.011078","388510.287923","400087.264011"
"Mixed","Male","tile","27","F_cling.wav","None","718.699373538","227","397010.864834","389277.338311","390043.882587","390810.801887","391577.338743","392343.468733","393111.109325","393877.988741","397777.673141","398543.815498","399311.02016","400077.487454","400844.127882","401593.450801","387744.011078","388510.287923","400853.959781"
"Mixed","Male","tile","27","M_tile.wav","None","735.73646642","227","397010.864834","389277.338311","390043.882587","390810.801887","391577.338743","392343.468733","393111.109325","393877.988741","397777.673141","398543.815498","399311.02016","400077.487454","400844.127882","401593.450801","402359.980547","388510.287923","401602.852645"
"Mixed","Male","tile","27","M_greet.wav","space","471.929266991","227","397010.864834","389277.338311","390043.882587","390810.801887","391577.338743","392343.468733","393111.109325","393877.988741","397777.673141","398543.815498","399311.02016","400077.487454","400844.127882","401593.450801","402359.980547","403126.966009","402368.979234"
"Mixed","Male","tile","27","M_tile.wav","None","732.52110387","227","397010.864834","403893.488334","390043.882587","390810.801887","391577.338743","392343.468733","393111.109325","393877.988741","397777.673141","398543.815498","399311.02016","400077.487454","400844.127882","401593.450801","402359.980547","403126.966009","403136.620135"
"Mixed","Male","tile","27","F_cad.wav","space","545.98246637","227","397010.864834","403893.488334","404660.392175","390810.801887","391577.338743","392343.468733","393111.109325","393877.988741","397777.673141","398543.815498","399311.02016","400077.487454","400844.127882","401593.450801","402359.980547","403126.966009","403902.834528"
"Mixed","Male","tile","27","F_dime.wav","None","730.917441833","227","397010.864834","403893.488334","404660.392175","405426.883584","391577.338743","392343.468733","393111.109325","393877.988741","397777.673141","398543.815498","399311.02016","400077.487454","400844.127882","401593.450801","402359.980547","403126.966009","404669.377259"
"Mixed","Male","tile","27","M_tile.wav","None","735.243341129","227","397010.864834","403893.488334","404660.392175","405426.883584","406193.422296","392343.468733","393111.109325","393877.988741","397777.673141","398543.815498","399311.02016","400077.487454","400844.127882","401593.450801","402359.980547","403126.966009","405430.986572"
"Mixed","Male","tile","27","F_done.wav","space","341.746040736","227","397010.864834","403893.488334","404660.392175","405426.883584","406193.422296","406959.753246","393111.109325","393877.988741","397777.673141","398543.815498","399311.02016","400077.487454","400844.127882","401593.450801","402359.980547","403126.966009","406203.013042"
"Mixed","Male","tile","27","F_bluff.wav","None","728.503446619","227","397010.864834","403893.488334","404660.392175","405426.883584","406193.422296","406959.753246","407726.765605","393877.988741","397777.673141","398543.815498","399311.02016","400077.487454","400844.127882","401593.450801","402359.980547","403126.966009","406968.844992"
"Mixed","Male","tile","27","M_reek.wav","None","727.63251618","227","397010.864834","403893.488334","404660.392175","405426.883584","406193.422296","406959.753246","407726.765605","408493.497238","397777.673141","398543.815498","399311.02016","400077.487454","400844.127882","401593.450801","402359.980547","403126.966009","407735.895998"
"Mixed","Male","cave","14","M_romp.wav","None","726.990680443","227","411627.045465","403893.488334","404660.392175","405426.883584","406193.422296","406959.753246","407726.765605","408493.497238","397777.673141","398543.815498","399311.02016","400077.487454","400844.127882","401593.450801","402359.980547","403126.966009","408503.155384"
"Mixed","Male","cave","14","F_ball.wav","None","721.35266586","227","411627.045465","403893.488334","404660.392175","405426.883584","406193.422296","406959.753246","407726.765605","408493.497238","412393.827803","398543.815498","399311.02016","400077.487454","400844.127882","401593.450801","402359.980547","403126.966009","411636.559537"
"Mixed","Male","cave","14","M_cave.wav","None","720.173802692","227","411627.045465","403893.488334","404660.392175","405426.883584","406193.422296","406959.753246","407726.765605","408493.497238","412393.827803","413160.526355","399311.02016","400077.487454","400844.127882","401593.450801","402359.980547","403126.966009","412403.579626"
"Mixed","Male","cave","14","F_greet.wav","space","502.273323131","227","411627.045465","403893.488334","404660.392175","405426.883584","406193.422296","406959.753246","407726.765605","408493.497238","412393.827803","413160.526355","413909.67181","400077.487454","400844.127882","401593.450801","402359.980547","403126.966009","413170.301057"
"Mixed","Male","cave","14","F_ball.wav","None","736.519283499","227","411627.045465","403893.488334","404660.392175","405426.883584","406193.422296","406959.753246","407726.765605","408493.497238","412393.827803","413160.526355","413909.67181","414676.451365","400844.127882","401593.450801","402359.980547","403126.966009","413918.656275"
"Mixed","Male","cave","14","M_priest.wav","None","735.089683905","227","411627.045465","403893.488334","404660.392175","405426.883584","406193.422296","406959.753246","407726.765605","408493.497238","412393.827803","413160.526355","413909.67181","414676.451365","415442.749234","401593.450801","402359.980547","403126.966009","414685.99048"
"Mixed","Male","cave","14","M_jolt.wav","None","735.694728501","227","411627.045465","403893.488334","404660.392175","405426.883584","406193.422296","406959.753246","407726.765605","408493.497238","412393.827803","413160.526355","413909.67181","414676.451365","415442.749234","416209.824973","402359.980547","403126.966009","415451.678976"
"Mixed","Male","cave","14","M_cave.wav","None","734.34118455","227","411627.045465","403893.488334","404660.392175","405426.883584","406193.422296","406959.753246","407726.765605","408493.497238","412393.827803","413160.526355","413909.67181","414676.451365","415442.749234","416209.824973","416976.815072","403126.966009","416219.036677"
"Mixed","Male","cave","14","F_depth.wav","space","589.975118055","227","411627.045465","403893.488334","404660.392175","405426.883584","406193.422296","406959.753246","407726.765605","408493.497238","412393.827803","413160.526355","413909.67181","414676.451365","415442.749234","416209.824973","416976.815072","417743.197962","416986.451575"
"Mixed","Male","cave","14","F_priest.wav","m","0.0349361216649","227","411627.045465","418509.893114","404660.392175","405426.883584","406193.422296","406959.753246","407726.765605","408493.497238","412393.827803","413160.526355","413909.67181","414676.451365","415442.749234","416209.824973","416976.815072","417743.197962","417752.6097"
"Mixed","Male","cave","14","F_gnash.wav","None","731.092122616","227","411627.045465","418509.893114","419276.077208","405426.883584","406193.422296","406959.753246","407726.765605","408493.497238","412393.827803","413160.526355","413909.67181","414676.451365","415442.749234","416209.824973","416976.815072","417743.197962","418518.921481"
"Mixed","Male","cave","14","M_cave.wav","None","730.740906089","227","411627.045465","418509.893114","419276.077208","420042.793074","406193.422296","406959.753246","407726.765605","408493.497238","412393.827803","413160.526355","413909.67181","414676.451365","415442.749234","416209.824973","416976.815072","417743.197962","419285.171119"
"Mixed","Male","cave","14","F_gnash.wav","space","596.452527621","227","411627.045465","418509.893114","419276.077208","420042.793074","420809.37878","406959.753246","407726.765605","408493.497238","412393.827803","413160.526355","413909.67181","414676.451365","415442.749234","416209.824973","416976.815072","417743.197962","420051.962732"
"Mixed","Male","cave","14","M_depth.wav","None","728.417188337","227","411627.045465","418509.893114","419276.077208","420042.793074","420809.37878","421576.420819","407726.765605","408493.497238","412393.827803","413160.526355","413909.67181","414676.451365","415442.749234","416209.824973","416976.815072","417743.197962","420818.340366"
"Mixed","Male","cave","14","M_cave.wav","None","720.136393211","227","411627.045465","418509.893114","419276.077208","420042.793074","420809.37878","421576.420819","422343.001578","408493.497238","412393.827803","413160.526355","413909.67181","414676.451365","415442.749234","416209.824973","416976.815072","417743.197962","421592.555446"
"Mixed","Male","cave","14","F_depth.wav","space","583.521823632","227","411627.045465","418509.893114","419276.077208","420042.793074","420809.37878","421576.420819","422343.001578","423109.727956","412393.827803","413160.526355","413909.67181","414676.451365","415442.749234","416209.824973","416976.815072","417743.197962","422352.770097"
"Mixed","Male","done","38","M_tile.wav","None","724.829894956","227","426242.870243","418509.893114","419276.077208","420042.793074","420809.37878","421576.420819","422343.001578","423109.727956","412393.827803","413160.526355","413909.67181","414676.451365","415442.749234","416209.824973","416976.815072","417743.197962","423118.94337"
"Mixed","Male","done","38","M_done.wav","None","722.434449883","227","426242.870243","418509.893114","419276.077208","420042.793074","420809.37878","421576.420819","422343.001578","423109.727956","427009.344647","413160.526355","413909.67181","414676.451365","415442.749234","416209.824973","416976.815072","417743.197962","426252.030934"
"Mixed","Male","done","38","F_park.wav","None","721.599383163","227","426242.870243","418509.893114","419276.077208","420042.793074","420809.37878","421576.420819","422343.001578","423109.727956","427009.344647","427776.574971","413909.67181","414676.451365","415442.749234","416209.824973","416976.815072","417743.197962","427018.764732"
"Mixed","Male","done","38","M_done.wav","space","0.02751610009","227","426242.870243","418509.893114","419276.077208","420042.793074","420809.37878","421576.420819","422343.001578","423109.727956","427009.344647","427776.574971","428543.097915","414676.451365","415442.749234","416209.824973","416976.815072","417743.197962","427786.227242"
"Mixed","Male","done","38","F_gnash.wav","space","535.397740372","227","426242.870243","418509.893114","419276.077208","420042.793074","420809.37878","421576.420819","422343.001578","423109.727956","427009.344647","427776.574971","428543.097915","429292.37755","415442.749234","416209.824973","416976.815072","417743.197962","428552.721124"
"Mixed","Male","done","38","F_ball.wav","None","734.875120281","227","426242.870243","418509.893114","419276.077208","420042.793074","420809.37878","421576.420819","422343.001578","423109.727956","427009.344647","427776.574971","428543.097915","429292.37755","430059.091252","416209.824973","416976.815072","417743.197962","429301.506397"
"Mixed","Male","done","38","F_reek.wav","None","733.500552771","227","426242.870243","418509.893114","419276.077208","420042.793074","420809.37878","421576.420819","422343.001578","423109.727956","427009.344647","427776.574971","428543.097915","429292.37755","430059.091252","430825.741265","416976.815072","417743.197962","430068.980656"
"Mixed","Male","done","38","M_gnash.wav","None","733.797664638","227","426242.870243","418509.893114","419276.077208","420042.793074","420809.37878","421576.420819","422343.001578","423109.727956","427009.344647","427776.574971","428543.097915","429292.37755","430059.091252","430825.741265","431592.804019","417743.197962","430834.743043"
"Mixed","Male","done","38","M_done.wav","None","732.351060666","227","426242.870243","418509.893114","419276.077208","420042.793074","420809.37878","421576.420819","422343.001578","423109.727956","427009.344647","427776.574971","428543.097915","429292.37755","430059.091252","430825.741265","431592.804019","432359.016557","431602.195969"
"Mixed","Male","done","38","F_jolt.wav","space","552.050844824","227","426242.870243","433125.68481","419276.077208","420042.793074","420809.37878","421576.420819","422343.001578","423109.727956","427009.344647","427776.574971","428543.097915","429292.37755","430059.091252","430825.741265","431592.804019","432359.016557","432367.927439"
"Mixed","Male","done","38","M_bluff.wav","None","730.889925791","227","426242.870243","433125.68481","433892.666871","420042.793074","420809.37878","421576.420819","422343.001578","423109.727956","427009.344647","427776.574971","428543.097915","429292.37755","430059.091252","430825.741265","431592.804019","432359.016557","433134.989884"
"Mixed","Male","done","38","F_knife.wav","None","729.723738565","227","426242.870243","433125.68481","433892.666871","434659.467449","420809.37878","421576.420819","422343.001578","423109.727956","427009.344647","427776.574971","428543.097915","429292.37755","430059.091252","430825.741265","431592.804019","432359.016557","433902.094067"
"Mixed","Male","done","38","M_ball.wav","None","729.47980382","227","426242.870243","433125.68481","433892.666871","434659.467449","435425.543025","421576.420819","422343.001578","423109.727956","427009.344647","427776.574971","428543.097915","429292.37755","430059.091252","430825.741265","431592.804019","432359.016557","434669.120648"
"Mixed","Male","done","38","M_done.wav","None","730.052694853","227","426242.870243","433125.68481","433892.666871","434659.467449","435425.543025","436192.560331","422343.001578","423109.727956","427009.344647","427776.574971","428543.097915","429292.37755","430059.091252","430825.741265","431592.804019","432359.016557","435434.627352"
"Mixed","Male","done","38","F_park.wav","space","589.945437736","227","426242.870243","433125.68481","433892.666871","434659.467449","435425.543025","436192.560331","436958.945386","423109.727956","427009.344647","427776.574971","428543.097915","429292.37755","430059.091252","430825.741265","431592.804019","432359.016557","436201.954137"
"Mixed","Male","done","38","F_ball.wav","None","727.593251737","227","426242.870243","433125.68481","433892.666871","434659.467449","435425.543025","436192.560331","436958.945386","437725.526454","427009.344647","427776.574971","428543.097915","429292.37755","430059.091252","430825.741265","431592.804019","432359.016557","436968.053828"
"Mixed","Male","done","42","M_knife.wav","None","726.664197398","227","440859.561313","433125.68481","433892.666871","434659.467449","435425.543025","436192.560331","436958.945386","437725.526454","427009.344647","427776.574971","428543.097915","429292.37755","430059.091252","430825.741265","431592.804019","432359.016557","437734.963543"
"Mixed","Male","done","42","F_knife.wav","None","721.713157545","227","440859.561313","433125.68481","433892.666871","434659.467449","435425.543025","436192.560331","436958.945386","437725.526454","441626.232968","427776.574971","428543.097915","429292.37755","430059.091252","430825.741265","431592.804019","432359.016557","440869.286548"
"Mixed","Male","done","42","F_lash.wav","None","721.548061003","227","440859.561313","433125.68481","433892.666871","434659.467449","435425.543025","436192.560331","436958.945386","437725.526454","441626.232968","442392.486935","428543.097915","429292.37755","430059.091252","430825.741265","431592.804019","432359.016557","441635.72107"
"Mixed","Male","done","42","M_done.wav","None","721.235799894","227","440859.561313","433125.68481","433892.666871","434659.467449","435425.543025","436192.560331","436958.945386","437725.526454","441626.232968","442392.486935","443159.179613","429292.37755","430059.091252","430825.741265","431592.804019","432359.016557","442402.060676"
"Mixed","Male","done","42","F_greet.wav","space","519.102963328","227","440859.561313","433125.68481","433892.666871","434659.467449","435425.543025","436192.560331","436958.945386","437725.526454","441626.232968","442392.486935","443159.179613","443926.858541","430059.091252","430825.741265","431592.804019","432359.016557","443168.571563"
"Mixed","Male","done","42","F_cling.wav","None","718.226035009","227","440859.561313","433125.68481","433892.666871","434659.467449","435425.543025","436192.560331","436958.945386","437725.526454","441626.232968","442392.486935","443159.179613","443926.858541","444675.643815","430825.741265","431592.804019","432359.016557","443936.239362"
"Mixed","Male","done","42","F_jolt.wav","None","735.905272944","227","440859.561313","433125.68481","433892.666871","434659.467449","435425.543025","436192.560331","436958.945386","437725.526454","441626.232968","442392.486935","443159.179613","443926.858541","444675.643815","445442.074935","431592.804019","432359.016557","444684.727832"
"Mixed","Male","done","42","M_done.wav","None","734.940045862","227","440859.561313","433125.68481","433892.666871","434659.467449","435425.543025","436192.560331","436958.945386","437725.526454","441626.232968","442392.486935","443159.179613","443926.858541","444675.643815","445442.074935","446208.741643","432359.016557","445451.747611"
"Mixed","Male","done","42","F_reek.wav","space","541.443240189","227","440859.561313","433125.68481","433892.666871","434659.467449","435425.543025","436192.560331","436958.945386","437725.526454","441626.232968","442392.486935","443159.179613","443926.858541","444675.643815","445442.074935","446208.741643","446975.409897","446218.119062"
"Mixed","Male","done","42","M_priest.wav","None","733.262492286","227","440859.561313","447742.227789","433892.666871","434659.467449","435425.543025","436192.560331","436958.945386","437725.526454","441626.232968","442392.486935","443159.179613","443926.858541","444675.643815","445442.074935","446208.741643","446975.409897","446984.642007"
"Mixed","Male","done","42","M_done.wav","None","732.904474076","227","440859.561313","447742.227789","448509.085872","434659.467449","435425.543025","436192.560331","436958.945386","437725.526454","441626.232968","442392.486935","443159.179613","443926.858541","444675.643815","445442.074935","446208.741643","446975.409897","447751.716509"
"Mixed","Male","done","42","M_jolt.wav","space","697.275165759","227","440859.561313","447742.227789","448509.085872","449275.218645","435425.543025","436192.560331","436958.945386","437725.526454","441626.232968","442392.486935","443159.179613","443926.858541","444675.643815","445442.074935","446208.741643","446975.409897","448518.245327"
"Mixed","Male","done","42","M_done.wav","None","731.439629104","227","440859.561313","447742.227789","448509.085872","449275.218645","450042.208435","436192.560331","436958.945386","437725.526454","441626.232968","442392.486935","443159.179613","443926.858541","444675.643815","445442.074935","446208.741643","446975.409897","449284.257523"
"Mixed","Male","done","42","F_reek.wav","space","483.811886457","227","440859.561313","447742.227789","448509.085872","449275.218645","450042.208435","450808.951507","436958.945386","437725.526454","441626.232968","442392.486935","443159.179613","443926.858541","444675.643815","445442.074935","446208.741643","446975.409897","450051.642432"
"Mixed","Male","done","42","M_ball.wav","None","729.07726519","227","440859.561313","447742.227789","448509.085872","449275.218645","450042.208435","450808.951507","451575.091081","437725.526454","441626.232968","442392.486935","443159.179613","443926.858541","444675.643815","445442.074935","446208.741643","446975.409897","450818.005226"
"Mixed","Male","done","42","F_ball.wav","None","729.123949772","227","440859.561313","447742.227789","448509.085872","449275.218645","450042.208435","450808.951507","451575.091081","452341.808184","441626.232968","442392.486935","443159.179613","443926.858541","444675.643815","445442.074935","446208.741643","446975.409897","451584.160877"
"Mixed","Female","done","46","F_reek.wav","None","728.983896028","227","455474.950471","447742.227789","448509.085872","449275.218645","450042.208435","450808.951507","451575.091081","452341.808184","441626.232968","442392.486935","443159.179613","443926.858541","444675.643815","445442.074935","446208.741643","446975.409897","452350.954963"
"Mixed","Female","done","46","F_jaw.wav","None","725.457199849","227","455474.950471","447742.227789","448509.085872","449275.218645","450042.208435","450808.951507","451575.091081","452341.808184","456242.019408","442392.486935","443159.179613","443926.858541","444675.643815","445442.074935","446208.741643","446975.409897","455483.774786"
"Mixed","Female","done","46","F_done.wav","None","724.101182539","227","455474.950471","447742.227789","448509.085872","449275.218645","450042.208435","450808.951507","451575.091081","452341.808184","456242.019408","457008.519474","443159.179613","443926.858541","444675.643815","445442.074935","446208.741643","446975.409897","456251.270996"
"Mixed","Female","done","46","M_greet.wav","space","541.52424261","227","455474.950471","447742.227789","448509.085872","449275.218645","450042.208435","450808.951507","451575.091081","452341.808184","456242.019408","457008.519474","457775.152173","443926.858541","444675.643815","445442.074935","446208.741643","446975.409897","457017.747874"
"Mixed","Female","done","46","M_depth.wav","None","727.795139363","227","455474.950471","447742.227789","448509.085872","449275.218645","450042.208435","450808.951507","451575.091081","452341.808184","456242.019408","457008.519474","457775.152173","458542.292838","444675.643815","445442.074935","446208.741643","446975.409897","457779.080171"
"Mixed","Female","done","46","F_cad.wav","None","720.884583308","227","455474.950471","447742.227789","448509.085872","449275.218645","450042.208435","450808.951507","451575.091081","452341.808184","456242.019408","457008.519474","457775.152173","458542.292838","459309.127116","445442.074935","446208.741643","446975.409897","458552.138031"
"Mixed","Female","done","46","F_done.wav","None","720.606949122","227","455474.950471","447742.227789","448509.085872","449275.218645","450042.208435","450808.951507","451575.091081","452341.808184","456242.019408","457008.519474","457775.152173","458542.292838","459309.127116","460075.654388","446208.741643","446975.409897","459318.888214"
"Mixed","Female","done","46","M_cling.wav","space","465.541207348","227","455474.950471","447742.227789","448509.085872","449275.218645","450042.208435","450808.951507","451575.091081","452341.808184","456242.019408","457008.519474","457775.152173","458542.292838","459309.127116","460075.654388","460841.933398","446975.409897","460085.639635"
"Mixed","Female","done","46","M_park.wav","None","719.098202127","227","455474.950471","447742.227789","448509.085872","449275.218645","450042.208435","450808.951507","451575.091081","452341.808184","456242.019408","457008.519474","457775.152173","458542.292838","459309.127116","460075.654388","460841.933398","461608.955341","460851.693878"
"Mixed","Female","done","46","F_done.wav","None","718.7469856","227","455474.950471","462358.458506","448509.085872","449275.218645","450042.208435","450808.951507","451575.091081","452341.808184","456242.019408","457008.519474","457775.152173","458542.292838","459309.127116","460075.654388","460841.933398","461608.955341","461618.803007"
"Mixed","Female","done","46","M_dime.wav","space","511.532639619","227","455474.950471","462358.458506","463124.990416","449275.218645","450042.208435","450808.951507","451575.091081","452341.808184","456242.019408","457008.519474","457775.152173","458542.292838","459309.127116","460075.654388","460841.933398","461608.955341","462367.575913"
"Mixed","Female","done","46","F_done.wav","None","734.176397265","227","455474.950471","462358.458506","463124.990416","463891.61755","450042.208435","450808.951507","451575.091081","452341.808184","456242.019408","457008.519474","457775.152173","458542.292838","459309.127116","460075.654388","460841.933398","461608.955341","463134.201502"
"Mixed","Female","done","46","F_knife.wav","space","601.841660682","227","455474.950471","462358.458506","463124.990416","463891.61755","464658.501295","450808.951507","451575.091081","452341.808184","456242.019408","457008.519474","457775.152173","458542.292838","459309.127116","460075.654388","460841.933398","461608.955341","463901.204586"
"Mixed","Female","done","46","M_dime.wav","None","732.117946958","227","455474.950471","462358.458506","463124.990416","463891.61755","464658.501295","465424.613353","451575.091081","452341.808184","456242.019408","457008.519474","457775.152173","458542.292838","459309.127116","460075.654388","460841.933398","461608.955341","464667.853362"
"Mixed","Female","done","46","M_jolt.wav","None","732.932608458","227","455474.950471","462358.458506","463124.990416","463891.61755","464658.501295","465424.613353","466191.205242","452341.808184","456242.019408","457008.519474","457775.152173","458542.292838","459309.127116","460075.654388","460841.933398","461608.955341","465433.680366"
"Mixed","Female","done","46","M_park.wav","None","733.085647342","227","455474.950471","462358.458506","463124.990416","463891.61755","464658.501295","465424.613353","466191.205242","466958.463082","456242.019408","457008.519474","457775.152173","458542.292838","459309.127116","460075.654388","460841.933398","461608.955341","466200.394686"
"Mixed","Female","ball","12","F_cad.wav","None","731.518158165","227","470092.033878","462358.458506","463124.990416","463891.61755","464658.501295","465424.613353","466191.205242","466958.463082","456242.019408","457008.519474","457775.152173","458542.292838","459309.127116","460075.654388","460841.933398","461608.955341","466968.264681"
"Mixed","Female","ball","12","M_jolt.wav","None","721.748712007","227","470092.033878","462358.458506","463124.990416","463891.61755","464658.501295","465424.613353","466191.205242","466958.463082","470858.669978","457008.519474","457775.152173","458542.292838","459309.127116","460075.654388","460841.933398","461608.955341","470101.393365"
"Mixed","Female","ball","12","F_cave.wav","None","720.896022627","227","470092.033878","462358.458506","463124.990416","463891.61755","464658.501295","465424.613353","466191.205242","466958.463082","470858.669978","471625.658222","457775.152173","458542.292838","459309.127116","460075.654388","460841.933398","461608.955341","470868.568966"
"Mixed","Female","ball","12","F_ball.wav","None","720.466895378","227","470092.033878","462358.458506","463124.990416","463891.61755","464658.501295","465424.613353","466191.205242","466958.463082","470858.669978","471625.658222","472391.573957","458542.292838","459309.127116","460075.654388","460841.933398","461608.955341","471635.312348"
"Mixed","Female","ball","12","M_cave.wav","space","405.511007702","227","470092.033878","462358.458506","463124.990416","463891.61755","464658.501295","465424.613353","466191.205242","466958.463082","470858.669978","471625.658222","472391.573957","473158.198","459309.127116","460075.654388","460841.933398","461608.955341","472401.289299"
"Mixed","Female","ball","12","M_cave.wav","None","719.526401837","227","470092.033878","462358.458506","463124.990416","463891.61755","464658.501295","465424.613353","466191.205242","466958.463082","470858.669978","471625.658222","472391.573957","473158.198","473925.074015","460075.654388","460841.933398","461608.955341","473167.843778"
"Mixed","Female","ball","12","F_knife.wav","None","718.517581816","227","470092.033878","462358.458506","463124.990416","463891.61755","464658.501295","465424.613353","466191.205242","466958.463082","470858.669978","471625.658222","472391.573957","473158.198","473925.074015","474674.791743","460841.933398","461608.955341","473935.159123"
"Mixed","Female","ball","12","F_ball.wav","None","736.058930168","227","470092.033878","462358.458506","463124.990416","463891.61755","464658.501295","465424.613353","466191.205242","466958.463082","470858.669978","471625.658222","472391.573957","473158.198","473925.074015","474674.791743","475458.56047","461608.955341","474684.243982"
"Mixed","Female","ball","12","M_knife.wav","space","418.516530714","227","470092.033878","462358.458506","463124.990416","463891.61755","464658.501295","465424.613353","466191.205242","466958.463082","470858.669978","471625.658222","472391.573957","473158.198","473925.074015","474674.791743","475458.56047","476207.789401","475468.177186"
"Mixed","Female","ball","12","F_ball.wav","None","734.849459201","227","470092.033878","476974.539585","463124.990416","463891.61755","464658.501295","465424.613353","466191.205242","466958.463082","470858.669978","471625.658222","472391.573957","473158.198","473925.074015","474674.791743","475458.56047","476207.789401","476217.295435"
"Mixed","Female","ball","12","M_dime.wav","space","502.445221297","227","470092.033878","476974.539585","477741.396741","463891.61755","464658.501295","465424.613353","466191.205242","466958.463082","470858.669978","471625.658222","472391.573957","473158.198","473925.074015","474674.791743","475458.56047","476207.789401","476984.204841"
"Mixed","Female","ball","12","M_gnash.wav","None","732.419078005","227","470092.033878","476974.539585","477741.396741","478508.057575","464658.501295","465424.613353","466191.205242","466958.463082","470858.669978","471625.658222","472391.573957","473158.198","473925.074015","474674.791743","475458.56047","476207.789401","477750.866602"
"Mixed","Female","ball","12","F_jaw.wav","None","731.793937332","227","470092.033878","476974.539585","477741.396741","478508.057575","479274.675434","465424.613353","466191.205242","466958.463082","470858.669978","471625.658222","472391.573957","473158.198","473925.074015","474674.791743","475458.56047","476207.789401","478517.844953"
"Mixed","Female","ball","12","M_knife.wav","None","732.62560321","227","470092.033878","476974.539585","477741.396741","478508.057575","479274.675434","480041.232696","466191.205242","466958.463082","470858.669978","471625.658222","472391.573957","473158.198","473925.074015","474674.791743","475458.56047","476207.789401","479283.761616"
"Mixed","Female","ball","12","F_ball.wav","None","732.328182145","227","470092.033878","476974.539585","477741.396741","478508.057575","479274.675434","480041.232696","480807.649286","466958.463082","470858.669978","471625.658222","472391.573957","473158.198","473925.074015","474674.791743","475458.56047","476207.789401","480050.73131"
"Mixed","Female","ball","12","M_jaw.wav","space","525.934681122","227","470092.033878","476974.539585","477741.396741","478508.057575","479274.675434","480041.232696","480807.649286","481574.682359","470858.669978","471625.658222","472391.573957","473158.198","473925.074015","474674.791743","475458.56047","476207.789401","480816.622311"
"Mixed","Female","cave","19","M_depth.wav","None","730.012502812","227","484708.130106","476974.539585","477741.396741","478508.057575","479274.675434","480041.232696","480807.649286","481574.682359","470858.669978","471625.658222","472391.573957","473158.198","473925.074015","474674.791743","475458.56047","476207.789401","481583.937657"
"Mixed","Female","cave","19","F_romp.wav","None","722.439705802","227","484708.130106","476974.539585","477741.396741","478508.057575","479274.675434","480041.232696","480807.649286","481574.682359","485474.574212","471625.658222","472391.573957","473158.198","473925.074015","474674.791743","475458.56047","476207.789401","484717.765991"
"Mixed","Female","cave","19","F_cave.wav","None","722.897276573","227","484708.130106","476974.539585","477741.396741","478508.057575","479274.675434","480041.232696","480807.649286","481574.682359","485474.574212","486241.339854","472391.573957","473158.198","473925.074015","474674.791743","475458.56047","476207.789401","485483.770458"
"Mixed","Female","cave","19","F_bluff.wav","space","579.45284422","227","484708.130106","476974.539585","477741.396741","478508.057575","479274.675434","480041.232696","480807.649286","481574.682359","485474.574212","486241.339854","487008.190827","473158.198","473925.074015","474674.791743","475458.56047","476207.789401","486250.944204"
"Mixed","Female","cave","19","F_cave.wav","None","720.021382207","227","484708.130106","476974.539585","477741.396741","478508.057575","479274.675434","480041.232696","480807.649286","481574.682359","485474.574212","486241.339854","487008.190827","487775.024177","473925.074015","474674.791743","475458.56047","476207.789401","487018.205754"
"Mixed","Female","cave","19","M_jolt.wav","space","501.963535324","227","484708.130106","476974.539585","477741.396741","478508.057575","479274.675434","480041.232696","480807.649286","481574.682359","485474.574212","486241.339854","487008.190827","487775.024177","488524.323908","474674.791743","475458.56047","476207.789401","487784.377481"
"Mixed","Female","cave","19","M_cling.wav","None","735.816850502","227","484708.130106","476974.539585","477741.396741","478508.057575","479274.675434","480041.232696","480807.649286","481574.682359","485474.574212","486241.339854","487008.190827","487775.024177","488524.323908","489290.919816","475458.56047","476207.789401","488533.487073"
"Mixed","Female","cave","19","F_cave.wav","None","735.448938853","227","484708.130106","476974.539585","477741.396741","478508.057575","479274.675434","480041.232696","480807.649286","481574.682359","485474.574212","486241.339854","487008.190827","487775.024177","488524.323908","489290.919816","490057.293432","476207.789401","489300.515818"
"Mixed","Female","cave","19","F_cling.wav","space","435.991407547","227","484708.130106","476974.539585","477741.396741","478508.057575","479274.675434","480041.232696","480807.649286","481574.682359","485474.574212","486241.339854","487008.190827","487775.024177","488524.323908","489290.919816","490057.293432","490824.148424","490066.279442"
"Mixed","Female","cave","19","F_dime.wav","None","734.183199005","227","484708.130106","491590.793799","477741.396741","478508.057575","479274.675434","480041.232696","480807.649286","481574.682359","485474.574212","486241.339854","487008.190827","487775.024177","488524.323908","489290.919816","490057.293432","490824.148424","490833.454116"
"Mixed","Female","cave","19","M_jolt.wav","None","733.846513438","227","484708.130106","491590.793799","492357.641062","478508.057575","479274.675434","480041.232696","480807.649286","481574.682359","485474.574212","486241.339854","487008.190827","487775.024177","488524.323908","489290.919816","490057.293432","490824.148424","491600.283137"
"Mixed","Female","cave","19","M_cad.wav","None","733.00371744","227","484708.130106","491590.793799","492357.641062","493124.107428","479274.675434","480041.232696","480807.649286","481574.682359","485474.574212","486241.339854","487008.190827","487775.024177","488524.323908","489290.919816","490057.293432","490824.148424","492367.402779"
"Mixed","Female","cave","19","M_reek.wav","None","733.279496606","227","484708.130106","491590.793799","492357.641062","493124.107428","493890.718176","480041.232696","480807.649286","481574.682359","485474.574212","486241.339854","487008.190827","487775.024177","488524.323908","489290.919816","490057.293432","490824.148424","493133.695082"
"Mixed","Female","cave","19","F_cave.wav","None","733.642770792","227","484708.130106","491590.793799","492357.641062","493124.107428","493890.718176","494657.204947","480807.649286","481574.682359","485474.574212","486241.339854","487008.190827","487775.024177","488524.323908","489290.919816","490057.293432","490824.148424","493900.033452"
"Mixed","Female","cave","19","M_greet.wav","space","547.828208131","227","484708.130106","491590.793799","492357.641062","493124.107428","493890.718176","494657.204947","495424.564504","481574.682359","485474.574212","486241.339854","487008.190827","487775.024177","488524.323908","489290.919816","490057.293432","490824.148424","494666.281545"
"Mixed","Female","cave","19","M_lash.wav","None","731.461270945","227","484708.130106","491590.793799","492357.641062","493124.107428","493890.718176","494657.204947","495424.564504","496190.775187","485474.574212","486241.339854","487008.190827","487775.024177","488524.323908","489290.919816","490057.293432","490824.148424","495433.871742"
"Mixed","Female","done","48","F_knife.wav","None","732.048383739","227","499324.124927","491590.793799","492357.641062","493124.107428","493890.718176","494657.204947","495424.564504","496190.775187","485474.574212","486241.339854","487008.190827","487775.024177","488524.323908","489290.919816","490057.293432","490824.148424","496200.399633"
"Mixed","Female","done","48","F_done.wav","None","721.933595312","227","499324.124927","491590.793799","492357.641062","493124.107428","493890.718176","494657.204947","495424.564504","496190.775187","500090.923341","486241.339854","487008.190827","487775.024177","488524.323908","489290.919816","490057.293432","490824.148424","499333.261812"
"Mixed","Female","done","48","F_park.wav","None","720.638793602","227","499324.124927","491590.793799","492357.641062","493124.107428","493890.718176","494657.204947","495424.564504","496190.775187","500090.923341","500857.822235","487008.190827","487775.024177","488524.323908","489290.919816","490057.293432","490824.148424","500101.110784"
"Mixed","Female","done","48","M_cave.wav","space","394.327729533","227","499324.124927","491590.793799","492357.641062","493124.107428","493890.718176","494657.204947","495424.564504","496190.775187","500090.923341","500857.822235","501624.320446","487775.024177","488524.323908","489290.919816","490057.293432","490824.148424","500867.60343"
"Mixed","Female","done","48","M_jaw.wav","None","719.351721054","227","499324.124927","491590.793799","492357.641062","493124.107428","493890.718176","494657.204947","495424.564504","496190.775187","500090.923341","500857.822235","501624.320446","502391.028273","488524.323908","489290.919816","490057.293432","490824.148424","501634.050318"
"Mixed","Female","done","48","F_done.wav","None","719.368725375","227","499324.124927","491590.793799","492357.641062","493124.107428","493890.718176","494657.204947","495424.564504","496190.775187","500090.923341","500857.822235","501624.320446","502391.028273","503157.572859","489290.919816","490057.293432","490824.148424","502400.440938"
