"Condition","Talker","Target","Trial","current_stimulus","response_response","response_time_response","subject_nr","time_Audio1","time_Audio10","time_Audio11","time_Audio12","time_Audio13","time_Audio14","time_Audio15","time_Audio16","time_Audio2","time_Audio3","time_Audio4","time_Audio5","time_Audio6","time_Audio7","time_Audio8","time_Audio9","time_response","title"
"Blocked","Male","tile","13","M_cling.wav","NA","NA","409","101038.255162","NA","NA","NA","NA","NA","NA","NA","NA","NA","NA","NA","NA","NA","NA","NA","NA","Mapping"
"Blocked","Male","tile","13","M_tile.wav","None","720.966093231","409","101038.255162","NA","NA","NA","NA","NA","NA","NA","101804.825599","NA","NA","NA","NA","NA","NA","NA","101049.772455","Mapping"
"Blocked","Male","tile","13","M_bluff.wav","space","471.941867585","409","101038.255162","NA","NA","NA","NA","NA","NA","NA","101804.825599","102571.995772","NA","NA","NA","NA","NA","NA","101808.177936","Mapping"
"Blocked","Male","tile","13","M_jolt.wav","None","727.351368308","409","101038.255162","NA","NA","NA","NA","NA","NA","NA","101804.825599","102571.995772","103339.31618","NA","NA","NA","NA","NA","102575.333987","Mapping"
"Blocked","Male","tile","13","M_cling.wav","None","726.356213677","409","101038.255162","NA","NA","NA","NA","NA","NA","NA","101804.825599","102571.995772","103339.31618","104089.693119","NA","NA","NA","NA","103342.411014","Mapping"
"Blocked","Male","tile","13","M_park.wav","None","742.278086827","409","101038.255162","NA","NA","NA","NA","NA","NA","NA","101804.825599","102571.995772","103339.31618","104089.693119","104856.801696","NA","NA","NA","104092.571315","Mapping"
"Blocked","Male","tile","13","M_tile.wav","None","741.313880544","409","101038.255162","NA","NA","NA","NA","NA","NA","NA","101804.825599","102571.995772","103339.31618","104089.693119","104856.801696","105624.095362","NA","NA","104859.568718","Mapping"
"Blocked","Male","tile","13","M_depth.wav","space","389.405929944","409","101038.255162","NA","NA","NA","NA","NA","NA","NA","101804.825599","102571.995772","103339.31618","104089.693119","104856.801696","105624.095362","106391.290474","NA","105626.698028","Mapping"
"Blocked","Male","tile","13","M_lash.wav","None","738.91883901","409","101038.255162","NA","NA","NA","NA","NA","NA","NA","101804.825599","102571.995772","103339.31618","104089.693119","104856.801696","105624.095362","106391.290474","107158.574826","106394.012126","Mapping"
"Blocked","Male","tile","13","M_priest.wav","None","737.740998989","409","101038.255162","107925.716755","NA","NA","NA","NA","NA","NA","101804.825599","102571.995772","103339.31618","104089.693119","104856.801696","105624.095362","106391.290474","107158.574826","107161.341548","Mapping"
"Blocked","Male","tile","13","M_tile.wav","None","736.375365596","409","101038.255162","107925.716755","108693.001707","NA","NA","NA","NA","NA","101804.825599","102571.995772","103339.31618","104089.693119","104856.801696","105624.095362","106391.290474","107158.574826","107928.93358","Mapping"
"Blocked","Male","tile","13","M_depth.wav","space","417.37392154","409","101038.255162","107925.716755","108693.001707","109460.633101","NA","NA","NA","NA","101804.825599","102571.995772","103339.31618","104089.693119","104856.801696","105624.095362","106391.290474","107158.574826","108695.721556","Mapping"
"Blocked","Male","tile","13","M_tile.wav","None","733.595723239","409","101038.255162","107925.716755","108693.001707","109460.633101","110227.882899","NA","NA","NA","101804.825599","102571.995772","103339.31618","104089.693119","104856.801696","105624.095362","106391.290474","107158.574826","109463.558471","Mapping"
"Blocked","Male","tile","13","M_depth.wav","space","434.757277819","409","101038.255162","107925.716755","108693.001707","109460.633101","110227.882899","110994.655551","NA","NA","101804.825599","102571.995772","103339.31618","104089.693119","104856.801696","105624.095362","106391.290474","107158.574826","110231.369245","Mapping"
"Blocked","Male","tile","13","M_bluff.wav","None","731.463592424","409","101038.255162","107925.716755","108693.001707","109460.633101","110227.882899","110994.655551","111762.054682","NA","101804.825599","102571.995772","103339.31618","104089.693119","104856.801696","105624.095362","106391.290474","107158.574826","110997.801165","Mapping"
"Blocked","Male","tile","13","M_jolt.wav","None","730.012325254","409","101038.255162","107925.716755","108693.001707","109460.633101","110227.882899","110994.655551","111762.054682","112529.390714","101804.825599","102571.995772","103339.31618","104089.693119","104856.801696","105624.095362","106391.290474","107158.574826","111765.454793","Mapping"
"Blocked","Male","tile","17","M_cad.wav","None","728.935442949","409","115698.917649","107925.716755","108693.001707","109460.633101","110227.882899","110994.655551","111762.054682","112529.390714","101804.825599","102571.995772","103339.31618","104089.693119","104856.801696","105624.095362","106391.290474","107158.574826","112532.141812","Mapping"
"Blocked","Male","tile","17","M_reek.wav","None","728.511180166","409","115698.917649","107925.716755","108693.001707","109460.633101","110227.882899","110994.655551","111762.054682","112529.390714","116465.51633","102571.995772","103339.31618","104089.693119","104856.801696","105624.095362","106391.290474","107158.574826","115702.540409","Mapping"
"Blocked","Male","tile","17","M_tile.wav","None","728.390691939","409","115698.917649","107925.716755","108693.001707","109460.633101","110227.882899","110994.655551","111762.054682","112529.390714","116465.51633","117232.783554","103339.31618","104089.693119","104856.801696","105624.095362","106391.290474","107158.574826","116468.765906","Mapping"
"Blocked","Male","tile","17","M_gnash.wav","space","407.556985523","409","115698.917649","107925.716755","108693.001707","109460.633101","110227.882899","110994.655551","111762.054682","112529.390714","116465.51633","117232.783554","117999.706441","104089.693119","104856.801696","105624.095362","106391.290474","107158.574826","117235.603159","Mapping"
"Blocked","Male","tile","17","M_tile.wav","space","566.25800826","409","115698.917649","107925.716755","108693.001707","109460.633101","110227.882899","110994.655551","111762.054682","112529.390714","116465.51633","117232.783554","117999.706441","118750.278986","104856.801696","105624.095362","106391.290474","107158.574826","118002.849652","Mapping"
"Blocked","Male","tile","17","M_reek.wav","space","508.184185334","409","115698.917649","107925.716755","108693.001707","109460.633101","110227.882899","110994.655551","111762.054682","112529.390714","116465.51633","117232.783554","117999.706441","118750.278986","119517.479206","105624.095362","106391.290474","107158.574826","118752.952863","Mapping"
"Blocked","Male","tile","17","M_tile.wav","None","740.385129649","409","115698.917649","107925.716755","108693.001707","109460.633101","110227.882899","110994.655551","111762.054682","112529.390714","116465.51633","117232.783554","117999.706441","118750.278986","119517.479206","120284.724797","106391.290474","107158.574826","119520.102905","Mapping"
"Blocked","Male","tile","17","M_cad.wav","space","349.923650727","409","115698.917649","107925.716755","108693.001707","109460.633101","110227.882899","110994.655551","111762.054682","112529.390714","116465.51633","117232.783554","117999.706441","118750.278986","119517.479206","120284.724797","121051.903684","107158.574826","120287.195557","Mapping"
"Blocked","Male","tile","17","M_park.wav","None","737.740097581","409","115698.917649","107925.716755","108693.001707","109460.633101","110227.882899","110994.655551","111762.054682","112529.390714","116465.51633","117232.783554","117999.706441","118750.278986","119517.479206","120284.724797","121051.903684","121819.164298","121054.782181","Mapping"
"Blocked","Male","tile","17","M_gnash.wav","None","736.778595522","409","115698.917649","122586.411692","108693.001707","109460.633101","110227.882899","110994.655551","111762.054682","112529.390714","116465.51633","117232.783554","117999.706441","118750.278986","119517.479206","120284.724797","121051.903684","121819.164298","121821.958664","Mapping"
"Blocked","Male","tile","17","M_tile.wav","None","735.355872945","409","115698.917649","122586.411692","123353.653678","109460.633101","110227.882899","110994.655551","111762.054682","112529.390714","116465.51633","117232.783554","117999.706441","118750.278986","119517.479206","120284.724797","121051.903684","121819.164298","122589.25864","Mapping"
"Blocked","Male","tile","17","M_cad.wav","space","356.527066583","409","115698.917649","122586.411692","123353.653678","124120.777278","110227.882899","110994.655551","111762.054682","112529.390714","116465.51633","117232.783554","117999.706441","118750.278986","119517.479206","120284.724797","121051.903684","121819.164298","123356.56102","Mapping"
"Blocked","Male","tile","17","M_knife.wav","None","732.933188227","409","115698.917649","122586.411692","123353.653678","124120.777278","124888.084766","110994.655551","111762.054682","112529.390714","116465.51633","117232.783554","117999.706441","118750.278986","119517.479206","120284.724797","121051.903684","121819.164298","124123.55031","Mapping"
"Blocked","Male","tile","17","M_romp.wav","None","731.318165238","409","115698.917649","122586.411692","123353.653678","124120.777278","124888.084766","125655.579446","111762.054682","112529.390714","116465.51633","117232.783554","117999.706441","118750.278986","119517.479206","120284.724797","121051.903684","121819.164298","124891.175695","Mapping"
"Blocked","Male","tile","17","M_depth.wav","None","730.102766542","409","115698.917649","122586.411692","123353.653678","124120.777278","124888.084766","125655.579446","126422.620418","112529.390714","116465.51633","117232.783554","117999.706441","118750.278986","119517.479206","120284.724797","121051.903684","121819.164298","125658.640628","Mapping"
"Blocked","Male","tile","17","M_jolt.wav","None","729.815818271","409","115698.917649","122586.411692","123353.653678","124120.777278","124888.084766","125655.579446","126422.620418","127189.97568","116465.51633","117232.783554","117999.706441","118750.278986","119517.479206","120284.724797","121051.903684","121819.164298","126425.382332","Mapping"
"Blocked","Male","cave","12","M_cad.wav","None","728.491048716","409","130309.559193","122586.411692","123353.653678","124120.777278","124888.084766","125655.579446","126422.620418","127189.97568","116465.51633","117232.783554","117999.706441","118750.278986","119517.479206","120284.724797","121051.903684","121819.164298","127193.099059","Mapping"
"Blocked","Male","cave","12","M_jolt.wav","None","727.738372886","409","130309.559193","122586.411692","123353.653678","124120.777278","124888.084766","125655.579446","126422.620418","127189.97568","131076.111602","117232.783554","117999.706441","118750.278986","119517.479206","120284.724797","121051.903684","121819.164298","130313.220112","Mapping"
"Blocked","Male","cave","12","M_cave.wav","None","728.030729606","409","130309.559193","122586.411692","123353.653678","124120.777278","124888.084766","125655.579446","126422.620418","127189.97568","131076.111602","131843.228892","117999.706441","118750.278986","119517.479206","120284.724797","121051.903684","121819.164298","131079.067319","Mapping"
"Blocked","Male","cave","12","M_lash.wav","space","427.542406748","409","130309.559193","122586.411692","123353.653678","124120.777278","124888.084766","125655.579446","126422.620418","127189.97568","131076.111602","131843.228892","132593.717305","118750.278986","119517.479206","120284.724797","121051.903684","121819.164298","131846.591445","Mapping"
"Blocked","Male","cave","12","M_cave.wav","None","742.434931851","409","130309.559193","122586.411692","123353.653678","124120.777278","124888.084766","125655.579446","126422.620418","127189.97568","131076.111602","131843.228892","132593.717305","133360.832192","119517.479206","120284.724797","121051.903684","121819.164298","132596.743332","Mapping"
"Blocked","Male","cave","12","M_bluff.wav","space","436.487981524","409","130309.559193","122586.411692","123353.653678","124120.777278","124888.084766","125655.579446","126422.620418","127189.97568","131076.111602","131843.228892","132593.717305","133360.832192","134128.407999","120284.724797","121051.903684","121819.164298","133363.593506","Mapping"
"Blocked","Male","cave","12","M_knife.wav","None","739.540810654","409","130309.559193","122586.411692","123353.653678","124120.777278","124888.084766","125655.579446","126422.620418","127189.97568","131076.111602","131843.228892","132593.717305","133360.832192","134128.407999","134895.620538","121051.903684","121819.164298","134131.964355","Mapping"
"Blocked","Male","cave","12","M_park.wav","None","739.464190959","409","130309.559193","122586.411692","123353.653678","124120.777278","124888.084766","125655.579446","126422.620418","127189.97568","131076.111602","131843.228892","132593.717305","133360.832192","134128.407999","134895.620538","135662.480327","121819.164298","134898.648969","Mapping"
"Blocked","Male","cave","12","M_romp.wav","None","738.386707715","409","130309.559193","122586.411692","123353.653678","124120.777278","124888.084766","125655.579446","126422.620418","127189.97568","131076.111602","131843.228892","132593.717305","133360.832192","134128.407999","134895.620538","135662.480327","136429.63127","135665.707068","Mapping"
"Blocked","Male","cave","12","M_greet.wav","None","737.875308807","409","130309.559193","137196.909312","123353.653678","124120.777278","124888.084766","125655.579446","126422.620418","127189.97568","131076.111602","131843.228892","132593.717305","133360.832192","134128.407999","134895.620538","135662.480327","136429.63127","136432.368546","Mapping"
"Blocked","Male","cave","12","M_cave.wav","None","736.72541244","409","130309.559193","137196.909312","137964.260668","124120.777278","124888.084766","125655.579446","126422.620418","127189.97568","131076.111602","131843.228892","132593.717305","133360.832192","134128.407999","134895.620538","135662.480327","136429.63127","137199.779696","Mapping"
"Blocked","Male","cave","12","M_jolt.wav","space","609.198089255","409","130309.559193","137196.909312","137964.260668","138731.433846","124888.084766","125655.579446","126422.620418","127189.97568","131076.111602","131843.228892","132593.717305","133360.832192","134128.407999","134895.620538","135662.480327","136429.63127","137966.889174","Mapping"
"Blocked","Male","cave","12","M_dime.wav","None","734.856192344","409","130309.559193","137196.909312","137964.260668","138731.433846","139498.599212","125655.579446","126422.620418","127189.97568","131076.111602","131843.228892","132593.717305","133360.832192","134128.407999","134895.620538","135662.480327","136429.63127","138733.922333","Mapping"
"Blocked","Male","cave","12","M_depth.wav","None","733.440981501","409","130309.559193","137196.909312","137964.260668","138731.433846","139498.599212","140265.819864","126422.620418","127189.97568","131076.111602","131843.228892","132593.717305","133360.832192","134128.407999","134895.620538","135662.480327","136429.63127","139501.630347","Mapping"
"Blocked","Male","cave","12","M_cave.wav","None","732.478578035","409","130309.559193","137196.909312","137964.260668","138731.433846","139498.599212","140265.819864","141033.115934","127189.97568","131076.111602","131843.228892","132593.717305","133360.832192","134128.407999","134895.620538","135662.480327","136429.63127","140268.622642","Mapping"
"Blocked","Male","cave","12","M_romp.wav","space","649.250358911","409","130309.559193","137196.909312","137964.260668","138731.433846","139498.599212","140265.819864","141033.115934","141800.564943","131076.111602","131843.228892","132593.717305","133360.832192","134128.407999","134895.620538","135662.480327","136429.63127","141035.845698","Mapping"
"Blocked","Male","done","19","M_cad.wav","None","729.142766831","409","144919.947442","137196.909312","137964.260668","138731.433846","139498.599212","140265.819864","141033.115934","141800.564943","131076.111602","131843.228892","132593.717305","133360.832192","134128.407999","134895.620538","135662.480327","136429.63127","141803.84727","Mapping"
"Blocked","Male","done","19","M_lash.wav","None","727.762410438","409","144919.947442","137196.909312","137964.260668","138731.433846","139498.599212","140265.819864","141033.115934","141800.564943","145686.5957","131843.228892","132593.717305","133360.832192","134128.407999","134895.620538","135662.480327","136429.63127","144923.779028","Mapping"
"Blocked","Male","done","19","M_done.wav","None","727.972739013","409","144919.947442","137196.909312","137964.260668","138731.433846","139498.599212","140265.819864","141033.115934","141800.564943","145686.5957","146453.852408","132593.717305","133360.832192","134128.407999","134895.620538","135662.480327","136429.63127","145689.631643","Mapping"
"Blocked","Male","done","19","M_priest.wav","space","520.409684008","409","144919.947442","137196.909312","137964.260668","138731.433846","139498.599212","140265.819864","141033.115934","141800.564943","145686.5957","146453.852408","147221.259952","133360.832192","134128.407999","134895.620538","135662.480327","136429.63127","146456.713177","Mapping"
"Blocked","Male","done","19","M_knife.wav","None","725.830091769","409","144919.947442","137196.909312","137964.260668","138731.433846","139498.599212","140265.819864","141033.115934","141800.564943","145686.5957","146453.852408","147221.259952","147971.501079","134128.407999","134895.620538","135662.480327","136429.63127","147224.214768","Mapping"
"Blocked","Male","done","19","M_done.wav","None","741.960490679","409","144919.947442","137196.909312","137964.260668","138731.433846","139498.599212","140265.819864","141033.115934","141800.564943","145686.5957","146453.852408","147221.259952","147971.501079","148738.635196","134895.620538","135662.480327","136429.63127","147974.002787","Mapping"
"Blocked","Male","done","19","M_reek.wav","space","417.901846265","409","144919.947442","137196.909312","137964.260668","138731.433846","139498.599212","140265.819864","141033.115934","141800.564943","145686.5957","146453.852408","147221.259952","147971.501079","148738.635196","149505.886796","135662.480327","136429.63127","148741.225242","Mapping"
"Blocked","Male","done","19","M_cad.wav","None","739.593693268","409","144919.947442","137196.909312","137964.260668","138731.433846","139498.599212","140265.819864","141033.115934","141800.564943","145686.5957","146453.852408","147221.259952","147971.501079","148738.635196","149505.886796","150273.11496","136429.63127","149508.528223","Mapping"
"Blocked","Male","done","19","M_done.wav","None","737.927890952","409","144919.947442","137196.909312","137964.260668","138731.433846","139498.599212","140265.819864","141033.115934","141800.564943","145686.5957","146453.852408","147221.259952","147971.501079","148738.635196","149505.886796","150273.11496","151040.389096","150276.401494","Mapping"
"Blocked","Male","done","19","M_dime.wav","space","377.424111948","409","144919.947442","151807.492264","137964.260668","138731.433846","139498.599212","140265.819864","141033.115934","141800.564943","145686.5957","146453.852408","147221.259952","147971.501079","148738.635196","149505.886796","150273.11496","151040.389096","151043.670522","Mapping"
"Blocked","Male","done","19","M_reek.wav","None","735.926163853","409","144919.947442","151807.492264","152574.812071","138731.433846","139498.599212","140265.819864","141033.115934","141800.564943","145686.5957","146453.852408","147221.259952","147971.501079","148738.635196","149505.886796","150273.11496","151040.389096","151810.49816","Mapping"
"Blocked","Male","done","19","M_jaw.wav","None","735.416267293","409","144919.947442","151807.492264","152574.812071","153342.019202","139498.599212","140265.819864","141033.115934","141800.564943","145686.5957","146453.852408","147221.259952","147971.501079","148738.635196","149505.886796","150273.11496","151040.389096","152577.463113","Mapping"
"Blocked","Male","done","19","M_done.wav","None","734.316849782","409","144919.947442","151807.492264","152574.812071","153342.019202","154109.132887","140265.819864","141033.115934","141800.564943","145686.5957","146453.852408","147221.259952","147971.501079","148738.635196","149505.886796","150273.11496","151040.389096","153344.662732","Mapping"
"Blocked","Male","done","19","M_bluff.wav","space","556.869241129","409","144919.947442","151807.492264","152574.812071","153342.019202","154109.132887","154876.448488","141033.115934","141800.564943","145686.5957","146453.852408","147221.259952","147971.501079","148738.635196","149505.886796","150273.11496","151040.389096","154112.227722","Mapping"
"Blocked","Male","done","19","M_jaw.wav","None","731.980099311","409","144919.947442","151807.492264","152574.812071","153342.019202","154109.132887","154876.448488","155643.760783","141800.564943","145686.5957","146453.852408","147221.259952","147971.501079","148738.635196","149505.886796","150273.11496","151040.389096","154879.247961","Mapping"
"Blocked","Male","done","19","M_gnash.wav","None","730.086841664","409","144919.947442","151807.492264","152574.812071","153342.019202","154109.132887","154876.448488","155643.760783","156411.092008","145686.5957","146453.852408","147221.259952","147971.501079","148738.635196","149505.886796","150273.11496","151040.389096","155647.237815","Mapping"
"Blocked","Male","ball","1","M_cad.wav","None","729.57904839","409","159547.280061","151807.492264","152574.812071","153342.019202","154109.132887","154876.448488","155643.760783","156411.092008","145686.5957","146453.852408","147221.259952","147971.501079","148738.635196","149505.886796","150273.11496","151040.389096","156414.066655","Mapping"
"Blocked","Male","ball","1","M_romp.wav","None","728.145508914","409","159547.280061","151807.492264","152574.812071","153342.019202","154109.132887","154876.448488","155643.760783","156411.092008","160313.885352","146453.852408","147221.259952","147971.501079","148738.635196","149505.886796","150273.11496","151040.389096","159550.677769","Mapping"
"Blocked","Male","ball","1","M_knife.wav","None","728.768081497","409","159547.280061","151807.492264","152574.812071","153342.019202","154109.132887","154876.448488","155643.760783","156411.092008","160313.885352","161081.826529","147221.259952","147971.501079","148738.635196","149505.886796","150273.11496","151040.389096","160316.523473","Mapping"
"Blocked","Male","ball","1","M_cad.wav","None","725.772401646","409","159547.280061","151807.492264","152574.812071","153342.019202","154109.132887","154876.448488","155643.760783","156411.092008","160313.885352","161081.826529","161848.899651","147971.501079","148738.635196","149505.886796","150273.11496","151040.389096","161085.559862","Mapping"
"Blocked","Male","ball","1","M_ball.wav","None","725.387800822","409","159547.280061","151807.492264","152574.812071","153342.019202","154109.132887","154876.448488","155643.760783","156411.092008","160313.885352","161081.826529","161848.899651","162599.099012","148738.635196","149505.886796","150273.11496","151040.389096","161852.360758","Mapping"
"Blocked","Male","ball","1","M_greet.wav","space","353.941827924","409","159547.280061","151807.492264","152574.812071","153342.019202","154109.132887","154876.448488","155643.760783","156411.092008","160313.885352","161081.826529","161848.899651","162599.099012","163366.251458","149505.886796","150273.11496","151040.389096","162602.141566","Mapping"
"Blocked","Male","ball","1","M_cad.wav","None","740.604472307","409","159547.280061","151807.492264","152574.812071","153342.019202","154109.132887","154876.448488","155643.760783","156411.092008","160313.885352","161081.826529","161848.899651","162599.099012","163366.251458","164133.483528","150273.11496","151040.389096","163369.321654","Mapping"
"Blocked","Male","ball","1","M_ball.wav","None","739.679927984","409","159547.280061","151807.492264","152574.812071","153342.019202","154109.132887","154876.448488","155643.760783","156411.092008","160313.885352","161081.826529","161848.899651","162599.099012","163366.251458","164133.483528","164900.340011","151040.389096","164136.625837","Mapping"
"Blocked","Male","ball","1","M_bluff.wav","space","325.067019699","409","159547.280061","151807.492264","152574.812071","153342.019202","154109.132887","154876.448488","155643.760783","156411.092008","160313.885352","161081.826529","161848.899651","162599.099012","163366.251458","164133.483528","164900.340011","165667.572382","164903.091109","Mapping"
"Blocked","Male","ball","1","M_jolt.wav","None","737.904153869","409","159547.280061","166434.755775","152574.812071","153342.019202","154109.132887","154876.448488","155643.760783","156411.092008","160313.885352","161081.826529","161848.899651","162599.099012","163366.251458","164133.483528","164900.340011","165667.572382","165670.237846","Mapping"
"Blocked","Male","ball","1","M_ball.wav","None","736.647290397","409","159547.280061","166434.755775","167202.060859","153342.019202","154109.132887","154876.448488","155643.760783","156411.092008","160313.885352","161081.826529","161848.899651","162599.099012","163366.251458","164133.483528","164900.340011","165667.572382","166437.494554","Mapping"
"Blocked","Male","ball","1","M_priest.wav","space","329.275093551","409","159547.280061","166434.755775","167202.060859","167969.33169","154109.132887","154876.448488","155643.760783","156411.092008","160313.885352","161081.826529","161848.899651","162599.099012","163366.251458","164133.483528","164900.340011","165667.572382","167204.830286","Mapping"
"Blocked","Male","ball","1","M_ball.wav","None","734.077375676","409","159547.280061","166434.755775","167202.060859","167969.33169","168736.567966","154876.448488","155643.760783","156411.092008","160313.885352","161081.826529","161848.899651","162599.099012","163366.251458","164133.483528","164900.340011","165667.572382","167972.147689","Mapping"
"Blocked","Male","ball","1","M_depth.wav","space","454.709647411","409","159547.280061","166434.755775","167202.060859","167969.33169","168736.567966","169503.669032","155643.760783","156411.092008","160313.885352","161081.826529","161848.899651","162599.099012","163366.251458","164133.483528","164900.340011","165667.572382","168739.392679","Mapping"
"Blocked","Male","ball","1","M_bluff.wav","None","732.313319868","409","159547.280061","166434.755775","167202.060859","167969.33169","168736.567966","169503.669032","170270.929045","156411.092008","160313.885352","161081.826529","161848.899651","162599.099012","163366.251458","164133.483528","164900.340011","165667.572382","169506.426439","Mapping"
"Blocked","Male","ball","1","M_bluff.wav","None","731.72319798","409","159547.280061","166434.755775","167202.060859","167969.33169","168736.567966","169503.669032","170270.929045","171038.396383","160313.885352","161081.826529","161848.899651","162599.099012","163366.251458","164133.483528","164900.340011","165667.572382","170273.335204","Mapping"
"Blocked","Male","ball","4","M_romp.wav","None","729.990691458","409","174157.821549","166434.755775","167202.060859","167969.33169","168736.567966","169503.669032","170270.929045","171038.396383","160313.885352","161081.826529","161848.899651","162599.099012","163366.251458","164133.483528","164900.340011","165667.572382","171041.468382","Mapping"
"Blocked","Male","ball","4","M_ball.wav","None","729.270466323","409","174157.821549","166434.755775","167202.060859","167969.33169","168736.567966","169503.669032","170270.929045","171038.396383","174924.568962","161081.826529","161848.899651","162599.099012","163366.251458","164133.483528","164900.340011","165667.572382","174161.478862","Mapping"
"Blocked","Male","ball","4","M_reek.wav","space","346.806280772","409","174157.821549","166434.755775","167202.060859","167969.33169","168736.567966","169503.669032","170270.929045","171038.396383","174924.568962","175691.824468","161848.899651","162599.099012","163366.251458","164133.483528","164900.340011","165667.572382","174927.276191","Mapping"
"Blocked","Male","ball","4","M_ball.wav","None","728.643386699","409","174157.821549","166434.755775","167202.060859","167969.33169","168736.567966","169503.669032","170270.929045","171038.396383","174924.568962","175691.824468","176459.099806","162599.099012","163366.251458","164133.483528","164900.340011","165667.572382","175694.489932","Mapping"
"Blocked","Male","ball","4","M_depth.wav","space","345.352309378","409","174157.821549","166434.755775","167202.060859","167969.33169","168736.567966","169503.669032","170270.929045","171038.396383","174924.568962","175691.824468","176459.099806","177226.224909","163366.251458","164133.483528","164900.340011","165667.572382","176461.731317","Mapping"
"Blocked","Male","ball","4","M_gnash.wav","None","726.006166834","409","174157.821549","166434.755775","167202.060859","167969.33169","168736.567966","169503.669032","170270.929045","171038.396383","174924.568962","175691.824468","176459.099806","177226.224909","177976.512608","164133.483528","164900.340011","165667.572382","177229.332964","Mapping"
"Blocked","Male","ball","4","M_romp.wav","None","742.505842627","409","174157.821549","166434.755775","167202.060859","167969.33169","168736.567966","169503.669032","170270.929045","171038.396383","174924.568962","175691.824468","176459.099806","177226.224909","177976.512608","178743.631401","164900.340011","165667.572382","177979.146823","Mapping"
"Blocked","Male","ball","4","M_greet.wav","None","741.912415575","409","174157.821549","166434.755775","167202.060859","167969.33169","168736.567966","169503.669032","170270.929045","171038.396383","174924.568962","175691.824468","176459.099806","177226.224909","177976.512608","178743.631401","179511.000785","165667.572382","178746.130104","Mapping"
"Blocked","Male","ball","4","M_ball.wav","None","740.77123282","409","174157.821549","166434.755775","167202.060859","167969.33169","168736.567966","169503.669032","170270.929045","171038.396383","174924.568962","175691.824468","176459.099806","177226.224909","177976.512608","178743.631401","179511.000785","180278.226846","179513.750681","Mapping"
"Blocked","Male","ball","4","M_jolt.wav","space","420.001225915","409","174157.821549","181045.397019","167202.060859","167969.33169","168736.567966","169503.669032","170270.929045","171038.396383","174924.568962","175691.824468","176459.099806","177226.224909","177976.512608","178743.631401","179511.000785","180278.226846","180281.080704","Mapping"
"Blocked","Male","ball","4","M_depth.wav","None","738.247289916","409","174157.821549","181045.397019","181812.608657","167969.33169","168736.567966","169503.669032","170270.929045","171038.396383","174924.568962","175691.824468","176459.099806","177226.224909","177976.512608","178743.631401","179511.000785","180278.226846","181048.100643","Mapping"
"Blocked","Male","ball","4","M_gnash.wav","None","737.609092925","409","174157.821549","181045.397019","181812.608657","182579.864164","168736.567966","169503.669032","170270.929045","171038.396383","174924.568962","175691.824468","176459.099806","177226.224909","177976.512608","178743.631401","179511.000785","180278.226846","181815.185182","Mapping"
"Blocked","Male","ball","4","M_cling.wav","None","736.82937485","409","174157.821549","181045.397019","181812.608657","182579.864164","183347.073999","169503.669032","170270.929045","171038.396383","174924.568962","175691.824468","176459.099806","177226.224909","177976.512608","178743.631401","179511.000785","180278.226846","182582.488463","Mapping"
"Blocked","Male","ball","4","M_greet.wav","None","735.589037194","409","174157.821549","181045.397019","181812.608657","182579.864164","183347.073999","184114.273318","170270.929045","171038.396383","174924.568962","175691.824468","176459.099806","177226.224909","177976.512608","178743.631401","179511.000785","180278.226846","183350.116853","Mapping"
"Blocked","Male","ball","4","M_ball.wav","None","734.707159525","409","174157.821549","181045.397019","181812.608657","182579.864164","183347.073999","184114.273318","184881.505388","171038.396383","174924.568962","175691.824468","176459.099806","177226.224909","177976.512608","178743.631401","179511.000785","180278.226846","184117.363946","Mapping"
"Blocked","Male","ball","4","M_jolt.wav","space","519.050961412","409","174157.821549","181045.397019","181812.608657","182579.864164","183347.073999","184114.273318","184881.505388","185648.787636","174924.568962","175691.824468","176459.099806","177226.224909","177976.512608","178743.631401","179511.000785","180278.226846","184884.096035","Mapping"
"Blocked","Male","ball","6","M_gnash.wav","None","731.955160351","409","188785.201642","181045.397019","181812.608657","182579.864164","183347.073999","184114.273318","184881.505388","185648.787636","174924.568962","175691.824468","176459.099806","177226.224909","177976.512608","178743.631401","179511.000785","180278.226846","185652.067259","Mapping"
"Blocked","Male","ball","6","M_reek.wav","None","727.445715697","409","188785.201642","181045.397019","181812.608657","182579.864164","183347.073999","184114.273318","184881.505388","185648.787636","189551.744736","175691.824468","176459.099806","177226.224909","177976.512608","178743.631401","179511.000785","180278.226846","188789.025115","Mapping"
"Blocked","Male","ball","6","M_ball.wav","None","727.837527786","409","188785.201642","181045.397019","181812.608657","182579.864164","183347.073999","184114.273318","184881.505388","185648.787636","189551.744736","190319.057031","176459.099806","177226.224909","177976.512608","178743.631401","179511.000785","180278.226846","189555.120509","Mapping"
"Blocked","Male","ball","6","M_gnash.wav","space","384.243565298","409","188785.201642","181045.397019","181812.608657","182579.864164","183347.073999","184114.273318","184881.505388","185648.787636","189551.744736","190319.057031","191086.131354","177226.224909","177976.512608","178743.631401","179511.000785","180278.226846","190321.868823","Mapping"
"Blocked","Male","ball","6","M_priest.wav","None","726.507349782","409","188785.201642","181045.397019","181812.608657","182579.864164","183347.073999","184114.273318","184881.505388","185648.787636","189551.744736","190319.057031","191086.131354","191836.607148","177976.512608","178743.631401","179511.000785","180278.226846","191088.664912","Mapping"
"Blocked","Male","ball","6","M_ball.wav","None","741.922331066","409","188785.201642","181045.397019","181812.608657","182579.864164","183347.073999","184114.273318","184881.505388","185648.787636","189551.744736","190319.057031","191086.131354","191836.607148","192603.797152","178743.631401","179511.000785","180278.226846","191839.632874","Mapping"
"Blocked","Male","ball","6","M_park.wav","space","317.716035991","409","188785.201642","181045.397019","181812.608657","182579.864164","183347.073999","184114.273318","184881.505388","185648.787636","189551.744736","190319.057031","191086.131354","191836.607148","192603.797152","193370.974837","179511.000785","180278.226846","192606.389902","Mapping"
"Blocked","Male","ball","6","M_cad.wav","None","740.153467747","409","188785.201642","181045.397019","181812.608657","182579.864164","183347.073999","184114.273318","184881.505388","185648.787636","189551.744736","190319.057031","191086.131354","191836.607148","192603.797152","193370.974837","194138.25378","180278.226846","193373.768902","Mapping"
"Blocked","Male","ball","6","M_ball.wav","None","739.491233205","409","188785.201642","181045.397019","181812.608657","182579.864164","183347.073999","184114.273318","184881.505388","185648.787636","189551.744736","190319.057031","191086.131354","191836.607148","192603.797152","193370.974837","194138.25378","194905.488855","194141.062868","Mapping"
"Blocked","Male","ball","6","M_gnash.wav","space","357.69739487","409","188785.201642","195673.139178","181812.608657","182579.864164","183347.073999","184114.273318","184881.505388","185648.787636","189551.744736","190319.057031","191086.131354","191836.607148","192603.797152","193370.974837","194138.25378","194905.488855","194908.348722","Mapping"
"Blocked","Male","ball","6","M_knife.wav","None","735.822501912","409","188785.201642","195673.139178","196440.373952","182579.864164","183347.073999","184114.273318","184881.505388","185648.787636","189551.744736","190319.057031","191086.131354","191836.607148","192603.797152","193370.974837","194138.25378","194905.488855","195676.302219","Mapping"
"Blocked","Male","ball","6","M_cad.wav","None","734.726690035","409","188785.201642","195673.139178","196440.373952","197207.071187","183347.073999","184114.273318","184881.505388","185648.787636","189551.744736","190319.057031","191086.131354","191836.607148","192603.797152","193370.974837","194138.25378","194905.488855","196443.590778","Mapping"
"Blocked","Male","ball","6","M_ball.wav","None","734.749525709","409","188785.201642","195673.139178","196440.373952","197207.071187","197974.37597","184114.273318","184881.505388","185648.787636","189551.744736","190319.057031","191086.131354","191836.607148","192603.797152","193370.974837","194138.25378","194905.488855","197210.088801","Mapping"
"Blocked","Male","ball","6","M_jolt.wav","space","472.72699411","409","188785.201642","195673.139178","196440.373952","197207.071187","197974.37597","198741.574988","184881.505388","185648.787636","189551.744736","190319.057031","191086.131354","191836.607148","192603.797152","193370.974837","194138.25378","194905.488855","197977.381866","Mapping"
"Blocked","Male","ball","6","M_jolt.wav","None","732.883911246","409","188785.201642","195673.139178","196440.373952","197207.071187","197974.37597","198741.574988","199508.84642","185648.787636","189551.744736","190319.057031","191086.131354","191836.607148","192603.797152","193370.974837","194138.25378","194905.488855","198744.401204","Mapping"
"Blocked","Male","ball","6","M_jaw.wav","None","732.389038155","409","188785.201642","195673.139178","196440.373952","197207.071187","197974.37597","198741.574988","199508.84642","200276.012987","189551.744736","190319.057031","191086.131354","191836.607148","192603.797152","193370.974837","194138.25378","194905.488855","199511.555151","Mapping"
"Blocked","Male","tile","14","M_priest.wav","None","731.18325448","409","203412.439313","195673.139178","196440.373952","197207.071187","197974.37597","198741.574988","199508.84642","200276.012987","189551.744736","190319.057031","191086.131354","191836.607148","192603.797152","193370.974837","194138.25378","194905.488855","200279.032705","Mapping"
"Blocked","Male","tile","14","M_tile.wav","None","727.883800073","409","203412.439313","195673.139178","196440.373952","197207.071187","197974.37597","198741.574988","199508.84642","200276.012987","204179.628416","190319.057031","191086.131354","191836.607148","192603.797152","193370.974837","194138.25378","194905.488855","203415.834917","Mapping"
"Blocked","Male","tile","14","M_reek.wav","space","367.074744165","409","203412.439313","195673.139178","196440.373952","197207.071187","197974.37597","198741.574988","199508.84642","200276.012987","204179.628416","204947.031753","191086.131354","191836.607148","192603.797152","193370.974837","194138.25378","194905.488855","204182.999382","Mapping"
"Blocked","Male","tile","14","M_cad.wav","None","725.759180993","409","203412.439313","195673.139178","196440.373952","197207.071187","197974.37597","198741.574988","199508.84642","200276.012987","204179.628416","204947.031753","205714.261119","191836.607148","192603.797152","193370.974837","194138.25378","194905.488855","204950.386494","Mapping"
"Blocked","Male","tile","14","M_tile.wav","None","725.159143614","409","203412.439313","195673.139178","196440.373952","197207.071187","197974.37597","198741.574988","199508.84642","200276.012987","204179.628416","204947.031753","205714.261119","206463.857739","192603.797152","193370.974837","194138.25378","194905.488855","205717.796141","Mapping"
"Blocked","Male","tile","14","M_depth.wav","space","504.351097284","409","203412.439313","195673.139178","196440.373952","197207.071187","197974.37597","198741.574988","199508.84642","200276.012987","204179.628416","204947.031753","205714.261119","206463.857739","207231.126466","193370.974837","194138.25378","194905.488855","206466.715202","Mapping"
"Blocked","Male","tile","14","M_lash.wav","None","740.758012167","409","203412.439313","195673.139178","196440.373952","197207.071187","197974.37597","198741.574988","199508.84642","200276.012987","204179.628416","204947.031753","205714.261119","206463.857739","207231.126466","207998.688752","194138.25378","194905.488855","207234.046427","Mapping"
"Blocked","Male","tile","14","M_tile.wav","None","739.741824678","409","203412.439313","195673.139178","196440.373952","197207.071187","197974.37597","198741.574988","199508.84642","200276.012987","204179.628416","204947.031753","205714.261119","206463.857739","207231.126466","207998.688752","208765.48454","194905.488855","208001.936826","Mapping"
"Blocked","Male","tile","14","M_jolt.wav","space","418.88438118","409","203412.439313","195673.139178","196440.373952","197207.071187","197974.37597","198741.574988","199508.84642","200276.012987","204179.628416","204947.031753","205714.261119","206463.857739","207231.126466","207998.688752","208765.48454","209532.773399","208768.24976","Mapping"
"Blocked","Male","tile","14","M_reek.wav","None","738.701900108","409","203412.439313","210300.046332","196440.373952","197207.071187","197974.37597","198741.574988","199508.84642","200276.012987","204179.628416","204947.031753","205714.261119","206463.857739","207231.126466","207998.688752","208765.48454","209532.773399","209535.484534","Mapping"
"Blocked","Male","tile","14","M_priest.wav","None","738.183289935","409","203412.439313","210300.046332","211067.226421","197207.071187","197974.37597","198741.574988","199508.84642","200276.012987","204179.628416","204947.031753","205714.261119","206463.857739","207231.126466","207998.688752","208765.48454","209532.773399","210302.704285","Mapping"
"Blocked","Male","tile","14","M_knife.wav","None","736.927327872","409","203412.439313","210300.046332","211067.226421","211834.42604","197974.37597","198741.574988","199508.84642","200276.012987","204179.628416","204947.031753","205714.261119","206463.857739","207231.126466","207998.688752","208765.48454","209532.773399","211070.282195","Mapping"
"Blocked","Male","tile","14","M_greet.wav","None","736.047553488","409","203412.439313","210300.046332","211067.226421","211834.42604","212601.635275","198741.574988","199508.84642","200276.012987","204179.628416","204947.031753","205714.261119","206463.857739","207231.126466","207998.688752","208765.48454","209532.773399","211837.318659","Mapping"
"Blocked","Male","tile","14","M_tile.wav","None","735.228473922","409","203412.439313","210300.046332","211067.226421","211834.42604","212601.635275","213368.830387","199508.84642","200276.012987","204179.628416","204947.031753","205714.261119","206463.857739","207231.126466","207998.688752","208765.48454","209532.773399","212605.037189","Mapping"
"Blocked","Male","tile","14","M_romp.wav","space","394.163261848","409","203412.439313","210300.046332","211067.226421","211834.42604","212601.635275","213368.830387","214136.101818","200276.012987","204179.628416","204947.031753","205714.261119","206463.857739","207231.126466","207998.688752","208765.48454","209532.773399","213371.898179","Mapping"
"Blocked","Male","tile","14","M_reek.wav","None","733.721920384","409","203412.439313","210300.046332","211067.226421","211834.42604","212601.635275","213368.830387","214136.101818","214903.301137","204179.628416","204947.031753","205714.261119","206463.857739","207231.126466","207998.688752","208765.48454","209532.773399","214139.18163","Mapping"
"Blocked","Male","cave","11","M_dime.wav","None","733.801845242","409","218039.826617","210300.046332","211067.226421","211834.42604","212601.635275","213368.830387","214136.101818","214903.301137","204179.628416","204947.031753","205714.261119","206463.857739","207231.126466","207998.688752","208765.48454","209532.773399","214905.874958","Mapping"
"Blocked","Male","cave","11","M_reek.wav","None","727.750391662","409","218039.826617","210300.046332","211067.226421","211834.42604","212601.635275","213368.830387","214136.101818","214903.301137","218806.444828","204947.031753","205714.261119","206463.857739","207231.126466","207998.688752","208765.48454","209532.773399","218043.786804","Mapping"
"Blocked","Male","cave","11","M_depth.wav","None","728.534316309","409","218039.826617","210300.046332","211067.226421","211834.42604","212601.635275","213368.830387","214136.101818","214903.301137","218806.444828","219573.464466","205714.261119","206463.857739","207231.126466","207998.688752","208765.48454","209532.773399","218809.925466","Mapping"
"Blocked","Male","cave","11","M_cave.wav","None","728.352832795","409","218039.826617","210300.046332","211067.226421","211834.42604","212601.635275","213368.830387","214136.101818","214903.301137","218806.444828","219573.464466","220340.894245","206463.857739","207231.126466","207998.688752","208765.48454","209532.773399","219576.98777","Mapping"
"Blocked","Male","cave","11","M_greet.wav","space","356.609695666","409","218039.826617","210300.046332","211067.226421","211834.42604","212601.635275","213368.830387","214136.101818","214903.301137","218806.444828","219573.464466","220340.894245","221108.587535","207231.126466","207998.688752","208765.48454","209532.773399","220344.500178","Mapping"
"Blocked","Male","cave","11","M_cave.wav","None","725.051575571","409","218039.826617","210300.046332","211067.226421","211834.42604","212601.635275","213368.830387","214136.101818","214903.301137","218806.444828","219573.464466","220340.894245","221108.587535","221875.811793","207998.688752","208765.48454","209532.773399","221112.54622","Mapping"
"Blocked","Male","cave","11","M_park.wav","space","442.2302521","409","218039.826617","210300.046332","211067.226421","211834.42604","212601.635275","213368.830387","214136.101818","214903.301137","218806.444828","219573.464466","220340.894245","221108.587535","221875.811793","222625.834479","208765.48454","209532.773399","221879.875341","Mapping"
"Blocked","Male","cave","11","M_depth.wav","None","741.073505029","409","218039.826617","210300.046332","211067.226421","211834.42604","212601.635275","213368.830387","214136.101818","214903.301137","218806.444828","219573.464466","220340.894245","221108.587535","221875.811793","222625.834479","223393.230905","209532.773399","222629.402553","Mapping"
"Blocked","Male","cave","11","M_bluff.wav","None","741.232453339","409","218039.826617","210300.046332","211067.226421","211834.42604","212601.635275","213368.830387","214136.101818","214903.301137","218806.444828","219573.464466","220340.894245","221108.587535","221875.811793","222625.834479","223393.230905","224160.001755","223396.170998","Mapping"
"Blocked","Male","cave","11","M_bluff.wav","None","741.021223355","409","218039.826617","224927.224811","211067.226421","211834.42604","212601.635275","213368.830387","214136.101818","214903.301137","218806.444828","219573.464466","220340.894245","221108.587535","221875.811793","222625.834479","223393.230905","224160.001755","224162.744439","Mapping"
"Blocked","Male","cave","11","M_cave.wav","None","739.685636902","409","218039.826617","224927.224811","225694.447566","211834.42604","212601.635275","213368.830387","214136.101818","214903.301137","218806.444828","219573.464466","220340.894245","221108.587535","221875.811793","222625.834479","223393.230905","224160.001755","224930.409486","Mapping"
"Blocked","Male","cave","11","M_knife.wav","space","414.733096043","409","218039.826617","224927.224811","225694.447566","226461.701871","212601.635275","213368.830387","214136.101818","214903.301137","218806.444828","219573.464466","220340.894245","221108.587535","221875.811793","222625.834479","223393.230905","224160.001755","225697.346495","Mapping"
"Blocked","Male","cave","11","M_cave.wav","None","738.124097465","409","218039.826617","224927.224811","225694.447566","226461.701871","227228.95287","213368.830387","214136.101818","214903.301137","218806.444828","219573.464466","220340.894245","221108.587535","221875.811793","222625.834479","223393.230905","224160.001755","226464.725494","Mapping"
"Blocked","Male","cave","11","M_park.wav","space","384.07410056","409","218039.826617","224927.224811","225694.447566","226461.701871","227228.95287","227996.178029","214136.101818","214903.301137","218806.444828","219573.464466","220340.894245","221108.587535","221875.811793","222625.834479","223393.230905","224160.001755","227231.992118","Mapping"
"Blocked","Male","cave","11","M_jolt.wav","None","736.366051045","409","218039.826617","224927.224811","225694.447566","226461.701871","227228.95287","227996.178029","228763.35301","214903.301137","218806.444828","219573.464466","220340.894245","221108.587535","221875.811793","222625.834479","223393.230905","224160.001755","227999.183024","Mapping"
"Blocked","Male","cave","11","M_jolt.wav","None","736.07639855","409","218039.826617","224927.224811","225694.447566","226461.701871","227228.95287","227996.178029","228763.35301","229530.604611","218806.444828","219573.464466","220340.894245","221108.587535","221875.811793","222625.834479","223393.230905","224160.001755","228766.392258","Mapping"
"Blocked","Male","done","21","M_lash.wav","None","735.908736629","409","232666.965133","224927.224811","225694.447566","226461.701871","227228.95287","227996.178029","228763.35301","229530.604611","218806.444828","219573.464466","220340.894245","221108.587535","221875.811793","222625.834479","223393.230905","224160.001755","229533.428121","Mapping"
"Blocked","Male","done","21","M_priest.wav","None","727.208645346","409","232666.965133","224927.224811","225694.447566","226461.701871","227228.95287","227996.178029","228763.35301","229530.604611","233433.854067","219573.464466","220340.894245","221108.587535","221875.811793","222625.834479","223393.230905","224160.001755","232670.673526","Mapping"
"Blocked","Male","done","21","M_done.wav","None","727.370898818","409","232666.965133","224927.224811","225694.447566","226461.701871","227228.95287","227996.178029","228763.35301","229530.604611","233433.854067","234200.820822","220340.894245","221108.587535","221875.811793","222625.834479","223393.230905","224160.001755","233437.331399","Mapping"
"Blocked","Male","done","21","M_jaw.wav","space","503.148919242","409","232666.965133","224927.224811","225694.447566","226461.701871","227228.95287","227996.178029","228763.35301","229530.604611","233433.854067","234200.820822","234968.031559","221108.587535","221875.811793","222625.834479","223393.230905","224160.001755","234203.923169","Mapping"
"Blocked","Male","done","21","M_bluff.wav","None","726.443650271","409","232666.965133","224927.224811","225694.447566","226461.701871","227228.95287","227996.178029","228763.35301","229530.604611","233433.854067","234200.820822","234968.031559","235718.40339","221875.811793","222625.834479","223393.230905","224160.001755","234971.088234","Mapping"
"Blocked","Male","done","21","M_done.wav","None","742.577955282","409","232666.965133","224927.224811","225694.447566","226461.701871","227228.95287","227996.178029","228763.35301","229530.604611","233433.854067","234200.820822","234968.031559","235718.40339","236485.579272","222625.834479","223393.230905","224160.001755","235721.615708","Mapping"
"Blocked","Male","done","21","M_greet.wav","space","563.899924462","409","232666.965133","224927.224811","225694.447566","226461.701871","227228.95287","227996.178029","228763.35301","229530.604611","233433.854067","234200.820822","234968.031559","235718.40339","236485.579272","237252.858516","223393.230905","224160.001755","236488.233018","Mapping"
"Blocked","Male","done","21","M_done.wav","None","741.559664508","409","232666.965133","224927.224811","225694.447566","226461.701871","227228.95287","227996.178029","228763.35301","229530.604611","233433.854067","234200.820822","234968.031559","235718.40339","236485.579272","237252.858516","238020.039806","224160.001755","237255.457876","Mapping"
"Blocked","Male","done","21","M_cling.wav","space","404.14124946","409","232666.965133","224927.224811","225694.447566","226461.701871","227228.95287","227996.178029","228763.35301","229530.604611","233433.854067","234200.820822","234968.031559","235718.40339","236485.579272","237252.858516","238020.039806","238787.643557","238022.882848","Mapping"
"Blocked","Male","done","21","M_cling.wav","None","737.948623339","409","232666.965133","239554.498237","225694.447566","226461.701871","227228.95287","227996.178029","228763.35301","229530.604611","233433.854067","234200.820822","234968.031559","235718.40339","236485.579272","237252.858516","238020.039806","238787.643557","238791.218241","Mapping"
"Blocked","Male","done","21","M_done.wav","None","738.485261676","409","232666.965133","239554.498237","240321.65549","226461.701871","227228.95287","227996.178029","228763.35301","229530.604611","233433.854067","234200.820822","234968.031559","235718.40339","236485.579272","237252.858516","238020.039806","238787.643557","239557.465673","Mapping"
"Blocked","Male","done","21","M_dime.wav","space","396.731073283","409","232666.965133","239554.498237","240321.65549","241088.914302","227228.95287","227996.178029","228763.35301","229530.604611","233433.854067","234200.820822","234968.031559","235718.40339","236485.579272","237252.858516","238020.039806","238787.643557","240324.332072","Mapping"
"Blocked","Male","done","21","M_jaw.wav","None","736.741337317","409","232666.965133","239554.498237","240321.65549","241088.914302","241856.184832","227996.178029","228763.35301","229530.604611","233433.854067","234200.820822","234968.031559","235718.40339","236485.579272","237252.858516","238020.039806","238787.643557","241091.841775","Mapping"
"Blocked","Male","done","21","M_dime.wav","None","736.646088519","409","232666.965133","239554.498237","240321.65549","241088.914302","241856.184832","242623.418404","228763.35301","229530.604611","233433.854067","234200.820822","234968.031559","235718.40339","236485.579272","237252.858516","238020.039806","238787.643557","241858.793808","Mapping"
"Blocked","Male","done","21","M_jolt.wav","None","736.106745958","409","232666.965133","239554.498237","240321.65549","241088.914302","241856.184832","242623.418404","243390.6033","229530.604611","233433.854067","234200.820822","234968.031559","235718.40339","236485.579272","237252.858516","238020.039806","238787.643557","242626.203756","Mapping"
"Blocked","Male","done","21","M_park.wav","None","735.13502794","409","232666.965133","239554.498237","240321.65549","241088.914302","241856.184832","242623.418404","243390.6033","244157.750037","233433.854067","234200.820822","234968.031559","235718.40339","236485.579272","237252.858516","238020.039806","238787.643557","243393.73299","Mapping"
"Blocked","Male","ball","3","M_romp.wav","None","735.309901128","409","247294.139705","239554.498237","240321.65549","241088.914302","241856.184832","242623.418404","243390.6033","244157.750037","233433.854067","234200.820822","234968.031559","235718.40339","236485.579272","237252.858516","238020.039806","238787.643557","244160.409492","Mapping"
"Blocked","Male","ball","3","M_ball.wav","None","727.279556123","409","247294.139705","239554.498237","240321.65549","241088.914302","241856.184832","242623.418404","243390.6033","244157.750037","248060.691212","234200.820822","234968.031559","235718.40339","236485.579272","237252.858516","238020.039806","238787.643557","247298.19484","Mapping"
"Blocked","Male","ball","3","M_cling.wav","space","400.463203617","409","247294.139705","239554.498237","240321.65549","241088.914302","241856.184832","242623.418404","243390.6033","244157.750037","248060.691212","248828.127901","234968.031559","235718.40339","236485.579272","237252.858516","238020.039806","238787.643557","248063.639117","Mapping"
"Blocked","Male","ball","3","M_lash.wav","None","727.183405917","409","247294.139705","239554.498237","240321.65549","241088.914302","241856.184832","242623.418404","243390.6033","244157.750037","248060.691212","248828.127901","249595.457624","235718.40339","236485.579272","237252.858516","238020.039806","238787.643557","248831.028633","Mapping"
"Blocked","Male","ball","3","M_ball.wav","None","726.099913285","409","247294.139705","239554.498237","240321.65549","241088.914302","241856.184832","242623.418404","243390.6033","244157.750037","248060.691212","248828.127901","249595.457624","250362.459835","236485.579272","237252.858516","238020.039806","238787.643557","249598.903106","Mapping"
"Blocked","Male","ball","3","M_gnash.wav","space","398.69343889","409","247294.139705","239554.498237","240321.65549","241088.914302","241856.184832","242623.418404","243390.6033","244157.750037","248060.691212","248828.127901","249595.457624","250362.459835","251112.944642","237252.858516","238020.039806","238787.643557","250365.363571","Mapping"
"Blocked","Male","ball","3","M_ball.wav","None","741.897692575","409","247294.139705","239554.498237","240321.65549","241088.914302","241856.184832","242623.418404","243390.6033","244157.750037","248060.691212","248828.127901","249595.457624","250362.459835","251112.944642","251880.046008","238020.039806","238787.643557","251115.668097","Mapping"
"Blocked","Male","ball","3","M_jaw.wav","space","391.253516243","409","247294.139705","239554.498237","240321.65549","241088.914302","241856.184832","242623.418404","243390.6033","244157.750037","248060.691212","248828.127901","249595.457624","250362.459835","251112.944642","251880.046008","252647.723974","238787.643557","251882.796204","Mapping"
"Blocked","Male","ball","3","M_greet.wav","None","739.27549618","409","247294.139705","239554.498237","240321.65549","241088.914302","241856.184832","242623.418404","243390.6033","244157.750037","248060.691212","248828.127901","249595.457624","250362.459835","251112.944642","251880.046008","252647.723974","253415.003518","252651.176067","Mapping"
"Blocked","Male","ball","3","M_ball.wav","None","739.407702713","409","247294.139705","254181.777974","240321.65549","241088.914302","241856.184832","242623.418404","243390.6033","244157.750037","248060.691212","248828.127901","249595.457624","250362.459835","251112.944642","251880.046008","252647.723974","253415.003518","253418.149734","Mapping"
"Blocked","Male","ball","3","M_gnash.wav","space","453.394492877","409","247294.139705","254181.777974","254948.987809","241088.914302","241856.184832","242623.418404","243390.6033","244157.750037","248060.691212","248828.127901","249595.457624","250362.459835","251112.944642","251880.046008","252647.723974","253415.003518","254184.665484","Mapping"
"Blocked","Male","ball","3","M_lash.wav","None","738.310388489","409","247294.139705","254181.777974","254948.987809","255716.257738","241856.184832","242623.418404","243390.6033","244157.750037","248060.691212","248828.127901","249595.457624","250362.459835","251112.944642","251880.046008","252647.723974","253415.003518","254952.215151","Mapping"
"Blocked","Male","ball","3","M_dime.wav","None","738.266820427","409","247294.139705","254181.777974","254948.987809","255716.257738","256483.469075","242623.418404","243390.6033","244157.750037","248060.691212","248828.127901","249595.457624","250362.459835","251112.944642","251880.046008","252647.723974","253415.003518","255719.099577","Mapping"
"Blocked","Male","ball","3","M_jolt.wav","None","737.942914421","409","247294.139705","254181.777974","254948.987809","255716.257738","256483.469075","257250.673502","243390.6033","244157.750037","248060.691212","248828.127901","249595.457624","250362.459835","251112.944642","251880.046008","252647.723974","253415.003518","256486.055516","Mapping"
"Blocked","Male","ball","3","M_bluff.wav","None","737.469074188","409","247294.139705","254181.777974","254948.987809","255716.257738","256483.469075","257250.673502","258017.873422","244157.750037","248060.691212","248828.127901","249595.457624","250362.459835","251112.944642","251880.046008","252647.723974","253415.003518","257253.247924","Mapping"
"Blocked","Male","ball","3","M_jaw.wav","None","736.973900628","409","247294.139705","254181.777974","254948.987809","255716.257738","256483.469075","257250.673502","258017.873422","258785.107295","248060.691212","248828.127901","249595.457624","250362.459835","251112.944642","251880.046008","252647.723974","253415.003518","258020.599581","Mapping"
"Blocked","Male","done","22","M_romp.wav","None","736.49224819","409","261921.5847","254181.777974","254948.987809","255716.257738","256483.469075","257250.673502","258017.873422","258785.107295","248060.691212","248828.127901","249595.457624","250362.459835","251112.944642","251880.046008","252647.723974","253415.003518","258788.01043","Mapping"
"Blocked","Male","done","22","M_jaw.wav","None","728.119067608","409","261921.5847","254181.777974","254948.987809","255716.257738","256483.469075","257250.673502","258017.873422","258785.107295","262688.749765","248828.127901","249595.457624","250362.459835","251112.944642","251880.046008","252647.723974","253415.003518","261925.116116","Mapping"
"Blocked","Male","done","22","M_gnash.wav","None","727.400344819","409","261921.5847","254181.777974","254948.987809","255716.257738","256483.469075","257250.673502","258017.873422","258785.107295","262688.749765","263455.558473","249595.457624","250362.459835","251112.944642","251880.046008","252647.723974","253415.003518","262692.569332","Mapping"
"Blocked","Male","done","22","M_reek.wav","None","728.356438428","409","261921.5847","254181.777974","254948.987809","255716.257738","256483.469075","257250.673502","258017.873422","258785.107295","262688.749765","263455.558473","264223.188665","250362.459835","251112.944642","251880.046008","252647.723974","253415.003518","263458.649703","Mapping"
"Blocked","Male","done","22","M_done.wav","None","727.406654676","409","261921.5847","254181.777974","254948.987809","255716.257738","256483.469075","257250.673502","258017.873422","258785.107295","262688.749765","263455.558473","264223.188665","264989.731458","251112.944642","251880.046008","252647.723974","253415.003518","264226.531988","Mapping"
"Blocked","Male","done","22","M_knife.wav","space","590.560874198","409","261921.5847","254181.777974","254948.987809","255716.257738","256483.469075","257250.673502","258017.873422","258785.107295","262688.749765","263455.558473","264223.188665","264989.731458","265757.186477","251880.046008","252647.723974","253415.003518","264992.52973","Mapping"
"Blocked","Male","done","22","M_done.wav","None","726.195162083","409","261921.5847","254181.777974","254948.987809","255716.257738","256483.469075","257250.673502","258017.873422","258785.107295","262688.749765","263455.558473","264223.188665","264989.731458","265757.186477","266524.221138","252647.723974","253415.003518","265760.583584","Mapping"
"Blocked","Male","done","22","M_jaw.wav","space","671.638934343","409","261921.5847","254181.777974","254948.987809","255716.257738","256483.469075","257250.673502","258017.873422","258785.107295","262688.749765","263455.558473","264223.188665","264989.731458","265757.186477","266524.221138","267274.614603","253415.003518","266527.42955","Mapping"
"Blocked","Male","done","22","M_done.wav","None","741.354143443","409","261921.5847","254181.777974","254948.987809","255716.257738","256483.469075","257250.673502","258017.873422","258785.107295","262688.749765","263455.558473","264223.188665","264989.731458","265757.186477","266524.221138","267274.614603","268041.843368","267277.428799","Mapping"
"Blocked","Male","done","22","M_jaw.wav","space","450.494061824","409","261921.5847","268809.005729","254948.987809","255716.257738","256483.469075","257250.673502","258017.873422","258785.107295","262688.749765","263455.558473","264223.188665","264989.731458","265757.186477","266524.221138","267274.614603","268041.843368","268044.598973","Mapping"
"Blocked","Male","done","22","M_greet.wav","None","739.249355343","409","261921.5847","268809.005729","269576.223977","255716.257738","256483.469075","257250.673502","258017.873422","258785.107295","262688.749765","263455.558473","264223.188665","264989.731458","265757.186477","266524.221138","267274.614603","268041.843368","268812.196413","Mapping"
"Blocked","Male","done","22","M_knife.wav","None","738.718425925","409","261921.5847","268809.005729","269576.223977","270343.431709","256483.469075","257250.673502","258017.873422","258785.107295","262688.749765","263455.558473","264223.188665","264989.731458","265757.186477","266524.221138","267274.614603","268041.843368","269579.156558","Mapping"
"Blocked","Male","done","22","M_jolt.wav","None","738.611158352","409","261921.5847","268809.005729","269576.223977","270343.431709","271110.667986","257250.673502","258017.873422","258785.107295","262688.749765","263455.558473","264223.188665","264989.731458","265757.186477","266524.221138","267274.614603","268041.843368","270346.379314","Mapping"
"Blocked","Male","done","22","M_done.wav","None","738.686576169","409","261921.5847","268809.005729","269576.223977","270343.431709","271110.667986","271877.885332","258017.873422","258785.107295","262688.749765","263455.558473","264223.188665","264989.731458","265757.186477","266524.221138","267274.614603","268041.843368","271113.593055","Mapping"
"Blocked","Male","done","22","M_depth.wav","space","582.531731071","409","261921.5847","268809.005729","269576.223977","270343.431709","271110.667986","271877.885332","272645.185909","258785.107295","262688.749765","263455.558473","264223.188665","264989.731458","265757.186477","266524.221138","267274.614603","268041.843368","271880.579341","Mapping"
"Blocked","Male","done","22","M_reek.wav","None","736.972097811","409","261921.5847","268809.005729","269576.223977","270343.431709","271110.667986","271877.885332","272645.185909","273412.805885","262688.749765","263455.558473","264223.188665","264989.731458","265757.186477","266524.221138","267274.614603","268041.843368","272648.287655","Mapping"
"Blocked","Male","done","23","M_knife.wav","None","736.247365634","409","276548.594915","268809.005729","269576.223977","270343.431709","271110.667986","271877.885332","272645.185909","273412.805885","262688.749765","263455.558473","264223.188665","264989.731458","265757.186477","266524.221138","267274.614603","268041.843368","273416.291631","Mapping"
"Blocked","Male","done","23","M_done.wav","None","728.978109603","409","276548.594915","268809.005729","269576.223977","270343.431709","271110.667986","271877.885332","272645.185909","273412.805885","277315.427962","263455.558473","264223.188665","264989.731458","265757.186477","266524.221138","267274.614603","268041.843368","276551.788604","Mapping"
"Blocked","Male","done","23","M_cling.wav","space","409.026881795","409","276548.594915","268809.005729","269576.223977","270343.431709","271110.667986","271877.885332","272645.185909","273412.805885","277315.427962","278082.404032","264223.188665","264989.731458","265757.186477","266524.221138","267274.614603","268041.843368","277318.038139","Mapping"
"Blocked","Male","done","23","M_jolt.wav","None","727.987462013","409","276548.594915","268809.005729","269576.223977","270343.431709","271110.667986","271877.885332","272645.185909","273412.805885","277315.427962","278082.404032","278849.74397","264989.731458","265757.186477","266524.221138","267274.614603","268041.843368","278085.690566","Mapping"
"Blocked","Male","done","23","M_bluff.wav","None","727.807781316","409","276548.594915","268809.005729","269576.223977","270343.431709","271110.667986","271877.885332","272645.185909","273412.805885","277315.427962","278082.404032","278849.74397","279617.003984","265757.186477","266524.221138","267274.614603","268041.843368","278852.796138","Mapping"
"Blocked","Male","done","23","M_jolt.wav","None","728.008194401","409","276548.594915","268809.005729","269576.223977","270343.431709","271110.667986","271877.885332","272645.185909","273412.805885","277315.427962","278082.404032","278849.74397","279617.003984","280384.158532","266524.221138","267274.614603","268041.843368","279619.84372","Mapping"
"Blocked","Male","done","23","M_done.wav","None","727.643424558","409","276548.594915","268809.005729","269576.223977","270343.431709","271110.667986","271877.885332","272645.185909","273412.805885","277315.427962","278082.404032","278849.74397","279617.003984","280384.158532","281152.394771","267274.614603","268041.843368","280387.141292","Mapping"
"Blocked","Male","done","23","M_jaw.wav","space","432.254668242","409","276548.594915","268809.005729","269576.223977","270343.431709","271110.667986","271877.885332","272645.185909","273412.805885","277315.427962","278082.404032","278849.74397","279617.003984","280384.158532","281152.394771","281902.185494","268041.843368","281155.803596","Mapping"
"Blocked","Male","done","23","M_gnash.wav","None","741.744753654","409","276548.594915","268809.005729","269576.223977","270343.431709","271110.667986","271877.885332","272645.185909","273412.805885","277315.427962","278082.404032","278849.74397","279617.003984","280384.158532","281152.394771","281902.185494","282669.447611","281905.264104","Mapping"
"Blocked","Male","done","23","M_park.wav","None","741.676847571","409","276548.594915","283436.716939","269576.223977","270343.431709","271110.667986","271877.885332","272645.185909","273412.805885","277315.427962","278082.404032","278849.74397","279617.003984","280384.158532","281152.394771","281902.185494","282669.447611","282672.443591","Mapping"
"Blocked","Male","done","23","M_done.wav","None","741.50407767","409","276548.594915","283436.716939","284203.656352","270343.431709","271110.667986","271877.885332","272645.185909","273412.805885","277315.427962","278082.404032","278849.74397","279617.003984","280384.158532","281152.394771","281902.185494","282669.447611","283439.679267","Mapping"
"Blocked","Male","done","23","M_bluff.wav","space","365.47264136","409","276548.594915","283436.716939","284203.656352","284970.758619","271110.667986","271877.885332","272645.185909","273412.805885","277315.427962","278082.404032","278849.74397","279617.003984","280384.158532","281152.394771","281902.185494","282669.447611","284206.602755","Mapping"
"Blocked","Male","done","23","M_done.wav","None","740.322632016","409","276548.594915","283436.716939","284203.656352","284970.758619","285737.906257","271877.885332","272645.185909","273412.805885","277315.427962","278082.404032","278849.74397","279617.003984","280384.158532","281152.394771","281902.185494","282669.447611","284973.630205","Mapping"
"Blocked","Male","done","23","M_priest.wav","space","429.456096314","409","276548.594915","283436.716939","284203.656352","284970.758619","285737.906257","286505.176186","272645.185909","273412.805885","277315.427962","278082.404032","278849.74397","279617.003984","280384.158532","281152.394771","281902.185494","282669.447611","285740.627008","Mapping"
"Blocked","Male","done","23","M_jolt.wav","None","739.028810808","409","276548.594915","283436.716939","284203.656352","284970.758619","285737.906257","286505.176186","287272.463242","273412.805885","277315.427962","278082.404032","278849.74397","279617.003984","280384.158532","281152.394771","281902.185494","282669.447611","286508.260805","Mapping"
"Blocked","Male","done","23","M_romp.wav","None","739.327477385","409","276548.594915","283436.716939","284203.656352","284970.758619","285737.906257","286505.176186","287272.463242","288039.639124","277315.427962","278082.404032","278849.74397","279617.003984","280384.158532","281152.394771","281902.185494","282669.447611","287275.007016","Mapping"
"Blocked","Male","done","20","M_jolt.wav","None","739.802519496","409","291176.235215","283436.716939","284203.656352","284970.758619","285737.906257","286505.176186","287272.463242","288039.639124","277315.427962","278082.404032","278849.74397","279617.003984","280384.158532","281152.394771","281902.185494","282669.447611","288042.062109","Mapping"
"Blocked","Male","done","20","M_lash.wav","None","728.656607352","409","291176.235215","283436.716939","284203.656352","284970.758619","285737.906257","286505.176186","287272.463242","288039.639124","291942.799942","278082.404032","278849.74397","279617.003984","280384.158532","281152.394771","281902.185494","282669.447611","291179.608585","Mapping"
"Blocked","Male","done","20","M_dime.wav","None","729.515649347","409","291176.235215","283436.716939","284203.656352","284970.758619","285737.906257","286505.176186","287272.463242","288039.639124","291942.799942","292710.086097","278849.74397","279617.003984","280384.158532","281152.394771","281902.185494","282669.447611","291945.843096","Mapping"
"Blocked","Male","done","20","M_done.wav","None","729.566729144","409","291176.235215","283436.716939","284203.656352","284970.758619","285737.906257","286505.176186","287272.463242","288039.639124","291942.799942","292710.086097","293477.155612","279617.003984","280384.158532","281152.394771","281902.185494","282669.447611","292713.07126","Mapping"
"Blocked","Male","done","20","M_reek.wav","space","518.02215421","409","291176.235215","283436.716939","284203.656352","284970.758619","285737.906257","286505.176186","287272.463242","288039.639124","291942.799942","292710.086097","293477.155612","294244.30956","280384.158532","281152.394771","281902.185494","282669.447611","293480.041921","Mapping"
"Blocked","Male","done","20","M_gnash.wav","None","728.300551121","409","291176.235215","283436.716939","284203.656352","284970.758619","285737.906257","286505.176186","287272.463242","288039.639124","291942.799942","292710.086097","293477.155612","294244.30956","295011.576485","281152.394771","281902.185494","282669.447611","294247.356921","Mapping"
"Blocked","Male","done","20","M_park.wav","None","728.569771698","409","291176.235215","283436.716939","284203.656352","284970.758619","285737.906257","286505.176186","287272.463242","288039.639124","291942.799942","292710.086097","293477.155612","294244.30956","295011.576485","295778.796536","281902.185494","282669.447611","295014.242249","Mapping"
"Blocked","Male","done","20","M_done.wav","None","728.260588692","409","291176.235215","283436.716939","284203.656352","284970.758619","285737.906257","286505.176186","287272.463242","288039.639124","291942.799942","292710.086097","293477.155612","294244.30956","295011.576485","295778.796536","296546.116643","282669.447611","295781.617343","Mapping"
"Blocked","Male","done","20","M_bluff.wav","space","438.063943493","409","291176.235215","283436.716939","284203.656352","284970.758619","285737.906257","286505.176186","287272.463242","288039.639124","291942.799942","292710.086097","293477.155612","294244.30956","295011.576485","295778.796536","296546.116643","297313.207192","296549.021882","Mapping"
"Blocked","Male","done","20","M_done.wav","None","726.933114912","409","291176.235215","298080.542924","284203.656352","284970.758619","285737.906257","286505.176186","287272.463242","288039.639124","291942.799942","292710.086097","293477.155612","294244.30956","295011.576485","295778.796536","296546.116643","297313.207192","297316.262065","Mapping"
"Blocked","Male","done","20","M_lash.wav","space","525.419710672","409","291176.235215","298080.542924","298830.697215","284970.758619","285737.906257","286505.176186","287272.463242","288039.639124","291942.799942","292710.086097","293477.155612","294244.30956","295011.576485","295778.796536","296546.116643","297313.207192","298083.623637","Mapping"
"Blocked","Male","done","20","M_priest.wav","None","737.814013051","409","291176.235215","298080.542924","298830.697215","299597.992083","285737.906257","286505.176186","287272.463242","288039.639124","291942.799942","292710.086097","293477.155612","294244.30956","295011.576485","295778.796536","296546.116643","297313.207192","298838.668067","Mapping"
"Blocked","Male","done","20","M_done.wav","None","742.758537387","409","291176.235215","298080.542924","298830.697215","299597.992083","300365.246087","286505.176186","287272.463242","288039.639124","291942.799942","292710.086097","293477.155612","294244.30956","295011.576485","295778.796536","296546.116643","297313.207192","299600.59535","Mapping"
"Blocked","Male","done","20","M_greet.wav","space","477.136081987","409","291176.235215","298080.542924","298830.697215","299597.992083","300365.246087","301132.506402","287272.463242","288039.639124","291942.799942","292710.086097","293477.155612","294244.30956","295011.576485","295778.796536","296546.116643","297313.207192","300367.966237","Mapping"
"Blocked","Male","done","20","M_romp.wav","None","741.401317138","409","291176.235215","298080.542924","298830.697215","299597.992083","300365.246087","301132.506402","301899.566903","288039.639124","291942.799942","292710.086097","293477.155612","294244.30956","295011.576485","295778.796536","296546.116643","297313.207192","301135.163452","Mapping"
"Blocked","Male","done","20","M_knife.wav","None","741.894988351","409","291176.235215","298080.542924","298830.697215","299597.992083","300365.246087","301132.506402","301899.566903","302666.878297","291942.799942","292710.086097","293477.155612","294244.30956","295011.576485","295778.796536","296546.116643","297313.207192","301902.23417","Mapping"
"Blocked","Male","cave","10","M_knife.wav","None","741.761279471","409","305803.336472","298080.542924","298830.697215","299597.992083","300365.246087","301132.506402","301899.566903","302666.878297","291942.799942","292710.086097","293477.155612","294244.30956","295011.576485","295778.796536","296546.116643","297313.207192","302669.683179","Mapping"
"Blocked","Male","cave","10","M_priest.wav","None","727.450823676","409","305803.336472","298080.542924","298830.697215","299597.992083","300365.246087","301132.506402","301899.566903","302666.878297","306570.529481","292710.086097","293477.155612","294244.30956","295011.576485","295778.796536","296546.116643","297313.207192","305807.325804","Mapping"
"Blocked","Male","cave","10","M_jaw.wav","None","727.505509106","409","305803.336472","298080.542924","298830.697215","299597.992083","300365.246087","301132.506402","301899.566903","302666.878297","306570.529481","307337.852593","293477.155612","294244.30956","295011.576485","295778.796536","296546.116643","297313.207192","306574.199715","Mapping"
"Blocked","Male","cave","10","M_cling.wav","None","728.229039406","409","305803.336472","298080.542924","298830.697215","299597.992083","300365.246087","301132.506402","301899.566903","302666.878297","306570.529481","307337.852593","308104.434147","294244.30956","295011.576485","295778.796536","296546.116643","297313.207192","307341.228367","Mapping"
"Blocked","Male","cave","10","M_jaw.wav","None","728.831781008","409","305803.336472","298080.542924","298830.697215","299597.992083","300365.246087","301132.506402","301899.566903","302666.878297","306570.529481","307337.852593","308104.434147","308871.728114","295011.576485","295778.796536","296546.116643","297313.207192","308107.665094","Mapping"
"Blocked","Male","cave","10","M_gnash.wav","None","728.7170017","409","305803.336472","298080.542924","298830.697215","299597.992083","300365.246087","301132.506402","301899.566903","302666.878297","306570.529481","307337.852593","308104.434147","308871.728114","309638.898587","295778.796536","296546.116643","297313.207192","308874.993315","Mapping"
"Blocked","Male","cave","10","M_cave.wav","None","729.13285134","409","305803.336472","298080.542924","298830.697215","299597.992083","300365.246087","301132.506402","301899.566903","302666.878297","306570.529481","307337.852593","308104.434147","308871.728114","309638.898587","310406.146883","296546.116643","297313.207192","309641.698662","Mapping"
"Blocked","Male","cave","10","M_knife.wav","space","530.820047077","409","305803.336472","298080.542924","298830.697215","299597.992083","300365.246087","301132.506402","301899.566903","302666.878297","306570.529481","307337.852593","308104.434147","308871.728114","309638.898587","310406.146883","311173.207084","297313.207192","310409.234506","Mapping"
"Blocked","Male","cave","10","M_cave.wav","None","727.65213817","409","305803.336472","298080.542924","298830.697215","299597.992083","300365.246087","301132.506402","301899.566903","302666.878297","306570.529481","307337.852593","308104.434147","308871.728114","309638.898587","310406.146883","311173.207084","311940.577971","311176.216285","Mapping"
"Blocked","Male","cave","10","M_park.wav","space","508.377086685","409","305803.336472","312707.638473","298830.697215","299597.992083","300365.246087","301132.506402","301899.566903","302666.878297","306570.529481","307337.852593","308104.434147","308871.728114","309638.898587","310406.146883","311173.207084","311940.577971","311943.654777","Mapping"
"Blocked","Male","cave","10","M_cave.wav","None","726.697546908","409","305803.336472","312707.638473","313474.845904","299597.992083","300365.246087","301132.506402","301899.566903","302666.878297","306570.529481","307337.852593","308104.434147","308871.728114","309638.898587","310406.146883","311173.207084","311940.577971","312710.564444","Mapping"
"Blocked","Male","cave","10","M_jaw.wav","space","392.128182647","409","305803.336472","312707.638473","313474.845904","314225.237566","300365.246087","301132.506402","301899.566903","302666.878297","306570.529481","307337.852593","308104.434147","308871.728114","309638.898587","310406.146883","311173.207084","311940.577971","313477.917903","Mapping"
"Blocked","Male","cave","10","M_jolt.wav","None","742.715870733","409","305803.336472","312707.638473","313474.845904","314225.237566","314992.409242","301132.506402","301899.566903","302666.878297","306570.529481","307337.852593","308104.434147","308871.728114","309638.898587","310406.146883","311173.207084","311940.577971","314227.99257","Mapping"
"Blocked","Male","cave","10","M_romp.wav","None","743.126011455","409","305803.336472","312707.638473","313474.845904","314225.237566","314992.409242","315776.675523","301899.566903","302666.878297","306570.529481","307337.852593","308104.434147","308871.728114","309638.898587","310406.146883","311173.207084","311940.577971","314995.150124","Mapping"
"Blocked","Male","cave","10","M_cave.wav","None","726.224307613","409","305803.336472","312707.638473","313474.845904","314225.237566","314992.409242","315776.675523","316544.502522","302666.878297","306570.529481","307337.852593","308104.434147","308871.728114","309638.898587","310406.146883","311173.207084","311940.577971","315779.711465","Mapping"
"Blocked","Male","cave","10","M_jolt.wav","space","523.87529799","409","305803.336472","312707.638473","313474.845904","314225.237566","314992.409242","315776.675523","316544.502522","317294.137902","306570.529481","307337.852593","308104.434147","308871.728114","309638.898587","310406.146883","311173.207084","311940.577971","316548.200699","Mapping"
"Blocked","Male","done","24","M_park.wav","None","742.266368521","409","320430.837054","312707.638473","313474.845904","314225.237566","314992.409242","315776.675523","316544.502522","317294.137902","306570.529481","307337.852593","308104.434147","308871.728114","309638.898587","310406.146883","311173.207084","311940.577971","317296.802164","Mapping"
"Blocked","Male","done","24","M_cad.wav","None","727.864269562","409","320430.837054","312707.638473","313474.845904","314225.237566","314992.409242","315776.675523","316544.502522","317294.137902","321197.207377","307337.852593","308104.434147","308871.728114","309638.898587","310406.146883","311173.207084","311940.577971","320434.252489","Mapping"
"Blocked","Male","done","24","M_romp.wav","None","729.640945084","409","320430.837054","312707.638473","313474.845904","314225.237566","314992.409242","315776.675523","316544.502522","317294.137902","321197.207377","321964.6014","308104.434147","308871.728114","309638.898587","310406.146883","311173.207084","311940.577971","321200.194644","Mapping"
"Blocked","Male","done","24","M_done.wav","None","729.262954587","409","320430.837054","312707.638473","313474.845904","314225.237566","314992.409242","315776.675523","316544.502522","317294.137902","321197.207377","321964.6014","322731.662203","308871.728114","309638.898587","310406.146883","311173.207084","311940.577971","321967.98739","Mapping"
"Blocked","Male","done","24","M_cad.wav","space","459.97927963","409","320430.837054","312707.638473","313474.845904","314225.237566","314992.409242","315776.675523","316544.502522","317294.137902","321197.207377","321964.6014","322731.662203","323498.924921","309638.898587","310406.146883","311173.207084","311940.577971","322735.056305","Mapping"
"Blocked","Male","done","24","M_done.wav","None","729.33086067","409","320430.837054","312707.638473","313474.845904","314225.237566","314992.409242","315776.675523","316544.502522","317294.137902","321197.207377","321964.6014","322731.662203","323498.924921","324266.260051","310406.146883","311173.207084","311940.577971","323501.733708","Mapping"
"Blocked","Male","done","24","M_jaw.wav","space","448.871827569","409","320430.837054","312707.638473","313474.845904","314225.237566","314992.409242","315776.675523","316544.502522","317294.137902","321197.207377","321964.6014","322731.662203","323498.924921","324266.260051","325033.328666","311173.207084","311940.577971","324269.161684","Mapping"
"Blocked","Male","done","24","M_cad.wav","None","728.401508837","409","320430.837054","312707.638473","313474.845904","314225.237566","314992.409242","315776.675523","316544.502522","317294.137902","321197.207377","321964.6014","322731.662203","323498.924921","324266.260051","325033.328666","325800.647572","311940.577971","325036.317135","Mapping"
"Blocked","Male","done","24","M_park.wav","None","728.243461936","409","320430.837054","312707.638473","313474.845904","314225.237566","314992.409242","315776.675523","316544.502522","317294.137902","321197.207377","321964.6014","322731.662203","323498.924921","324266.260051","325033.328666","325800.647572","326567.615229","325803.720773","Mapping"
"Blocked","Male","done","24","M_greet.wav","None","728.723912496","409","320430.837054","327334.86773","313474.845904","314225.237566","314992.409242","315776.675523","316544.502522","317294.137902","321197.207377","321964.6014","322731.662203","323498.924921","324266.260051","325033.328666","325800.647572","326567.615229","326570.768955","Mapping"
"Blocked","Male","done","24","M_depth.wav","None","729.021978134","409","320430.837054","327334.86773","328102.136157","314225.237566","314992.409242","315776.675523","316544.502522","317294.137902","321197.207377","321964.6014","322731.662203","323498.924921","324266.260051","325033.328666","325800.647572","326567.615229","327337.806622","Mapping"
"Blocked","Male","done","24","M_done.wav","None","728.908100235","409","320430.837054","327334.86773","328102.136157","328869.356809","314992.409242","315776.675523","316544.502522","317294.137902","321197.207377","321964.6014","322731.662203","323498.924921","324266.260051","325033.328666","325800.647572","326567.615229","328105.257433","Mapping"
"Blocked","Male","done","24","M_jolt.wav","space","522.640669253","409","320430.837054","327334.86773","328102.136157","328869.356809","329636.782081","315776.675523","316544.502522","317294.137902","321197.207377","321964.6014","322731.662203","323498.924921","324266.260051","325033.328666","325800.647572","326567.615229","328872.431212","Mapping"
"Blocked","Male","done","24","M_done.wav","None","727.973339951","409","320430.837054","327334.86773","328102.136157","328869.356809","329636.782081","330403.895165","316544.502522","317294.137902","321197.207377","321964.6014","322731.662203","323498.924921","324266.260051","325033.328666","325800.647572","326567.615229","329639.639545","Mapping"
"Blocked","Male","done","24","M_romp.wav","space","437.989727552","409","320430.837054","327334.86773","328102.136157","328869.356809","329636.782081","330403.895165","331171.247122","317294.137902","321197.207377","321964.6014","322731.662203","323498.924921","324266.260051","325033.328666","325800.647572","326567.615229","330407.042582","Mapping"
"Blocked","Male","done","24","M_gnash.wav","None","726.756739378","409","320430.837054","327334.86773","328102.136157","328869.356809","329636.782081","330403.895165","331171.247122","331938.310629","321197.207377","321964.6014","322731.662203","323498.924921","324266.260051","325033.328666","325800.647572","326567.615229","331174.066126","Mapping"
"Blocked","Male","ball","2","M_reek.wav","None","726.975781566","409","335057.927494","327334.86773","328102.136157","328869.356809","329636.782081","330403.895165","331171.247122","331938.310629","321197.207377","321964.6014","322731.662203","323498.924921","324266.260051","325033.328666","325800.647572","326567.615229","331941.317727","Mapping"
"Blocked","Male","ball","2","M_romp.wav","None","728.372663775","409","335057.927494","327334.86773","328102.136157","328869.356809","329636.782081","330403.895165","331171.247122","331938.310629","335824.53609","321964.6014","322731.662203","323498.924921","324266.260051","325033.328666","325800.647572","326567.615229","335061.47754","Mapping"
"Blocked","Male","ball","2","M_ball.wav","None","729.458259693","409","335057.927494","327334.86773","328102.136157","328869.356809","329636.782081","330403.895165","331171.247122","331938.310629","335824.53609","336591.541005","322731.662203","323498.924921","324266.260051","325033.328666","325800.647572","326567.615229","335827.455451","Mapping"
"Blocked","Male","ball","2","M_priest.wav","space","575.190061915","409","335057.927494","327334.86773","328102.136157","328869.356809","329636.782081","330403.895165","331171.247122","331938.310629","335824.53609","336591.541005","337359.046803","323498.924921","324266.260051","325033.328666","325800.647572","326567.615229","336594.853981","Mapping"
"Blocked","Male","ball","2","M_jolt.wav","None","728.095330525","409","335057.927494","327334.86773","328102.136157","328869.356809","329636.782081","330403.895165","331171.247122","331938.310629","335824.53609","336591.541005","337359.046803","338126.133145","324266.260051","325033.328666","325800.647572","326567.615229","337362.058708","Mapping"
"Blocked","Male","ball","2","M_cad.wav","None","728.438767042","409","335057.927494","327334.86773","328102.136157","328869.356809","329636.782081","330403.895165","331171.247122","331938.310629","335824.53609","336591.541005","337359.046803","338126.133145","338893.389253","325033.328666","325800.647572","326567.615229","338129.263435","Mapping"
"Blocked","Male","ball","2","M_greet.wav","None","728.755461782","409","335057.927494","327334.86773","328102.136157","328869.356809","329636.782081","330403.895165","331171.247122","331938.310629","335824.53609","336591.541005","337359.046803","338126.133145","338893.389253","339660.513755","325800.647572","326567.615229","338896.476576","Mapping"
"Blocked","Male","ball","2","M_dime.wav","None","729.374428733","409","335057.927494","327334.86773","328102.136157","328869.356809","329636.782081","330403.895165","331171.247122","331938.310629","335824.53609","336591.541005","337359.046803","338126.133145","338893.389253","339660.513755","340427.85159","326567.615229","339663.339068","Mapping"
"Blocked","Male","ball","2","M_ball.wav","None","729.305020303","409","335057.927494","327334.86773","328102.136157","328869.356809","329636.782081","330403.895165","331171.247122","331938.310629","335824.53609","336591.541005","337359.046803","338126.133145","338893.389253","339660.513755","340427.85159","341195.552392","340430.865899","Mapping"
"Blocked","Male","ball","2","M_cling.wav","space","402.264517629","409","335057.927494","341963.00711","328102.136157","328869.356809","329636.782081","330403.895165","331171.247122","331938.310629","335824.53609","336591.541005","337359.046803","338126.133145","338893.389253","339660.513755","340427.85159","341195.552392","341198.766213","Mapping"
"Blocked","Male","ball","2","M_lash.wav","None","727.129621895","409","335057.927494","341963.00711","342730.287856","328869.356809","329636.782081","330403.895165","331171.247122","331938.310629","335824.53609","336591.541005","337359.046803","338126.133145","338893.389253","339660.513755","340427.85159","341195.552392","341966.466714","Mapping"
"Blocked","Male","ball","2","M_ball.wav","None","726.976082035","409","335057.927494","341963.00711","342730.287856","343496.81833","329636.782081","330403.895165","331171.247122","331938.310629","335824.53609","336591.541005","337359.046803","338126.133145","338893.389253","339660.513755","340427.85159","341195.552392","342733.916625","Mapping"
"Blocked","Male","ball","2","M_cling.wav","space","584.122115569","409","335057.927494","341963.00711","342730.287856","343496.81833","344264.690099","330403.895165","331171.247122","331938.310629","335824.53609","336591.541005","337359.046803","338126.133145","338893.389253","339660.513755","340427.85159","341195.552392","343499.922479","Mapping"
"Blocked","Male","ball","2","M_ball.wav","None","725.768495544","409","335057.927494","341963.00711","342730.287856","343496.81833","344264.690099","345031.182413","331171.247122","331938.310629","335824.53609","336591.541005","337359.046803","338126.133145","338893.389253","339660.513755","340427.85159","341195.552392","344268.57607","Mapping"
"Blocked","Male","ball","2","M_priest.wav","space","475.746110574","409","335057.927494","341963.00711","342730.287856","343496.81833","344264.690099","345031.182413","345798.421995","331938.310629","335824.53609","336591.541005","337359.046803","338126.133145","338893.389253","339660.513755","340427.85159","341195.552392","345034.307896","Mapping"
"Blocked","Male","ball","2","M_park.wav","None","726.435838067","409","335057.927494","341963.00711","342730.287856","343496.81833","344264.690099","345031.182413","345798.421995","346565.67029","335824.53609","336591.541005","337359.046803","338126.133145","338893.389253","339660.513755","340427.85159","341195.552392","345801.531252","Mapping"
"Blocked","Male","cave","8","M_greet.wav","None","726.80541542","409","349685.077127","341963.00711","342730.287856","343496.81833","344264.690099","345031.182413","345798.421995","346565.67029","335824.53609","336591.541005","337359.046803","338126.133145","338893.389253","339660.513755","340427.85159","341195.552392","346568.566815","Mapping"
"Blocked","Male","cave","8","M_depth.wav","None","727.532551352","409","349685.077127","341963.00711","342730.287856","343496.81833","344264.690099","345031.182413","345798.421995","346565.67029","350451.652071","336591.541005","337359.046803","338126.133145","338893.389253","339660.513755","340427.85159","341195.552392","349688.89399","Mapping"
"Blocked","Male","cave","8","M_depth.wav","None","729.449245611","409","349685.077127","341963.00711","342730.287856","343496.81833","344264.690099","345031.182413","345798.421995","346565.67029","350451.652071","351218.793099","337359.046803","338126.133145","338893.389253","339660.513755","340427.85159","341195.552392","350454.60899","Mapping"
"Blocked","Male","cave","8","M_cave.wav","None","730.097057623","409","349685.077127","341963.00711","342730.287856","343496.81833","344264.690099","345031.182413","345798.421995","346565.67029","350451.652071","351218.793099","351986.279366","338126.133145","338893.389253","339660.513755","340427.85159","341195.552392","351221.631032","Mapping"
"Blocked","Male","cave","8","M_dime.wav","space","336.917833039","409","349685.077127","341963.00711","342730.287856","343496.81833","344264.690099","345031.182413","345798.421995","346565.67029","350451.652071","351218.793099","351986.279366","352753.494008","338893.389253","339660.513755","340427.85159","341195.552392","351989.106783","Mapping"
"Blocked","Male","cave","8","M_knife.wav","None","728.854616682","409","349685.077127","341963.00711","342730.287856","343496.81833","344264.690099","345031.182413","345798.421995","346565.67029","350451.652071","351218.793099","351986.279366","352753.494008","353520.730585","339660.513755","340427.85159","341195.552392","352756.37581","Mapping"
"Blocked","Male","cave","8","M_park.wav","None","728.892175356","409","349685.077127","341963.00711","342730.287856","343496.81833","344264.690099","345031.182413","345798.421995","346565.67029","350451.652071","351218.793099","351986.279366","352753.494008","353520.730585","354287.892045","340427.85159","341195.552392","353524.15203","Mapping"
"Blocked","Male","cave","8","M_cave.wav","None","729.768945046","409","349685.077127","341963.00711","342730.287856","343496.81833","344264.690099","345031.182413","345798.421995","346565.67029","350451.652071","351218.793099","351986.279366","352753.494008","353520.730585","354287.892045","355054.942932","341195.552392","354290.805997","Mapping"
"Blocked","Male","cave","8","M_greet.wav","space","302.917317434","409","349685.077127","341963.00711","342730.287856","343496.81833","344264.690099","345031.182413","345798.421995","346565.67029","350451.652071","351218.793099","351986.279366","352753.494008","353520.730585","354287.892045","355054.942932","355822.248016","355058.136921","Mapping"
"Blocked","Male","cave","8","M_park.wav","None","728.534316309","409","349685.077127","356589.35449","342730.287856","343496.81833","344264.690099","345031.182413","345798.421995","346565.67029","350451.652071","351218.793099","351986.279366","352753.494008","353520.730585","354287.892045","355054.942932","355822.248016","355825.376503","Mapping"
"Blocked","Male","cave","8","M_cave.wav","None","729.203762117","409","349685.077127","356589.35449","357356.701639","343496.81833","344264.690099","345031.182413","345798.421995","346565.67029","350451.652071","351218.793099","351986.279366","352753.494008","353520.730585","354287.892045","355054.942932","355822.248016","356592.342357","Mapping"
"Blocked","Male","cave","8","M_depth.wav","space","399.472255558","409","349685.077127","356589.35449","357356.701639","358123.973071","344264.690099","345031.182413","345798.421995","346565.67029","350451.652071","351218.793099","351986.279366","352753.494008","353520.730585","354287.892045","355054.942932","355822.248016","357359.570221","Mapping"
"Blocked","Male","cave","8","M_lash.wav","None","728.227236589","409","349685.077127","356589.35449","357356.701639","358123.973071","358891.248108","345031.182413","345798.421995","346565.67029","350451.652071","351218.793099","351986.279366","352753.494008","353520.730585","354287.892045","355054.942932","355822.248016","358126.89784","Mapping"
"Blocked","Male","cave","8","M_cave.wav","None","728.218222507","409","349685.077127","356589.35449","357356.701639","358123.973071","358891.248108","359658.474469","345798.421995","346565.67029","350451.652071","351218.793099","351986.279366","352753.494008","353520.730585","354287.892045","355054.942932","355822.248016","358894.551168","Mapping"
