Condition,Talker,Target,Trial,current_stimulus,response_response,response_time_response,subject_nr,time_Audio1,time_Audio10,time_Audio11,time_Audio12,time_Audio13,time_Audio14,time_Audio15,time_Audio16,time_Audio2,time_Audio3,time_Audio4,time_Audio5,time_Audio6,time_Audio7,time_Audio8,time_Audio9,time_response
Mixed,Male,cave,18,M_dime.wav,NA,NA,4270,115014.6654,NA,NA,NA,NA,NA,NA,NA,NA,NA,NA,NA,NA,NA,NA,NA,NA
Mixed,Male,cave,18,M_reek.wav,None,738.5910837,4270,115014.6654,NA,NA,NA,NA,NA,NA,NA,115781.3145,NA,NA,NA,NA,NA,NA,NA,115021.7203
Mixed,Male,cave,18,M_romp.wav,None,735.9520979,4270,115014.6654,NA,NA,NA,NA,NA,NA,NA,115781.3145,116547.9623,NA,NA,NA,NA,NA,NA,115786.8818
Mixed,Male,cave,18,F_park.wav,None,732.3368247,4270,115014.6654,NA,NA,NA,NA,NA,NA,NA,115781.3145,116547.9623,117314.875,NA,NA,NA,NA,NA,116553.1023
Mixed,Male,cave,18,M_cave.wav,None,727.4548032,4270,115014.6654,NA,NA,NA,NA,NA,NA,NA,115781.3145,116547.9623,117314.875,118064.5633,NA,NA,NA,NA,117320.5083
Mixed,Male,cave,18,F_priest.wav,space,682.3229153,4270,115014.6654,NA,NA,NA,NA,NA,NA,NA,115781.3145,116547.9623,117314.875,118064.5633,118831.175,NA,NA,NA,118069.6288
Mixed,Male,cave,18,M_jaw.wav,None,736.0824254,4270,115014.6654,NA,NA,NA,NA,NA,NA,NA,115781.3145,116547.9623,117314.875,118064.5633,118831.175,119597.7862,NA,NA,118836.65
Mixed,Male,cave,18,F_gnash.wav,None,732.0428573,4270,115014.6654,NA,NA,NA,NA,NA,NA,NA,115781.3145,116547.9623,117314.875,118064.5633,118831.175,119597.7862,120364.7481,NA,119603.0303
Mixed,Male,cave,18,M_cave.wav,None,727.3034363,4270,115014.6654,NA,NA,NA,NA,NA,NA,NA,115781.3145,116547.9623,117314.875,118064.5633,118831.175,119597.7862,120364.7481,121114.3688,120370.2756
Mixed,Male,cave,18,F_bluff.wav,None,740.3069651,4270,115014.6654,121880.9835,NA,NA,NA,NA,NA,NA,115781.3145,116547.9623,117314.875,118064.5633,118831.175,119597.7862,120364.7481,121114.3688,121119.7821
Mixed,Male,cave,18,M_cave.wav,None,736.7998111,4270,115014.6654,121880.9835,122647.6526,NA,NA,NA,NA,NA,115781.3145,116547.9623,117314.875,118064.5633,118831.175,119597.7862,120364.7481,121114.3688,121886.0084
Mixed,Male,cave,18,F_greet.wav,None,732.4236123,4270,115014.6654,121880.9835,122647.6526,123414.2766,NA,NA,NA,NA,115781.3145,116547.9623,117314.875,118064.5633,118831.175,119597.7862,120364.7481,121114.3688,122652.8379
Mixed,Male,cave,18,M_cave.wav,None,729.8194,4270,115014.6654,121880.9835,122647.6526,123414.2766,124164.2428,NA,NA,NA,115781.3145,116547.9623,117314.875,118064.5633,118831.175,119597.7862,120364.7481,121114.3688,123419.2478
Mixed,Male,cave,18,F_jaw.wav,None,743.1072531,4270,115014.6654,121880.9835,122647.6526,123414.2766,124164.2428,124930.8528,NA,NA,115781.3145,116547.9623,117314.875,118064.5633,118831.175,119597.7862,120364.7481,121114.3688,124169.2834
Mixed,Male,cave,18,F_jolt.wav,None,740.1515072,4270,115014.6654,121880.9835,122647.6526,123414.2766,124164.2428,124930.8528,125697.5356,NA,115781.3145,116547.9623,117314.875,118064.5633,118831.175,119597.7862,120364.7481,121114.3688,124935.9125
Mixed,Male,cave,18,F_lash.wav,None,736.3863281,4270,115014.6654,121880.9835,122647.6526,123414.2766,124164.2428,124930.8528,125697.5356,126464.1491,115781.3145,116547.9623,117314.875,118064.5633,118831.175,119597.7862,120364.7481,121114.3688,125702.8057
Mixed,Female,tile,35,M_dime.wav,None,732.4022807,4270,129580.6415,121880.9835,122647.6526,123414.2766,124164.2428,124930.8528,125697.5356,126464.1491,115781.3145,116547.9623,117314.875,118064.5633,118831.175,119597.7862,120364.7481,121114.3688,126469.1799
Mixed,Female,tile,35,F_knife.wav,None,740.4294028,4270,129580.6415,121880.9835,122647.6526,123414.2766,124164.2428,124930.8528,125697.5356,126464.1491,130347.2982,116547.9623,117314.875,118064.5633,118831.175,119597.7862,120364.7481,121114.3688,129585.7821
Mixed,Female,tile,35,F_gnash.wav,space,294.3192404,4270,129580.6415,121880.9835,122647.6526,123414.2766,124164.2428,124930.8528,125697.5356,126464.1491,130347.2982,131113.9127,117314.875,118064.5633,118831.175,119597.7862,120364.7481,121114.3688,130352.5976
Mixed,Female,tile,35,M_jolt.wav,return,159.9378519,4270,129580.6415,121880.9835,122647.6526,123414.2766,124164.2428,124930.8528,125697.5356,126464.1491,130347.2982,131113.9127,131880.9102,118064.5633,118831.175,119597.7862,120364.7481,121114.3688,131119.0603
Mixed,Female,tile,35,F_tile.wav,None,727.1219713,4270,129580.6415,121880.9835,122647.6526,123414.2766,124164.2428,124930.8528,125697.5356,126464.1491,130347.2982,131113.9127,131880.9102,132630.4938,118831.175,119597.7862,120364.7481,121114.3688,131886.6551
Mixed,Female,tile,35,M_priest.wav,None,740.5734644,4270,129580.6415,121880.9835,122647.6526,123414.2766,124164.2428,124930.8528,125697.5356,126464.1491,130347.2982,131113.9127,131880.9102,132630.4938,133397.1342,119597.7862,120364.7481,121114.3688,132635.86
Mixed,Female,tile,35,M_cling.wav,None,736.922541,4270,129580.6415,121880.9835,122647.6526,123414.2766,124164.2428,124930.8528,125697.5356,126464.1491,130347.2982,131113.9127,131880.9102,132630.4938,133397.1342,134163.7705,120364.7481,121114.3688,133402.3239
Mixed,Female,tile,35,F_tile.wav,None,733.1266795,4270,129580.6415,121880.9835,122647.6526,123414.2766,124164.2428,124930.8528,125697.5356,126464.1491,130347.2982,131113.9127,131880.9102,132630.4938,133397.1342,134163.7705,134930.3627,121114.3688,134168.7358
Mixed,Female,tile,35,F_jolt.wav,None,729.1478919,4270,129580.6415,121880.9835,122647.6526,123414.2766,124164.2428,124930.8528,125697.5356,126464.1491,130347.2982,131113.9127,131880.9102,132630.4938,133397.1342,134163.7705,134930.3627,135680.4221,134935.2977
Mixed,Female,tile,35,M_reek.wav,None,741.8893046,4270,129580.6415,136446.9658,122647.6526,123414.2766,124164.2428,124930.8528,125697.5356,126464.1491,130347.2982,131113.9127,131880.9102,132630.4938,133397.1342,134163.7705,134930.3627,135680.4221,135685.4543
Mixed,Female,tile,35,F_gnash.wav,None,737.8850944,4270,129580.6415,136446.9658,137213.6226,123414.2766,124164.2428,124930.8528,125697.5356,126464.1491,130347.2982,131113.9127,131880.9102,132630.4938,133397.1342,134163.7705,134930.3627,135680.4221,136452.1166
Mixed,Female,tile,35,F_tile.wav,None,734.0725766,4270,129580.6415,136446.9658,137213.6226,137980.27,124164.2428,124930.8528,125697.5356,126464.1491,130347.2982,131113.9127,131880.9102,132630.4938,133397.1342,134163.7705,134930.3627,135680.4221,137218.7445
Mixed,Female,tile,35,M_lash.wav,None,730.3266837,4270,129580.6415,136446.9658,137213.6226,137980.27,138730.2016,124930.8528,125697.5356,126464.1491,130347.2982,131113.9127,131880.9102,132630.4938,133397.1342,134163.7705,134930.3627,135680.4221,137985.1868
Mixed,Female,tile,35,F_tile.wav,None,743.1148507,4270,129580.6415,136446.9658,137213.6226,137980.27,138730.2016,139496.8903,125697.5356,126464.1491,130347.2982,131113.9127,131880.9102,132630.4938,133397.1342,134163.7705,134930.3627,135680.4221,138735.119
Mixed,Female,tile,35,M_jolt.wav,None,738.7593991,4270,129580.6415,136446.9658,137213.6226,137980.27,138730.2016,139496.8903,140263.4953,126464.1491,130347.2982,131113.9127,131880.9102,132630.4938,133397.1342,134163.7705,134930.3627,135680.4221,139502.2173
Mixed,Female,tile,35,M_depth.wav,None,735.175685,4270,129580.6415,136446.9658,137213.6226,137980.27,138730.2016,139496.8903,140263.4953,141030.0758,130347.2982,131113.9127,131880.9102,132630.4938,133397.1342,134163.7705,134930.3627,135680.4221,140268.4764
Mixed,Male,done,41,F_priest.wav,None,731.5881721,4270,144129.9576,136446.9658,137213.6226,137980.27,138730.2016,139496.8903,140263.4953,141030.0758,130347.2982,131113.9127,131880.9102,132630.4938,133397.1342,134163.7705,134930.3627,135680.4221,141034.9509
Mixed,Male,done,41,F_lash.wav,None,740.7172337,4270,144129.9576,136446.9658,137213.6226,137980.27,138730.2016,139496.8903,140263.4953,141030.0758,144896.6208,131113.9127,131880.9102,132630.4938,133397.1342,134163.7705,134930.3627,135680.4221,144135.0409
Mixed,Male,done,41,M_done.wav,None,736.7729274,4270,144129.9576,136446.9658,137213.6226,137980.27,138730.2016,139496.8903,140263.4953,141030.0758,144896.6208,145663.2346,131880.9102,132630.4938,133397.1342,134163.7705,134930.3627,135680.4221,144901.4759
Mixed,Male,done,41,M_jaw.wav,space,537.2853541,4270,144129.9576,136446.9658,137213.6226,137980.27,138730.2016,139496.8903,140263.4953,141030.0758,144896.6208,145663.2346,146430.0974,132630.4938,133397.1342,134163.7705,134930.3627,135680.4221,145668.5249
Mixed,Male,done,41,M_done.wav,None,728.1473507,4270,144129.9576,136446.9658,137213.6226,137980.27,138730.2016,139496.8903,140263.4953,141030.0758,144896.6208,145663.2346,146430.0974,147179.8435,133397.1342,134163.7705,134930.3627,135680.4221,146435.4958
Mixed,Male,done,41,F_priest.wav,space,476.6450779,4270,144129.9576,136446.9658,137213.6226,137980.27,138730.2016,139496.8903,140263.4953,141030.0758,144896.6208,145663.2346,146430.0974,147179.8435,147946.4161,134163.7705,134930.3627,135680.4221,147184.99
Mixed,Male,done,41,F_greet.wav,None,737.9169457,4270,144129.9576,136446.9658,137213.6226,137980.27,138730.2016,139496.8903,140263.4953,141030.0758,144896.6208,145663.2346,146430.0974,147179.8435,147946.4161,148713.1077,134930.3627,135680.4221,147951.3271
Mixed,Male,done,41,M_gnash.wav,None,733.7680895,4270,144129.9576,136446.9658,137213.6226,137980.27,138730.2016,139496.8903,140263.4953,141030.0758,144896.6208,145663.2346,146430.0974,147179.8435,147946.4161,148713.1077,149479.7256,135680.4221,148718.3237
Mixed,Male,done,41,M_done.wav,None,730.2229477,4270,144129.9576,136446.9658,137213.6226,137980.27,138730.2016,139496.8903,140263.4953,141030.0758,144896.6208,145663.2346,146430.0974,147179.8435,147946.4161,148713.1077,149479.7256,150229.68,149484.7087
Mixed,Male,done,41,F_lash.wav,space,522.6480561,4270,144129.9576,150996.3076,137213.6226,137980.27,138730.2016,139496.8903,140263.4953,141030.0758,144896.6208,145663.2346,146430.0974,147179.8435,147946.4161,148713.1077,149479.7256,150229.68,150234.7736
Mixed,Male,done,41,M_done.wav,None,738.4537431,4270,144129.9576,150996.3076,151762.9264,137980.27,138730.2016,139496.8903,140263.4953,141030.0758,144896.6208,145663.2346,146430.0974,147179.8435,147946.4161,148713.1077,149479.7256,150229.68,151001.5563
Mixed,Male,done,41,F_romp.wav,space,421.3865093,4270,144129.9576,150996.3076,151762.9264,152529.5575,138730.2016,139496.8903,140263.4953,141030.0758,144896.6208,145663.2346,146430.0974,147179.8435,147946.4161,148713.1077,149479.7256,150229.68,151767.9031
Mixed,Male,done,41,F_depth.wav,None,730.5920141,4270,144129.9576,150996.3076,151762.9264,152529.5575,153279.5116,139496.8903,140263.4953,141030.0758,144896.6208,145663.2346,146430.0974,147179.8435,147946.4161,148713.1077,149479.7256,150229.68,152534.6291
Mixed,Male,done,41,F_priest.wav,None,743.2071903,4270,144129.9576,150996.3076,151762.9264,152529.5575,153279.5116,154046.1254,140263.4953,141030.0758,144896.6208,145663.2346,146430.0974,147179.8435,147946.4161,148713.1077,149479.7256,150229.68,153284.8208
Mixed,Male,done,41,M_depth.wav,None,739.6664317,4270,144129.9576,150996.3076,151762.9264,152529.5575,153279.5116,154046.1254,154812.7629,141030.0758,144896.6208,145663.2346,146430.0974,147179.8435,147946.4161,148713.1077,149479.7256,150229.68,154051.2485
Mixed,Male,done,41,M_cling.wav,None,736.0117096,4270,144129.9576,150996.3076,151762.9264,152529.5575,153279.5116,154046.1254,154812.7629,155579.4256,144896.6208,145663.2346,146430.0974,147179.8435,147946.4161,148713.1077,149479.7256,150229.68,154817.7417
Mixed,Female,tile,33,M_jolt.wav,None,731.9440889,4270,158679.309,150996.3076,151762.9264,152529.5575,153279.5116,154046.1254,154812.7629,155579.4256,144896.6208,145663.2346,146430.0974,147179.8435,147946.4161,148713.1077,149479.7256,150229.68,155584.518
Mixed,Female,tile,33,F_knife.wav,None,740.5860296,4270,158679.309,150996.3076,151762.9264,152529.5575,153279.5116,154046.1254,154812.7629,155579.4256,159445.9597,145663.2346,146430.0974,147179.8435,147946.4161,148713.1077,149479.7256,150229.68,158684.3287
Mixed,Female,tile,33,M_cling.wav,None,736.59906,4270,158679.309,150996.3076,151762.9264,152529.5575,153279.5116,154046.1254,154812.7629,155579.4256,159445.9597,160212.5037,146430.0974,147179.8435,147946.4161,148713.1077,149479.7256,150229.68,159451.1766
Mixed,Female,tile,33,F_reek.wav,None,732.8920316,4270,158679.309,150996.3076,151762.9264,152529.5575,153279.5116,154046.1254,154812.7629,155579.4256,159445.9597,160212.5037,160979.1683,147179.8435,147946.4161,148713.1077,149479.7256,150229.68,160217.6478
Mixed,Female,tile,33,M_reek.wav,None,729.1812043,4270,158679.309,150996.3076,151762.9264,152529.5575,153279.5116,154046.1254,154812.7629,155579.4256,159445.9597,160212.5037,160979.1683,161729.1485,147946.4161,148713.1077,149479.7256,150229.68,160984.3058
Mixed,Female,tile,33,F_tile.wav,None,742.2086947,4270,158679.309,150996.3076,151762.9264,152529.5575,153279.5116,154046.1254,154812.7629,155579.4256,159445.9597,160212.5037,160979.1683,161729.1485,162495.8032,148713.1077,149479.7256,150229.68,161734.1544
Mixed,Female,tile,33,M_priest.wav,space,671.2757601,4270,158679.309,150996.3076,151762.9264,152529.5575,153279.5116,154046.1254,154812.7629,155579.4256,159445.9597,160212.5037,160979.1683,161729.1485,162495.8032,163262.4214,149479.7256,150229.68,162501.1554
Mixed,Female,tile,33,F_tile.wav,None,734.0448163,4270,158679.309,150996.3076,151762.9264,152529.5575,153279.5116,154046.1254,154812.7629,155579.4256,159445.9597,160212.5037,160979.1683,161729.1485,162495.8032,163262.4214,164029.0902,150229.68,163267.5542
Mixed,Female,tile,33,M_priest.wav,space,602.1361437,4270,158679.309,150996.3076,151762.9264,152529.5575,153279.5116,154046.1254,154812.7629,155579.4256,159445.9597,160212.5037,160979.1683,161729.1485,162495.8032,163262.4214,164029.0902,164779.0966,164034.1733
Mixed,Female,tile,33,F_reek.wav,None,743.191703,4270,158679.309,165545.6026,151762.9264,152529.5575,153279.5116,154046.1254,154812.7629,155579.4256,159445.9597,160212.5037,160979.1683,161729.1485,162495.8032,163262.4214,164029.0902,164779.0966,164784.0503
Mixed,Female,tile,33,F_tile.wav,None,739.5124349,4270,158679.309,165545.6026,166312.251,152529.5575,153279.5116,154046.1254,154812.7629,155579.4256,159445.9597,160212.5037,160979.1683,161729.1485,162495.8032,163262.4214,164029.0902,164779.0966,165550.5732
Mixed,Female,tile,33,M_jolt.wav,space,646.733572,4270,158679.309,165545.6026,166312.251,167078.9262,153279.5116,154046.1254,154812.7629,155579.4256,159445.9597,160212.5037,160979.1683,161729.1485,162495.8032,163262.4214,164029.0902,164779.0966,166317.4275
Mixed,Female,tile,33,F_tile.wav,None,731.5753147,4270,158679.309,165545.6026,166312.251,167078.9262,167845.8696,154046.1254,154812.7629,155579.4256,159445.9597,160212.5037,160979.1683,161729.1485,162495.8032,163262.4214,164029.0902,164779.0966,167084.0373
Mixed,Female,tile,33,M_depth.wav,space,528.5385086,4270,158679.309,165545.6026,166312.251,167078.9262,167845.8696,168595.4862,154812.7629,155579.4256,159445.9597,160212.5037,160979.1683,161729.1485,162495.8032,163262.4214,164029.0902,164779.0966,167851.4877
Mixed,Female,tile,33,F_reek.wav,None,740.5348921,4270,158679.309,165545.6026,166312.251,167078.9262,167845.8696,168595.4862,169362.0691,155579.4256,159445.9597,160212.5037,160979.1683,161729.1485,162495.8032,163262.4214,164029.0902,164779.0966,168600.5547
Mixed,Female,tile,33,M_bluff.wav,space,668.7662252,4270,158679.309,165545.6026,166312.251,167078.9262,167845.8696,168595.4862,169362.0691,170128.7285,159445.9597,160212.5037,160979.1683,161729.1485,162495.8032,163262.4214,164029.0902,164779.0966,169367.1431
Mixed,Male,tile,26,F_dime.wav,None,732.6255323,4270,173228.5743,165545.6026,166312.251,167078.9262,167845.8696,168595.4862,169362.0691,170128.7285,159445.9597,160212.5037,160979.1683,161729.1485,162495.8032,163262.4214,164029.0902,164779.0966,170134.0129
Mixed,Male,tile,26,M_tile.wav,None,740.8805814,4270,173228.5743,165545.6026,166312.251,167078.9262,167845.8696,168595.4862,169362.0691,170128.7285,173995.2205,160212.5037,160979.1683,161729.1485,162495.8032,163262.4214,164029.0902,164779.0966,173233.707
Mixed,Male,tile,26,M_jaw.wav,space,635.3608903,4270,173228.5743,165545.6026,166312.251,167078.9262,167845.8696,168595.4862,169362.0691,170128.7285,173995.2205,174761.8569,160979.1683,161729.1485,162495.8032,163262.4214,164029.0902,164779.0966,174000.1718
Mixed,Male,tile,26,F_park.wav,None,733.0647301,4270,173228.5743,165545.6026,166312.251,167078.9262,167845.8696,168595.4862,169362.0691,170128.7285,173995.2205,174761.8569,175528.4856,161729.1485,162495.8032,163262.4214,164029.0902,164779.0966,174767.0726
Mixed,Male,tile,26,M_tile.wav,None,729.5932262,4270,173228.5743,165545.6026,166312.251,167078.9262,167845.8696,168595.4862,169362.0691,170128.7285,173995.2205,174761.8569,175528.4856,176278.4108,162495.8032,163262.4214,164029.0902,164779.0966,175533.4267
Mixed,Male,tile,26,F_romp.wav,space,655.7869502,4270,173228.5743,165545.6026,166312.251,167078.9262,167845.8696,168595.4862,169362.0691,170128.7285,173995.2205,174761.8569,175528.4856,176278.4108,177045.0708,163262.4214,164029.0902,164779.0966,176283.4457
Mixed,Male,tile,26,M_tile.wav,None,738.4806268,4270,173228.5743,165545.6026,166312.251,167078.9262,167845.8696,168595.4862,169362.0691,170128.7285,173995.2205,174761.8569,175528.4856,176278.4108,177045.0708,177811.7486,164029.0902,164779.0966,177050.1536
Mixed,Male,tile,26,M_depth.wav,space,610.2220009,4270,173228.5743,165545.6026,166312.251,167078.9262,167845.8696,168595.4862,169362.0691,170128.7285,173995.2205,174761.8569,175528.4856,176278.4108,177045.0708,177811.7486,178578.3353,164779.0966,177816.9661
Mixed,Male,tile,26,M_tile.wav,None,730.3395411,4270,173228.5743,165545.6026,166312.251,167078.9262,167845.8696,168595.4862,169362.0691,170128.7285,173995.2205,174761.8569,175528.4856,176278.4108,177045.0708,177811.7486,178578.3353,179328.3014,178583.6215
Mixed,Male,tile,26,M_bluff.wav,space,421.8444088,4270,173228.5743,180094.9123,166312.251,167078.9262,167845.8696,168595.4862,169362.0691,170128.7285,173995.2205,174761.8569,175528.4856,176278.4108,177045.0708,177811.7486,178578.3353,179328.3014,179333.2395
Mixed,Male,tile,26,M_cad.wav,None,739.6649707,4270,173228.5743,180094.9123,180861.5618,167078.9262,167845.8696,168595.4862,169362.0691,170128.7285,173995.2205,174761.8569,175528.4856,176278.4108,177045.0708,177811.7486,178578.3353,179328.3014,180099.9328
Mixed,Male,tile,26,F_romp.wav,None,735.7571911,4270,173228.5743,180094.9123,180861.5618,181628.1938,167845.8696,168595.4862,169362.0691,170128.7285,173995.2205,174761.8569,175528.4856,176278.4108,177045.0708,177811.7486,178578.3353,179328.3014,180866.7921
Mixed,Male,tile,26,F_gnash.wav,None,735.7151123,4270,173228.5743,180094.9123,180861.5618,181628.1938,182394.826,168595.4862,169362.0691,170128.7285,173995.2205,174761.8569,175528.4856,176278.4108,177045.0708,177811.7486,178578.3353,179328.3014,181629.9038
Mixed,Male,tile,26,F_bluff.wav,None,728.8936656,4270,173228.5743,180094.9123,180861.5618,181628.1938,182394.826,183144.7681,169362.0691,170128.7285,173995.2205,174761.8569,175528.4856,176278.4108,177045.0708,177811.7486,178578.3353,179328.3014,182399.8544
Mixed,Male,tile,26,F_cling.wav,None,742.0213854,4270,173228.5743,180094.9123,180861.5618,181628.1938,182394.826,183144.7681,183911.3986,170128.7285,173995.2205,174761.8569,175528.4856,176278.4108,177045.0708,177811.7486,178578.3353,179328.3014,183149.8299
Mixed,Male,tile,26,F_knife.wav,None,738.2556219,4270,173228.5743,180094.9123,180861.5618,181628.1938,182394.826,183144.7681,183911.3986,184678.0268,173995.2205,174761.8569,175528.4856,176278.4108,177045.0708,177811.7486,178578.3353,179328.3014,183916.4767
Mixed,Male,done,39,M_romp.wav,None,734.4179737,4270,187777.8632,180094.9123,180861.5618,181628.1938,182394.826,183144.7681,183911.3986,184678.0268,173995.2205,174761.8569,175528.4856,176278.4108,177045.0708,177811.7486,178578.3353,179328.3014,184683.3781
Mixed,Male,done,39,F_lash.wav,None,740.3844018,4270,187777.8632,180094.9123,180861.5618,181628.1938,182394.826,183144.7681,183911.3986,184678.0268,188544.515,174761.8569,175528.4856,176278.4108,177045.0708,177811.7486,178578.3353,179328.3014,187783.1517
Mixed,Male,done,39,F_reek.wav,None,736.7925058,4270,187777.8632,180094.9123,180861.5618,181628.1938,182394.826,183144.7681,183911.3986,184678.0268,188544.515,189311.1549,175528.4856,176278.4108,177045.0708,177811.7486,178578.3353,179328.3014,188549.6019
Mixed,Male,done,39,M_done.wav,None,733.2660656,4270,187777.8632,180094.9123,180861.5618,181628.1938,182394.826,183144.7681,183911.3986,184678.0268,188544.515,189311.1549,190077.7944,176278.4108,177045.0708,177811.7486,178578.3353,179328.3014,189316.0202
Mixed,Male,done,39,F_jaw.wav,space,567.2034056,4270,187777.8632,180094.9123,180861.5618,181628.1938,182394.826,183144.7681,183911.3986,184678.0268,188544.515,189311.1549,190077.7944,190827.7354,177045.0708,177811.7486,178578.3353,179328.3014,190082.9882
Mixed,Male,done,39,M_done.wav,None,741.9410265,4270,187777.8632,180094.9123,180861.5618,181628.1938,182394.826,183144.7681,183911.3986,184678.0268,188544.515,189311.1549,190077.7944,190827.7354,191594.3708,177811.7486,178578.3353,179328.3014,190832.72
Mixed,Male,done,39,F_bluff.wav,None,737.9254199,4270,187777.8632,180094.9123,180861.5618,181628.1938,182394.826,183144.7681,183911.3986,184678.0268,188544.515,189311.1549,190077.7944,190827.7354,191594.3708,192361.0355,178578.3353,179328.3014,191599.6135
Mixed,Male,done,39,M_bluff.wav,return,355.7838527,4270,187777.8632,180094.9123,180861.5618,181628.1938,182394.826,183144.7681,183911.3986,184678.0268,188544.515,189311.1549,190077.7944,190827.7354,191594.3708,192361.0355,193127.6242,179328.3014,192366.2927
Mixed,Male,done,39,M_knife.wav,None,730.0736263,4270,187777.8632,180094.9123,180861.5618,181628.1938,182394.826,183144.7681,183911.3986,184678.0268,188544.515,189311.1549,190077.7944,190827.7354,191594.3708,192361.0355,193127.6242,193877.5769,193132.7234
Mixed,Male,done,39,M_done.wav,None,743.0952723,4270,187777.8632,194644.2261,180861.5618,181628.1938,182394.826,183144.7681,183911.3986,184678.0268,188544.515,189311.1549,190077.7944,190827.7354,191594.3708,192361.0355,193127.6242,193877.5769,193882.6632
Mixed,Male,done,39,M_greet.wav,space,632.4083587,4270,187777.8632,194644.2261,195410.9194,181628.1938,182394.826,183144.7681,183911.3986,184678.0268,188544.515,189311.1549,190077.7944,190827.7354,191594.3708,192361.0355,193127.6242,193877.5769,194649.4669
Mixed,Male,done,39,F_cling.wav,space,697.703606,4270,187777.8632,194644.2261,195410.9194,196177.5522,182394.826,183144.7681,183911.3986,184678.0268,188544.515,189311.1549,190077.7944,190827.7354,191594.3708,192361.0355,193127.6242,193877.5769,195416.1012
Mixed,Male,done,39,M_done.wav,None,730.6308786,4270,187777.8632,194644.2261,195410.9194,196177.5522,196944.6409,183144.7681,183911.3986,184678.0268,188544.515,189311.1549,190077.7944,190827.7354,191594.3708,192361.0355,193127.6242,193877.5769,196182.8954
Mixed,Male,done,39,F_lash.wav,space,715.7039964,4270,187777.8632,194644.2261,195410.9194,196177.5522,196944.6409,197694.1716,183911.3986,184678.0268,188544.515,189311.1549,190077.7944,190827.7354,191594.3708,192361.0355,193127.6242,193877.5769,196949.9297
Mixed,Male,done,39,F_park.wav,None,739.7646157,4270,187777.8632,194644.2261,195410.9194,196177.5522,196944.6409,197694.1716,198460.7355,184678.0268,188544.515,189311.1549,190077.7944,190827.7354,191594.3708,192361.0355,193127.6242,193877.5769,197699.3096
Mixed,Male,done,39,F_lash.wav,None,736.3378206,4270,187777.8632,194644.2261,195410.9194,196177.5522,196944.6409,197694.1716,198460.7355,199227.3858,188544.515,189311.1549,190077.7944,190827.7354,191594.3708,192361.0355,193127.6242,193877.5769,198465.8168
Mixed,Female,tile,34,M_cad.wav,None,732.6933259,4270,202344.2668,194644.2261,195410.9194,196177.5522,196944.6409,197694.1716,198460.7355,199227.3858,188544.515,189311.1549,190077.7944,190827.7354,191594.3708,192361.0355,193127.6242,193877.5769,199232.4984
Mixed,Female,tile,34,M_reek.wav,None,723.6504675,4270,202344.2668,194644.2261,195410.9194,196177.5522,196944.6409,197694.1716,198460.7355,199227.3858,203093.8495,189311.1549,190077.7944,190827.7354,191594.3708,192361.0355,193127.6242,193877.5769,202349.6845
Mixed,Female,tile,34,M_jaw.wav,None,737.6913564,4270,202344.2668,194644.2261,195410.9194,196177.5522,196944.6409,197694.1716,198460.7355,199227.3858,203093.8495,203860.4607,190077.7944,190827.7354,191594.3708,192361.0355,193127.6242,193877.5769,203098.8543
Mixed,Female,tile,34,M_depth.wav,None,733.4013608,4270,202344.2668,194644.2261,195410.9194,196177.5522,196944.6409,197694.1716,198460.7355,199227.3858,203093.8495,203860.4607,204627.1079,190827.7354,191594.3708,192361.0355,193127.6242,193877.5769,203866.3366
Mixed,Female,tile,34,F_tile.wav,None,730.3144107,4270,202344.2668,194644.2261,195410.9194,196177.5522,196944.6409,197694.1716,198460.7355,199227.3858,203093.8495,203860.4607,204627.1079,205377.0766,191594.3708,192361.0355,193127.6242,193877.5769,204632.5314
Mixed,Female,tile,34,M_reek.wav,space,658.7988012,4270,202344.2668,194644.2261,195410.9194,196177.5522,196944.6409,197694.1716,198460.7355,199227.3858,203093.8495,203860.4607,204627.1079,205377.0766,206143.727,192361.0355,193127.6242,193877.5769,205382.233
Mixed,Female,tile,34,F_dime.wav,None,739.6643862,4270,202344.2668,194644.2261,195410.9194,196177.5522,196944.6409,197694.1716,198460.7355,199227.3858,203093.8495,203860.4607,204627.1079,205377.0766,206143.727,206910.3391,193127.6242,193877.5769,206148.6704
Mixed,Female,tile,34,F_bluff.wav,None,736.0868086,4270,202344.2668,194644.2261,195410.9194,196177.5522,196944.6409,197694.1716,198460.7355,199227.3858,203093.8495,203860.4607,204627.1079,205377.0766,206143.727,206910.3391,207676.9649,193877.5769,206915.4736
Mixed,Female,tile,34,F_tile.wav,None,732.5293938,4270,202344.2668,194644.2261,195410.9194,196177.5522,196944.6409,197694.1716,198460.7355,199227.3858,203093.8495,203860.4607,204627.1079,205377.0766,206143.727,206910.3391,207676.9649,208443.5866,207682.211
Mixed,Female,tile,34,F_dime.wav,space,632.0991962,4270,202344.2668,209193.5746,195410.9194,196177.5522,196944.6409,197694.1716,198460.7355,199227.3858,203093.8495,203860.4607,204627.1079,205377.0766,206143.727,206910.3391,207676.9649,208443.5866,208448.6942
Mixed,Female,tile,34,F_tile.wav,None,741.9667414,4270,202344.2668,209193.5746,209960.1855,196177.5522,196944.6409,197694.1716,198460.7355,199227.3858,203093.8495,203860.4607,204627.1079,205377.0766,206143.727,206910.3391,207676.9649,208443.5866,209198.71
Mixed,Female,tile,34,F_romp.wav,None,738.7781008,4270,202344.2668,209193.5746,209960.1855,210726.8599,196944.6409,197694.1716,198460.7355,199227.3858,203093.8495,203860.4607,204627.1079,205377.0766,206143.727,206910.3391,207676.9649,208443.5866,209965.0731
Mixed,Female,tile,34,F_tile.wav,space,260.641562,4270,202344.2668,209193.5746,209960.1855,210726.8599,211493.448,197694.1716,198460.7355,199227.3858,203093.8495,203860.4607,204627.1079,205377.0766,206143.727,206910.3391,207676.9649,208443.5866,210732.0005
Mixed,Female,tile,34,M_knife.wav,space,630.1781805,4270,202344.2668,209193.5746,209960.1855,210726.8599,211493.448,212243.3802,198460.7355,199227.3858,203093.8495,203860.4607,204627.1079,205377.0766,206143.727,206910.3391,207676.9649,208443.5866,211498.3268
Mixed,Female,tile,34,M_knife.wav,None,743.6846682,4270,202344.2668,209193.5746,209960.1855,210726.8599,211493.448,212243.3802,213010.0446,199227.3858,203093.8495,203860.4607,204627.1079,205377.0766,206143.727,206910.3391,207676.9649,208443.5866,212248.4685
Mixed,Female,tile,34,M_cad.wav,None,740.2043979,4270,202344.2668,209193.5746,209960.1855,210726.8599,211493.448,212243.3802,213010.0446,213776.6683,203093.8495,203860.4607,204627.1079,205377.0766,206143.727,206910.3391,207676.9649,208443.5866,213015.1399
Mixed,Female,done,44,M_cad.wav,None,736.5490914,4270,216876.5112,209193.5746,209960.1855,210726.8599,211493.448,212243.3802,213010.0446,213776.6683,203093.8495,203860.4607,204627.1079,205377.0766,206143.727,206910.3391,207676.9649,208443.5866,213782.0059
Mixed,Female,done,44,F_gnash.wav,None,740.4042724,4270,216876.5112,209193.5746,209960.1855,210726.8599,211493.448,212243.3802,213010.0446,213776.6683,217643.1426,203860.4607,204627.1079,205377.0766,206143.727,206910.3391,207676.9649,208443.5866,216881.7263
Mixed,Female,done,44,F_done.wav,None,736.9505936,4270,216876.5112,209193.5746,209960.1855,210726.8599,211493.448,212243.3802,213010.0446,213776.6683,217643.1426,218409.8107,204627.1079,205377.0766,206143.727,206910.3391,207676.9649,208443.5866,217648.2759
Mixed,Female,done,44,F_lash.wav,None,733.2163892,4270,216876.5112,209193.5746,209960.1855,210726.8599,211493.448,212243.3802,213010.0446,213776.6683,217643.1426,218409.8107,219176.4082,205377.0766,206143.727,206910.3391,207676.9649,208443.5866,218415.1524
Mixed,Female,done,44,F_dime.wav,equal,18.49656999,4270,216876.5112,209193.5746,209960.1855,210726.8599,211493.448,212243.3802,213010.0446,213776.6683,217643.1426,218409.8107,219176.4082,219926.4187,206143.727,206910.3391,207676.9649,208443.5866,219181.505
Mixed,Female,done,44,F_jolt.wav,equal,0.021623848,4270,216876.5112,209193.5746,209960.1855,210726.8599,211493.448,212243.3802,213010.0446,213776.6683,217643.1426,218409.8107,219176.4082,219926.4187,220693.0168,206910.3391,207676.9649,208443.5866,219931.4726
Mixed,Female,done,44,F_done.wav,None,738.438548,4270,216876.5112,209193.5746,209960.1855,210726.8599,211493.448,212243.3802,213010.0446,213776.6683,217643.1426,218409.8107,219176.4082,219926.4187,220693.0168,221459.6698,207676.9649,208443.5866,220698.1194
Mixed,Female,done,44,M_depth.wav,None,734.8519117,4270,216876.5112,209193.5746,209960.1855,210726.8599,211493.448,212243.3802,213010.0446,213776.6683,217643.1426,218409.8107,219176.4082,219926.4187,220693.0168,221459.6698,222226.271,208443.5866,221464.8013
Mixed,Female,done,44,F_done.wav,None,730.9032222,4270,216876.5112,209193.5746,209960.1855,210726.8599,211493.448,212243.3802,213010.0446,213776.6683,217643.1426,218409.8107,219176.4082,219926.4187,220693.0168,221459.6698,222226.271,222993.27,222231.7387
Mixed,Female,done,44,M_greet.wav,None,727.3469762,4270,216876.5112,223742.8741,209960.1855,210726.8599,211493.448,212243.3802,213010.0446,213776.6683,217643.1426,218409.8107,219176.4082,219926.4187,220693.0168,221459.6698,222226.271,222993.27,222998.8668
Mixed,Female,done,44,F_done.wav,None,741.3311756,4270,216876.5112,223742.8741,224509.497,210726.8599,211493.448,212243.3802,213010.0446,213776.6683,217643.1426,218409.8107,219176.4082,219926.4187,220693.0168,221459.6698,222226.271,222993.27,223747.9367
Mixed,Female,done,44,M_cling.wav,None,737.8719448,4270,216876.5112,223742.8741,224509.497,225276.0985,211493.448,212243.3802,213010.0446,213776.6683,217643.1426,218409.8107,219176.4082,219926.4187,220693.0168,221459.6698,222226.271,222993.27,224514.5584
Mixed,Female,done,44,M_romp.wav,None,734.3358616,4270,216876.5112,223742.8741,224509.497,225276.0985,226042.769,212243.3802,213010.0446,213776.6683,217643.1426,218409.8107,219176.4082,219926.4187,220693.0168,221459.6698,222226.271,222993.27,225281.2257
Mixed,Female,done,44,M_cad.wav,None,730.5183762,4270,216876.5112,223742.8741,224509.497,225276.0985,226042.769,226809.5462,213010.0446,213776.6683,217643.1426,218409.8107,219176.4082,219926.4187,220693.0168,221459.6698,222226.271,222993.27,226048.1546
Mixed,Female,done,44,M_bluff.wav,None,726.6605652,4270,216876.5112,223742.8741,224509.497,225276.0985,226042.769,226809.5462,227559.3642,213776.6683,217643.1426,218409.8107,219176.4082,219926.4187,220693.0168,221459.6698,222226.271,222993.27,226815.0808
Mixed,Female,done,44,M_jolt.wav,None,740.5252491,4270,216876.5112,223742.8741,224509.497,225276.0985,226042.769,226809.5462,227559.3642,228326.0043,217643.1426,218409.8107,219176.4082,219926.4187,220693.0168,221459.6698,222226.271,222993.27,227564.3838
Mixed,Male,tile,28,M_jaw.wav,None,736.8462732,4270,231442.5127,223742.8741,224509.497,225276.0985,226042.769,226809.5462,227559.3642,228326.0043,217643.1426,218409.8107,219176.4082,219926.4187,220693.0168,221459.6698,222226.271,222993.27,228331.2145
Mixed,Male,tile,28,F_depth.wav,None,740.4592087,4270,231442.5127,223742.8741,224509.497,225276.0985,226042.769,226809.5462,227559.3642,228326.0043,232209.1213,218409.8107,219176.4082,219926.4187,220693.0168,221459.6698,222226.271,222993.27,231447.644
Mixed,Male,tile,28,M_tile.wav,None,736.9286775,4270,231442.5127,223742.8741,224509.497,225276.0985,226042.769,226809.5462,227559.3642,228326.0043,232209.1213,232975.7489,219176.4082,219926.4187,220693.0168,221459.6698,222226.271,222993.27,232214.3998
Mixed,Male,tile,28,F_lash.wav,None,734.022608,4270,231442.5127,223742.8741,224509.497,225276.0985,226042.769,226809.5462,227559.3642,228326.0043,232209.1213,232975.7489,233742.4197,219926.4187,220693.0168,221459.6698,222226.271,222993.27,232980.8018
Mixed,Male,tile,28,F_priest.wav,None,730.6440283,4270,231442.5127,223742.8741,224509.497,225276.0985,226042.769,226809.5462,227559.3642,228326.0043,232209.1213,232975.7489,233742.4197,234509.3208,220693.0168,221459.6698,222226.271,222993.27,233747.4744
Mixed,Male,tile,28,M_tile.wav,None,726.5804986,4270,231442.5127,223742.8741,224509.497,225276.0985,226042.769,226809.5462,227559.3642,228326.0043,232209.1213,232975.7489,233742.4197,234509.3208,235258.9984,221459.6698,222226.271,222993.27,234515.0107
Mixed,Male,tile,28,M_cling.wav,None,740.9583104,4270,231442.5127,223742.8741,224509.497,225276.0985,226042.769,226809.5462,227559.3642,228326.0043,232209.1213,232975.7489,233742.4197,234509.3208,235258.9984,236025.5904,222226.271,222993.27,235264.0128
Mixed,Male,tile,28,F_cad.wav,None,737.5075537,4270,231442.5127,223742.8741,224509.497,225276.0985,226042.769,226809.5462,227559.3642,228326.0043,232209.1213,232975.7489,233742.4197,234509.3208,235258.9984,236025.5904,236792.2486,222993.27,236030.7377
Mixed,Male,tile,28,M_tile.wav,None,734.2645613,4270,231442.5127,223742.8741,224509.497,225276.0985,226042.769,226809.5462,227559.3642,228326.0043,232209.1213,232975.7489,233742.4197,234509.3208,235258.9984,236025.5904,236792.2486,237558.8516,236797.2428
Mixed,Male,tile,28,F_priest.wav,None,730.7641283,4270,231442.5127,238326.0496,224509.497,225276.0985,226042.769,226809.5462,227559.3642,228326.0043,232209.1213,232975.7489,233742.4197,234509.3208,235258.9984,236025.5904,236792.2486,237558.8516,237564.1094
Mixed,Male,tile,28,F_bluff.wav,None,726.6050446,4270,231442.5127,238326.0496,239075.4456,225276.0985,226042.769,226809.5462,227559.3642,228326.0043,232209.1213,232975.7489,233742.4197,234509.3208,235258.9984,236025.5904,236792.2486,237558.8516,238331.5783
Mixed,Male,tile,28,F_gnash.wav,None,741.0389615,4270,231442.5127,238326.0496,239075.4456,239842.0951,226042.769,226809.5462,227559.3642,228326.0043,232209.1213,232975.7489,233742.4197,234509.3208,235258.9984,236025.5904,236792.2486,237558.8516,239080.5728
Mixed,Male,tile,28,M_knife.wav,None,737.6016467,4270,231442.5127,238326.0496,239075.4456,239842.0951,240608.779,226809.5462,227559.3642,228326.0043,232209.1213,232975.7489,233742.4197,234509.3208,235258.9984,236025.5904,236792.2486,237558.8516,239847.4353
Mixed,Male,tile,28,M_lash.wav,None,734.5132355,4270,231442.5127,238326.0496,239075.4456,239842.0951,240608.779,241375.3426,227559.3642,228326.0043,232209.1213,232975.7489,233742.4197,234509.3208,235258.9984,236025.5904,236792.2486,237558.8516,240613.8338
Mixed,Male,tile,28,M_tile.wav,None,731.4233633,4270,231442.5127,238326.0496,239075.4456,239842.0951,240608.779,241375.3426,242142.2557,228326.0043,232209.1213,232975.7489,233742.4197,234509.3208,235258.9984,236025.5904,236792.2486,237558.8516,241380.2664
Mixed,Male,tile,28,F_reek.wav,None,727.2201553,4270,231442.5127,238326.0496,239075.4456,239842.0951,240608.779,241375.3426,242142.2557,242892.0053,232209.1213,232975.7489,233742.4197,234509.3208,235258.9984,236025.5904,236792.2486,237558.8516,242147.7496
Mixed,Female,cave,23,M_park.wav,None,741.1862374,4270,246008.4839,238326.0496,239075.4456,239842.0951,240608.779,241375.3426,242142.2557,242892.0053,232209.1213,232975.7489,233742.4197,234509.3208,235258.9984,236025.5904,236792.2486,237558.8516,242897.1047
Mixed,Female,cave,23,F_greet.wav,None,739.8613386,4270,246008.4839,238326.0496,239075.4456,239842.0951,240608.779,241375.3426,242142.2557,242892.0053,246775.1196,232975.7489,233742.4197,234509.3208,235258.9984,236025.5904,236792.2486,237558.8516,246013.8305
Mixed,Female,cave,23,F_cave.wav,None,736.6873087,4270,246008.4839,238326.0496,239075.4456,239842.0951,240608.779,241375.3426,242142.2557,242892.0053,246775.1196,247541.7574,233742.4197,234509.3208,235258.9984,236025.5904,236792.2486,237558.8516,246780.1895
Mixed,Female,cave,23,M_reek.wav,None,733.2196036,4270,246008.4839,238326.0496,239075.4456,239842.0951,240608.779,241375.3426,242142.2557,242892.0053,246775.1196,247541.7574,248308.4411,234509.3208,235258.9984,236025.5904,236792.2486,237558.8516,247546.7963
Mixed,Female,cave,23,M_greet.wav,None,729.6998844,4270,246008.4839,238326.0496,239075.4456,239842.0951,240608.779,241375.3426,242142.2557,242892.0053,246775.1196,247541.7574,248308.4411,249058.4174,235258.9984,236025.5904,236792.2486,237558.8516,248313.7012
Mixed,Female,cave,23,F_cave.wav,None,743.0292319,4270,246008.4839,238326.0496,239075.4456,239842.0951,240608.779,241375.3426,242142.2557,242892.0053,246775.1196,247541.7574,248308.4411,249058.4174,249824.993,236025.5904,236792.2486,237558.8516,249063.5212
Mixed,Female,cave,23,M_jaw.wav,None,739.6179242,4270,246008.4839,238326.0496,239075.4456,239842.0951,240608.779,241375.3426,242142.2557,242892.0053,246775.1196,247541.7574,248308.4411,249058.4174,249824.993,250591.5866,236792.2486,237558.8516,249830.1567
Mixed,Female,cave,23,F_bluff.wav,None,736.4883108,4270,246008.4839,238326.0496,239075.4456,239842.0951,240608.779,241375.3426,242142.2557,242892.0053,246775.1196,247541.7574,248308.4411,249058.4174,249824.993,250591.5866,251358.2005,237558.8516,250596.6492
Mixed,Female,cave,23,M_jaw.wav,None,733.7327316,4270,246008.4839,238326.0496,239075.4456,239842.0951,240608.779,241375.3426,242142.2557,242892.0053,246775.1196,247541.7574,248308.4411,249058.4174,249824.993,250591.5866,251358.2005,252124.8935,251363.0778
Mixed,Female,cave,23,F_cave.wav,None,730.0984645,4270,246008.4839,252891.884,239075.4456,239842.0951,240608.779,241375.3426,242142.2557,242892.0053,246775.1196,247541.7574,248308.4411,249058.4174,249824.993,250591.5866,251358.2005,252124.8935,252130.2898
Mixed,Female,cave,23,F_romp.wav,space,579.5000684,4270,246008.4839,252891.884,253641.4454,239842.0951,240608.779,241375.3426,242142.2557,242892.0053,246775.1196,247541.7574,248308.4411,249058.4174,249824.993,250591.5866,251358.2005,252124.8935,252897.7464
Mixed,Female,cave,23,M_reek.wav,None,739.6132488,4270,246008.4839,252891.884,253641.4454,254408.1071,240608.779,241375.3426,242142.2557,242892.0053,246775.1196,247541.7574,248308.4411,249058.4174,249824.993,250591.5866,251358.2005,252124.8935,253646.5425
Mixed,Female,cave,23,M_park.wav,None,736.3883736,4270,246008.4839,252891.884,253641.4454,254408.1071,255174.7774,241375.3426,242142.2557,242892.0053,246775.1196,247541.7574,248308.4411,249058.4174,249824.993,250591.5866,251358.2005,252124.8935,254413.1513
Mixed,Female,cave,23,F_cave.wav,None,732.8698233,4270,246008.4839,252891.884,253641.4454,254408.1071,255174.7774,255941.3801,242142.2557,242892.0053,246775.1196,247541.7574,248308.4411,249058.4174,249824.993,250591.5866,251358.2005,252124.8935,255180.0036
Mixed,Female,cave,23,F_cad.wav,space,450.4504189,4270,246008.4839,252891.884,253641.4454,254408.1071,255174.7774,255941.3801,256691.3591,242892.0053,246775.1196,247541.7574,248308.4411,249058.4174,249824.993,250591.5866,251358.2005,252124.8935,255946.5757
Mixed,Female,cave,23,M_knife.wav,space,635.5458618,4270,246008.4839,252891.884,253641.4454,254408.1071,255174.7774,255941.3801,256691.3591,257457.9419,246775.1196,247541.7574,248308.4411,249058.4174,249824.993,250591.5866,251358.2005,252124.8935,256697.3576
Mixed,Female,ball,11,M_reek.wav,space,358.1081239,4270,260574.5099,252891.884,253641.4454,254408.1071,255174.7774,255941.3801,256691.3591,257457.9419,246775.1196,247541.7574,248308.4411,249058.4174,249824.993,250591.5866,251358.2005,252124.8935,257462.7903
Mixed,Female,ball,11,M_lash.wav,None,740.9924994,4270,260574.5099,252891.884,253641.4454,254408.1071,255174.7774,255941.3801,256691.3591,257457.9419,261341.1492,247541.7574,248308.4411,249058.4174,249824.993,250591.5866,251358.2005,252124.8935,260579.6798
Mixed,Female,ball,11,M_priest.wav,None,737.5619056,4270,260574.5099,252891.884,253641.4454,254408.1071,255174.7774,255941.3801,256691.3591,257457.9419,261341.1492,262107.6932,248308.4411,249058.4174,249824.993,250591.5866,251358.2005,252124.8935,261346.6118
Mixed,Female,ball,11,M_lash.wav,None,735.0111684,4270,260574.5099,252891.884,253641.4454,254408.1071,255174.7774,255941.3801,256691.3591,257457.9419,261341.1492,262107.6932,262874.3996,249058.4174,249824.993,250591.5866,251358.2005,252124.8935,262112.8259
Mixed,Female,ball,11,F_ball.wav,None,731.829541,4270,260574.5099,252891.884,253641.4454,254408.1071,255174.7774,255941.3801,256691.3591,257457.9419,261341.1492,262107.6932,262874.3996,263641.2131,249824.993,250591.5866,251358.2005,252124.8935,262879.4576
Mixed,Female,ball,11,M_cad.wav,space,457.6158015,4270,260574.5099,252891.884,253641.4454,254408.1071,255174.7774,255941.3801,256691.3591,257457.9419,261341.1492,262107.6932,262874.3996,263641.2131,264391.0071,250591.5866,251358.2005,252124.8935,263642.7741
Mixed,Female,ball,11,F_ball.wav,None,744.5151408,4270,260574.5099,252891.884,253641.4454,254408.1071,255174.7774,255941.3801,256691.3591,257457.9419,261341.1492,262107.6932,262874.3996,263641.2131,264391.0071,265157.6086,251358.2005,252124.8935,264392.6142
Mixed,Female,ball,11,M_cling.wav,space,561.2381463,4270,260574.5099,252891.884,253641.4454,254408.1071,255174.7774,255941.3801,256691.3591,257457.9419,261341.1492,262107.6932,262874.3996,263641.2131,264391.0071,265157.6086,265924.1795,252124.8935,265162.9634
Mixed,Female,ball,11,M_knife.wav,None,733.7111078,4270,260574.5099,252891.884,253641.4454,254408.1071,255174.7774,255941.3801,256691.3591,257457.9419,261341.1492,262107.6932,262874.3996,263641.2131,264391.0071,265157.6086,265924.1795,266690.9073,265929.2929
Mixed,Female,ball,11,F_cling.wav,None,730.531818,4270,260574.5099,267457.7268,253641.4454,254408.1071,255174.7774,255941.3801,256691.3591,257457.9419,261341.1492,262107.6932,262874.3996,263641.2131,264391.0071,265157.6086,265924.1795,266690.9073,266695.8989
Mixed,Female,ball,11,F_ball.wav,None,726.7792042,4270,260574.5099,267457.7268,268207.4335,254408.1071,255174.7774,255941.3801,256691.3591,257457.9419,261341.1492,262107.6932,262874.3996,263641.2131,264391.0071,265157.6086,265924.1795,266690.9073,267463.0817
Mixed,Female,ball,11,M_jaw.wav,space,559.2464148,4270,260574.5099,267457.7268,268207.4335,268974.0488,255174.7774,255941.3801,256691.3591,257457.9419,261341.1492,262107.6932,262874.3996,263641.2131,264391.0071,265157.6086,265924.1795,266690.9073,268212.7424
Mixed,Female,ball,11,F_depth.wav,None,736.6183461,4270,260574.5099,267457.7268,268207.4335,268974.0488,269740.7248,255941.3801,256691.3591,257457.9419,261341.1492,262107.6932,262874.3996,263641.2131,264391.0071,265157.6086,265924.1795,266690.9073,268979.1908
Mixed,Female,ball,11,F_depth.wav,None,733.483473,4270,260574.5099,267457.7268,268207.4335,268974.0488,269740.7248,270507.3504,256691.3591,257457.9419,261341.1492,262107.6932,262874.3996,263641.2131,264391.0071,265157.6086,265924.1795,266690.9073,269745.6711
Mixed,Female,ball,11,F_ball.wav,None,729.89859,4270,260574.5099,267457.7268,268207.4335,268974.0488,269740.7248,270507.3504,271257.3398,257457.9419,261341.1492,262107.6932,262874.3996,263641.2131,264391.0071,265157.6086,265924.1795,266690.9073,270512.7724
Mixed,Female,ball,11,F_cad.wav,None,743.8474315,4270,260574.5099,267457.7268,268207.4335,268974.0488,269740.7248,270507.3504,271257.3398,272023.9312,261341.1492,262107.6932,262874.3996,263641.2131,264391.0071,265157.6086,265924.1795,266690.9073,271262.313
Mixed,Male,cave,17,F_depth.wav,space,110.7392199,4270,275140.4396,267457.7268,268207.4335,268974.0488,269740.7248,270507.3504,271257.3398,272023.9312,261341.1492,262107.6932,262874.3996,263641.2131,264391.0071,265157.6086,265924.1795,266690.9073,272029.011
Mixed,Male,cave,17,F_lash.wav,None,740.9238291,4270,275140.4396,267457.7268,268207.4335,268974.0488,269740.7248,270507.3504,271257.3398,272023.9312,275907.0712,262107.6932,262874.3996,263641.2131,264391.0071,265157.6086,265924.1795,266690.9073,275145.5706
Mixed,Male,cave,17,M_cave.wav,None,737.9324331,4270,275140.4396,267457.7268,268207.4335,268974.0488,269740.7248,270507.3504,271257.3398,272023.9312,275907.0712,276673.707,262874.3996,263641.2131,264391.0071,265157.6086,265924.1795,266690.9073,275912.1487
Mixed,Male,cave,17,M_jaw.wav,space,572.2931913,4270,275140.4396,267457.7268,268207.4335,268974.0488,269740.7248,270507.3504,271257.3398,272023.9312,275907.0712,276673.707,277440.3129,263641.2131,264391.0071,265157.6086,265924.1795,266690.9073,276679.0402
Mixed,Male,cave,17,F_cling.wav,None,730.3757757,4270,275140.4396,267457.7268,268207.4335,268974.0488,269740.7248,270507.3504,271257.3398,272023.9312,275907.0712,276673.707,277440.3129,278190.3308,264391.0071,265157.6086,265924.1795,266690.9073,277445.2928
Mixed,Male,cave,17,M_cave.wav,None,743.7682415,4270,275140.4396,267457.7268,268207.4335,268974.0488,269740.7248,270507.3504,271257.3398,272023.9312,275907.0712,276673.707,277440.3129,278190.3308,278956.9534,265157.6086,265924.1795,266690.9073,278195.3741
Mixed,Male,cave,17,F_reek.wav,space,369.1485582,4270,275140.4396,267457.7268,268207.4335,268974.0488,269740.7248,270507.3504,271257.3398,272023.9312,275907.0712,276673.707,277440.3129,278190.3308,278956.9534,279723.5269,265924.1795,266690.9073,278962.0426
Mixed,Male,cave,17,F_bluff.wav,None,736.2741179,4270,275140.4396,267457.7268,268207.4335,268974.0488,269740.7248,270507.3504,271257.3398,272023.9312,275907.0712,276673.707,277440.3129,278190.3308,278956.9534,279723.5269,280490.2097,266690.9073,279728.6283
Mixed,Male,cave,17,M_jolt.wav,space,51.48491532,4270,275140.4396,267457.7268,268207.4335,268974.0488,269740.7248,270507.3504,271257.3398,272023.9312,275907.0712,276673.707,277440.3129,278190.3308,278956.9534,279723.5269,280490.2097,281257.2504,280495.5902
Mixed,Male,cave,17,F_gnash.wav,space,204.2667354,4270,275140.4396,282006.7522,268207.4335,268974.0488,269740.7248,270507.3504,271257.3398,272023.9312,275907.0712,276673.707,277440.3129,278190.3308,278956.9534,279723.5269,280490.2097,281257.2504,281262.7122
Mixed,Male,cave,17,M_cave.wav,None,741.3788065,4270,275140.4396,282006.7522,282773.4145,268974.0488,269740.7248,270507.3504,271257.3398,272023.9312,275907.0712,276673.707,277440.3129,278190.3308,278956.9534,279723.5269,280490.2097,281257.2504,282011.5533
Mixed,Male,cave,17,F_priest.wav,None,737.988246,4270,275140.4396,282006.7522,282773.4145,283540.0471,269740.7248,270507.3504,271257.3398,272023.9312,275907.0712,276673.707,277440.3129,278190.3308,278956.9534,279723.5269,280490.2097,281257.2504,282778.4748
Mixed,Male,cave,17,F_priest.wav,None,734.6733689,4270,275140.4396,282006.7522,282773.4145,283540.0471,284306.6814,270507.3504,271257.3398,272023.9312,275907.0712,276673.707,277440.3129,278190.3308,278956.9534,279723.5269,280490.2097,281257.2504,283545.2231
Mixed,Male,cave,17,M_cave.wav,None,731.5551519,4270,275140.4396,282006.7522,282773.4145,283540.0471,284306.6814,285073.7318,271257.3398,272023.9312,275907.0712,276673.707,277440.3129,278190.3308,278956.9534,279723.5269,280490.2097,281257.2504,284311.7247
Mixed,Male,cave,17,M_dime.wav,None,727.4679529,4270,275140.4396,282006.7522,282773.4145,283540.0471,284306.6814,285073.7318,285823.2888,272023.9312,275907.0712,276673.707,277440.3129,278190.3308,278956.9534,279723.5269,280490.2097,281257.2504,285079.2032
Mixed,Male,cave,17,M_cling.wav,None,741.9620659,4270,275140.4396,282006.7522,282773.4145,283540.0471,284306.6814,285073.7318,285823.2888,286589.8883,275907.0712,276673.707,277440.3129,278190.3308,278956.9534,279723.5269,280490.2097,281257.2504,285828.2094
Mixed,Male,tile,29,M_cling.wav,None,738.3719231,4270,289689.8115,282006.7522,282773.4145,283540.0471,284306.6814,285073.7318,285823.2888,286589.8883,275907.0712,276673.707,277440.3129,278190.3308,278956.9534,279723.5269,280490.2097,281257.2504,286595.284
Mixed,Male,tile,29,F_park.wav,None,740.4171298,4270,289689.8115,282006.7522,282773.4145,283540.0471,284306.6814,285073.7318,285823.2888,286589.8883,290456.3783,276673.707,277440.3129,278190.3308,278956.9534,279723.5269,280490.2097,281257.2504,289694.9483
Mixed,Male,tile,29,F_jolt.wav,None,737.4719036,4270,289689.8115,282006.7522,282773.4145,283540.0471,284306.6814,285073.7318,285823.2888,286589.8883,290456.3783,291222.9857,277440.3129,278190.3308,278956.9534,279723.5269,280490.2097,281257.2504,290461.4663
Mixed,Male,tile,29,M_tile.wav,None,734.501547,4270,289689.8115,282006.7522,282773.4145,283540.0471,284306.6814,285073.7318,285823.2888,286589.8883,290456.3783,291222.9857,291989.6837,278190.3308,278956.9534,279723.5269,280490.2097,281257.2504,291228.022
Mixed,Male,tile,29,F_cad.wav,None,731.2793018,4270,289689.8115,282006.7522,282773.4145,283540.0471,284306.6814,285073.7318,285823.2888,286589.8883,290456.3783,291222.9857,291989.6837,292756.5614,278956.9534,279723.5269,280490.2097,281257.2504,291994.9073
Mixed,Male,tile,29,F_jolt.wav,None,727.9153327,4270,289689.8115,282006.7522,282773.4145,283540.0471,284306.6814,285073.7318,285823.2888,286589.8883,290456.3783,291222.9857,291989.6837,292756.5614,293506.2481,279723.5269,280490.2097,281257.2504,292761.9562
Mixed,Male,tile,29,M_reek.wav,None,742.2110324,4270,289689.8115,282006.7522,282773.4145,283540.0471,284306.6814,285073.7318,285823.2888,286589.8883,290456.3783,291222.9857,291989.6837,292756.5614,293506.2481,294272.8801,280490.2097,281257.2504,293511.3084
Mixed,Male,tile,29,M_tile.wav,None,739.2625918,4270,289689.8115,282006.7522,282773.4145,283540.0471,284306.6814,285073.7318,285823.2888,286589.8883,290456.3783,291222.9857,291989.6837,292756.5614,293506.2481,294272.8801,295039.5123,281257.2504,294277.9564
Mixed,Male,tile,29,M_bluff.wav,None,736.354769,4270,289689.8115,282006.7522,282773.4145,283540.0471,284306.6814,285073.7318,285823.2888,286589.8883,290456.3783,291222.9857,291989.6837,292756.5614,293506.2481,294272.8801,295039.5123,295806.1264,295044.5951
Mixed,Male,tile,29,F_knife.wav,None,733.2140515,4270,289689.8115,296572.7675,282773.4145,283540.0471,284306.6814,285073.7318,285823.2888,286589.8883,290456.3783,291222.9857,291989.6837,292756.5614,293506.2481,294272.8801,295039.5123,295806.1264,295811.3781
Mixed,Male,tile,29,F_bluff.wav,None,730.490908,4270,289689.8115,296572.7675,297339.7124,283540.0471,284306.6814,285073.7318,285823.2888,286589.8883,290456.3783,291222.9857,291989.6837,292756.5614,293506.2481,294272.8801,295039.5123,295806.1264,296577.9095
Mixed,Male,tile,29,M_tile.wav,None,726.6477078,4270,289689.8115,296572.7675,297339.7124,298089.3944,284306.6814,285073.7318,285823.2888,286589.8883,290456.3783,291222.9857,291989.6837,292756.5614,293506.2481,294272.8801,295039.5123,295806.1264,297345.3489
Mixed,Male,tile,29,M_jaw.wav,None,741.2397126,4270,289689.8115,296572.7675,297339.7124,298089.3944,298855.9764,285073.7318,285823.2888,286589.8883,290456.3783,291222.9857,291989.6837,292756.5614,293506.2481,294272.8801,295039.5123,295806.1264,298094.4717
Mixed,Male,tile,29,F_greet.wav,None,738.3415329,4270,289689.8115,296572.7675,297339.7124,298089.3944,298855.9764,299622.6034,285823.2888,286589.8883,290456.3783,291222.9857,291989.6837,292756.5614,293506.2481,294272.8801,295039.5123,295806.1264,298861.0162
Mixed,Male,tile,29,M_tile.wav,None,735.4421843,4270,289689.8115,296572.7675,297339.7124,298089.3944,298855.9764,299622.6034,300389.3581,286589.8883,290456.3783,291222.9857,291989.6837,292756.5614,293506.2481,294272.8801,295039.5123,295806.1264,299627.5547
Mixed,Male,tile,29,F_cad.wav,None,732.2018218,4270,289689.8115,296572.7675,297339.7124,298089.3944,298855.9764,299622.6034,300389.3581,301155.9173,290456.3783,291222.9857,291989.6837,292756.5614,293506.2481,294272.8801,295039.5123,295806.1264,300394.5268
Mixed,Female,cave,22,M_park.wav,None,729.6750462,4270,304255.749,296572.7675,297339.7124,298089.3944,298855.9764,299622.6034,300389.3581,301155.9173,290456.3783,291222.9857,291989.6837,292756.5614,293506.2481,294272.8801,295039.5123,295806.1264,301161.0196
Mixed,Female,cave,22,M_depth.wav,None,740.0258551,4270,304255.749,296572.7675,297339.7124,298089.3944,298855.9764,299622.6034,300389.3581,301155.9173,305022.3576,291222.9857,291989.6837,292756.5614,293506.2481,294272.8801,295039.5123,295806.1264,304261.0635
Mixed,Female,cave,22,F_jolt.wav,None,737.3737197,4270,304255.749,296572.7675,297339.7124,298089.3944,298855.9764,299622.6034,300389.3581,301155.9173,305022.3576,305789.0293,291989.6837,292756.5614,293506.2481,294272.8801,295039.5123,295806.1264,305027.4576
Mixed,Female,cave,22,M_park.wav,None,734.1850791,4270,304255.749,296572.7675,297339.7124,298089.3944,298855.9764,299622.6034,300389.3581,301155.9173,305022.3576,305789.0293,306555.6238,292756.5614,293506.2481,294272.8801,295039.5123,295806.1264,305794.1685
Mixed,Female,cave,22,M_romp.wav,None,731.0814728,4270,304255.749,296572.7675,297339.7124,298089.3944,298855.9764,299622.6034,300389.3581,301155.9173,305022.3576,305789.0293,306555.6238,307322.401,293506.2481,294272.8801,295039.5123,295806.1264,306560.9676
Mixed,Female,cave,22,F_cave.wav,None,727.6143522,4270,304255.749,296572.7675,297339.7124,298089.3944,298855.9764,299622.6034,300389.3581,301155.9173,305022.3576,305789.0293,306555.6238,307322.401,308072.228,294272.8801,295039.5123,295806.1264,307328.1512
Mixed,Female,cave,22,M_greet.wav,None,742.1771355,4270,304255.749,296572.7675,297339.7124,298089.3944,298855.9764,299622.6034,300389.3581,301155.9173,305022.3576,305789.0293,306555.6238,307322.401,308072.228,308838.8343,295039.5123,295806.1264,308077.3152
Mixed,Female,cave,22,F_cling.wav,None,739.5708777,4270,304255.749,296572.7675,297339.7124,298089.3944,298855.9764,299622.6034,300389.3581,301155.9173,305022.3576,305789.0293,306555.6238,307322.401,308072.228,308838.8343,309605.5738,295806.1264,308843.8679
Mixed,Female,cave,22,M_greet.wav,None,736.0537884,4270,304255.749,296572.7675,297339.7124,298089.3944,298855.9764,299622.6034,300389.3581,301155.9173,305022.3576,305789.0293,306555.6238,307322.401,308072.228,308838.8343,309605.5738,310372.1157,309610.8111
Mixed,Female,cave,22,M_lash.wav,None,733.3023002,4270,304255.749,311138.743,297339.7124,298089.3944,298855.9764,299622.6034,300389.3581,301155.9173,305022.3576,305789.0293,306555.6238,307322.401,308072.228,308838.8343,309605.5738,310372.1157,310377.3639
Mixed,Female,cave,22,F_cave.wav,None,730.6326319,4270,304255.749,311138.743,311905.6037,298089.3944,298855.9764,299622.6034,300389.3581,301155.9173,305022.3576,305789.0293,306555.6238,307322.401,308072.228,308838.8343,309605.5738,310372.1157,311143.8222
Mixed,Female,cave,22,M_park.wav,None,726.8394003,4270,304255.749,311138.743,311905.6037,312655.3364,298855.9764,299622.6034,300389.3581,301155.9173,305022.3576,305789.0293,306555.6238,307322.401,308072.228,308838.8343,309605.5738,310372.1157,311911.0597
Mixed,Female,cave,22,F_cave.wav,None,741.240297,4270,304255.749,311138.743,311905.6037,312655.3364,313422.0154,299622.6034,300389.3581,301155.9173,305022.3576,305789.0293,306555.6238,307322.401,308072.228,308838.8343,309605.5738,310372.1157,312660.3721
Mixed,Female,cave,22,F_cad.wav,None,738.0110387,4270,304255.749,311138.743,311905.6037,312655.3364,313422.0154,314188.569,300389.3581,301155.9173,305022.3576,305789.0293,306555.6238,307322.401,308072.228,308838.8343,309605.5738,310372.1157,313427.3041
Mixed,Female,cave,22,F_cave.wav,None,735.3951378,4270,304255.749,311138.743,311905.6037,312655.3364,313422.0154,314188.569,314955.2369,301155.9173,305022.3576,305789.0293,306555.6238,307322.401,308072.228,308838.8343,309605.5738,310372.1157,314193.7955
Mixed,Female,cave,22,F_bluff.wav,None,732.623779,4270,304255.749,311138.743,311905.6037,312655.3364,313422.0154,314188.569,314955.2369,315721.8376,305022.3576,305789.0293,306555.6238,307322.401,308072.228,308838.8343,309605.5738,310372.1157,314960.2311
Mixed,Female,done,46,M_jolt.wav,None,729.601116,4270,318821.7564,311138.743,311905.6037,312655.3364,313422.0154,314188.569,314955.2369,315721.8376,305022.3576,305789.0293,306555.6238,307322.401,308072.228,308838.8343,309605.5738,310372.1157,315726.9458
Mixed,Female,done,46,F_done.wav,None,740.2584576,4270,318821.7564,311138.743,311905.6037,312655.3364,313422.0154,314188.569,314955.2369,315721.8376,319588.3769,305789.0293,306555.6238,307322.401,308072.228,308838.8343,309605.5738,310372.1157,318826.6516
Mixed,Female,done,46,M_priest.wav,None,737.1723841,4270,318821.7564,311138.743,311905.6037,312655.3364,313422.0154,314188.569,314955.2369,315721.8376,319588.3769,320354.9779,306555.6238,307322.401,308072.228,308838.8343,309605.5738,310372.1157,319593.4437
Mixed,Female,done,46,F_reek.wav,None,734.377356,4270,318821.7564,311138.743,311905.6037,312655.3364,313422.0154,314188.569,314955.2369,315721.8376,319588.3769,320354.9779,321121.6113,307322.401,308072.228,308838.8343,309605.5738,310372.1157,320360.1685
Mixed,Female,done,46,M_dime.wav,None,731.7667149,4270,318821.7564,311138.743,311905.6037,312655.3364,313422.0154,314188.569,314955.2369,315721.8376,319588.3769,320354.9779,321121.6113,321888.5606,308072.228,308838.8343,309605.5738,310372.1157,321126.5752
Mixed,Female,done,46,F_done.wav,None,727.6324694,4270,318821.7564,311138.743,311905.6037,312655.3364,313422.0154,314188.569,314955.2369,315721.8376,319588.3769,320354.9779,321121.6113,321888.5606,322638.2328,308838.8343,309605.5738,310372.1157,321894.3985
Mixed,Female,done,46,M_jolt.wav,None,742.4372061,4270,318821.7564,311138.743,311905.6037,312655.3364,313422.0154,314188.569,314955.2369,315721.8376,319588.3769,320354.9779,321121.6113,321888.5606,322638.2328,323404.8481,309605.5738,310372.1157,322643.2659
Mixed,Female,done,46,F_done.wav,None,739.5416563,4270,318821.7564,311138.743,311905.6037,312655.3364,313422.0154,314188.569,314955.2369,315721.8376,319588.3769,320354.9779,321121.6113,321888.5606,322638.2328,323404.8481,324171.4642,310372.1157,323409.8572
Mixed,Female,done,46,M_park.wav,None,736.817344,4270,318821.7564,311138.743,311905.6037,312655.3364,313422.0154,314188.569,314955.2369,315721.8376,319588.3769,320354.9779,321121.6113,321888.5606,322638.2328,323404.8481,324171.4642,324938.0988,324176.6022
Mixed,Female,done,46,F_done.wav,None,734.1447535,4270,318821.7564,325704.7103,311905.6037,312655.3364,313422.0154,314188.569,314955.2369,315721.8376,319588.3769,320354.9779,321121.6113,321888.5606,322638.2328,323404.8481,324171.4642,324938.0988,324943.1009
Mixed,Female,done,46,F_bluff.wav,None,731.5954775,4270,318821.7564,325704.7103,326471.7745,312655.3364,313422.0154,314188.569,314955.2369,315721.8376,319588.3769,320354.9779,321121.6113,321888.5606,322638.2328,323404.8481,324171.4642,324938.0988,325709.694
Mixed,Female,done,46,M_knife.wav,None,727.7823753,4270,318821.7564,325704.7103,326471.7745,327221.3607,313422.0154,314188.569,314955.2369,315721.8376,319588.3769,320354.9779,321121.6113,321888.5606,322638.2328,323404.8481,324171.4642,324938.0988,326477.3417
Mixed,Female,done,46,M_depth.wav,None,745.6594513,4270,318821.7564,325704.7103,326471.7745,327221.3607,327987.9339,314188.569,314955.2369,315721.8376,319588.3769,320354.9779,321121.6113,321888.5606,322638.2328,323404.8481,324171.4642,324938.0988,327223.0979
Mixed,Female,done,46,F_reek.wav,None,739.3312621,4270,318821.7564,325704.7103,326471.7745,327221.3607,327987.9339,328754.5851,314955.2369,315721.8376,319588.3769,320354.9779,321121.6113,321888.5606,322638.2328,323404.8481,324171.4642,324938.0988,327993.3276
Mixed,Female,done,46,F_priest.wav,None,736.6501975,4270,318821.7564,325704.7103,326471.7745,327221.3607,327987.9339,328754.5851,329521.2147,315721.8376,319588.3769,320354.9779,321121.6113,321888.5606,322638.2328,323404.8481,324171.4642,324938.0988,328759.831
Mixed,Female,done,46,M_gnash.wav,None,734.3615764,4270,318821.7564,325704.7103,326471.7745,327221.3607,327987.9339,328754.5851,329521.2147,330287.8721,319588.3769,320354.9779,321121.6113,321888.5606,322638.2328,323404.8481,324171.4642,324938.0988,329526.0144
Mixed,Male,ball,3,F_gnash.wav,None,731.3544008,4270,333387.6901,325704.7103,326471.7745,327221.3607,327987.9339,328754.5851,329521.2147,330287.8721,319588.3769,320354.9779,321121.6113,321888.5606,322638.2328,323404.8481,324171.4642,324938.0988,330292.8009
Mixed,Male,ball,3,M_ball.wav,None,740.9448685,4270,333387.6901,325704.7103,326471.7745,327221.3607,327987.9339,328754.5851,329521.2147,330287.8721,334154.3443,320354.9779,321121.6113,321888.5606,322638.2328,323404.8481,324171.4642,324938.0988,333392.8638
Mixed,Male,ball,3,M_cad.wav,None,738.2559141,4270,333387.6901,325704.7103,326471.7745,327221.3607,327987.9339,328754.5851,329521.2147,330287.8721,334154.3443,334920.9184,321121.6113,321888.5606,322638.2328,323404.8481,324171.4642,324938.0988,334159.3628
Mixed,Male,ball,3,F_jolt.wav,None,735.6517018,4270,333387.6901,325704.7103,326471.7745,327221.3607,327987.9339,328754.5851,329521.2147,330287.8721,334154.3443,334920.9184,335687.5915,321888.5606,322638.2328,323404.8481,324171.4642,324938.0988,334926.0082
Mixed,Male,ball,3,F_jaw.wav,None,732.8490761,4270,333387.6901,325704.7103,326471.7745,327221.3607,327987.9339,328754.5851,329521.2147,330287.8721,334154.3443,334920.9184,335687.5915,336454.2065,322638.2328,323404.8481,324171.4642,324938.0988,335692.6167
Mixed,Male,ball,3,M_ball.wav,None,730.2527535,4270,333387.6901,325704.7103,326471.7745,327221.3607,327987.9339,328754.5851,329521.2147,330287.8721,334154.3443,334920.9184,335687.5915,336454.2065,337204.1615,323404.8481,324171.4642,324938.0988,336459.187
Mixed,Male,ball,3,F_jolt.wav,None,743.8915558,4270,333387.6901,325704.7103,326471.7745,327221.3607,327987.9339,328754.5851,329521.2147,330287.8721,334154.3443,334920.9184,335687.5915,336454.2065,337204.1615,337970.7914,324171.4642,324938.0988,337209.2288
Mixed,Male,ball,3,F_romp.wav,None,741.1684124,4270,333387.6901,325704.7103,326471.7745,327221.3607,327987.9339,328754.5851,329521.2147,330287.8721,334154.3443,334920.9184,335687.5915,336454.2065,337204.1615,337970.7914,338737.436,324938.0988,337975.8725
Mixed,Male,ball,3,F_greet.wav,None,738.6772869,4270,333387.6901,325704.7103,326471.7745,327221.3607,327987.9339,328754.5851,329521.2147,330287.8721,334154.3443,334920.9184,335687.5915,336454.2065,337204.1615,337970.7914,338737.436,339504.1003,338742.2806
Mixed,Male,ball,3,M_greet.wav,None,735.3510135,4270,333387.6901,340270.6747,326471.7745,327221.3607,327987.9339,328754.5851,329521.2147,330287.8721,334154.3443,334920.9184,335687.5915,336454.2065,337204.1615,337970.7914,338737.436,339504.1003,339509.4698
Mixed,Male,ball,3,M_ball.wav,None,732.7237162,4270,333387.6901,340270.6747,341037.3228,327221.3607,327987.9339,328754.5851,329521.2147,330287.8721,334154.3443,334920.9184,335687.5915,336454.2065,337204.1615,337970.7914,338737.436,339504.1003,340275.9124
Mixed,Male,ball,3,M_bluff.wav,None,730.0809316,4270,333387.6901,340270.6747,341037.3228,341804.3846,327987.9339,328754.5851,329521.2147,330287.8721,334154.3443,334920.9184,335687.5915,336454.2065,337204.1615,337970.7914,338737.436,339504.1003,341042.3965
Mixed,Male,ball,3,F_priest.wav,None,726.3733187,4270,333387.6901,340270.6747,341037.3228,341804.3846,342553.9465,328754.5851,329521.2147,330287.8721,334154.3443,334920.9184,335687.5915,336454.2065,337204.1615,337970.7914,338737.436,339504.1003,341809.9451
Mixed,Male,ball,3,M_greet.wav,None,741.106463,4270,333387.6901,340270.6747,341037.3228,341804.3846,342553.9465,343320.6282,329521.2147,330287.8721,334154.3443,334920.9184,335687.5915,336454.2065,337204.1615,337970.7914,338737.436,339504.1003,342559.0614
Mixed,Male,ball,3,M_ball.wav,None,738.2439333,4270,333387.6901,340270.6747,341037.3228,341804.3846,342553.9465,343320.6282,344087.2174,330287.8721,334154.3443,334920.9184,335687.5915,336454.2065,337204.1615,337970.7914,338737.436,339504.1003,343325.7884
Mixed,Male,ball,3,F_jolt.wav,None,735.3486757,4270,333387.6901,340270.6747,341037.3228,341804.3846,342553.9465,343320.6282,344087.2174,344853.8018,334154.3443,334920.9184,335687.5915,336454.2065,337204.1615,337970.7914,338737.436,339504.1003,344092.6415
Mixed,Female,done,47,M_greet.wav,None,733.016807,4270,347953.701,340270.6747,341037.3228,341804.3846,342553.9465,343320.6282,344087.2174,344853.8018,334154.3443,334920.9184,335687.5915,336454.2065,337204.1615,337970.7914,338737.436,339504.1003,344858.7691
Mixed,Female,done,47,M_jaw.wav,None,740.5471651,4270,347953.701,340270.6747,341037.3228,341804.3846,342553.9465,343320.6282,344087.2174,344853.8018,348720.3774,334920.9184,335687.5915,336454.2065,337204.1615,337970.7914,338737.436,339504.1003,347959.0094
Mixed,Female,done,47,F_romp.wav,None,738.033247,4270,347953.701,340270.6747,341037.3228,341804.3846,342553.9465,343320.6282,344087.2174,344853.8018,348720.3774,349486.9392,335687.5915,336454.2065,337204.1615,337970.7914,338737.436,339504.1003,348725.4564
Mixed,Female,done,47,M_greet.wav,None,735.2233159,4270,347953.701,340270.6747,341037.3228,341804.3846,342553.9465,343320.6282,344087.2174,344853.8018,348720.3774,349486.9392,350253.5671,336454.2065,337204.1615,337970.7914,338737.436,339504.1003,349492.1818
Mixed,Female,done,47,F_reek.wav,None,732.6681955,4270,347953.701,340270.6747,341037.3228,341804.3846,342553.9465,343320.6282,344087.2174,344853.8018,348720.3774,349486.9392,350253.5671,351020.2285,337204.1615,337970.7914,338737.436,339504.1003,350258.729
Mixed,Female,done,47,F_done.wav,None,730.2185645,4270,347953.701,340270.6747,341037.3228,341804.3846,342553.9465,343320.6282,344087.2174,344853.8018,348720.3774,349486.9392,350253.5671,351020.2285,351787.1106,337970.7914,338737.436,339504.1003,351025.2122
Mixed,Female,done,47,M_dime.wav,None,726.3470195,4270,347953.701,340270.6747,341037.3228,341804.3846,342553.9465,343320.6282,344087.2174,344853.8018,348720.3774,349486.9392,350253.5671,351020.2285,351787.1106,352536.8061,338737.436,339504.1003,351793.0019
Mixed,Female,done,47,F_done.wav,None,741.4118267,4270,347953.701,340270.6747,341037.3228,341804.3846,342553.9465,343320.6282,344087.2174,344853.8018,348720.3774,349486.9392,350253.5671,351020.2285,351787.1106,352536.8061,353303.4246,339504.1003,352541.9207
Mixed,Female,done,47,M_jolt.wav,None,738.6837156,4270,347953.701,340270.6747,341037.3228,341804.3846,342553.9465,343320.6282,344087.2174,344853.8018,348720.3774,349486.9392,350253.5671,351020.2285,351787.1106,352536.8061,353303.4246,354070.0145,353308.5568
Mixed,Female,done,47,M_lash.wav,None,736.0251515,4270,347953.701,354836.7145,341037.3228,341804.3846,342553.9465,343320.6282,344087.2174,344853.8018,348720.3774,349486.9392,350253.5671,351020.2285,351787.1106,352536.8061,353303.4246,354070.0145,354075.3585
Mixed,Female,done,47,M_dime.wav,None,734.1485523,4270,347953.701,354836.7145,355603.3138,341804.3846,342553.9465,343320.6282,344087.2174,344853.8018,348720.3774,349486.9392,350253.5671,351020.2285,351787.1106,352536.8061,353303.4246,354070.0145,354841.7874
Mixed,Female,done,47,F_done.wav,None,731.6238222,4270,347953.701,354836.7145,355603.3138,356369.9039,342553.9465,343320.6282,344087.2174,344853.8018,348720.3774,349486.9392,350253.5671,351020.2285,351787.1106,352536.8061,353303.4246,354070.0145,355608.2875
Mixed,Female,done,47,M_cling.wav,None,729.1268525,4270,347953.701,354836.7145,355603.3138,356369.9039,357119.9101,343320.6282,344087.2174,344853.8018,348720.3774,349486.9392,350253.5671,351020.2285,351787.1106,352536.8061,353303.4246,354070.0145,356375.0273
Mixed,Female,done,47,F_lash.wav,None,743.5914519,4270,347953.701,354836.7145,355603.3138,356369.9039,357119.9101,357886.5441,344087.2174,344853.8018,348720.3774,349486.9392,350253.5671,351020.2285,351787.1106,352536.8061,353303.4246,354070.0145,357124.7576
Mixed,Female,done,47,F_done.wav,None,740.3160237,4270,347953.701,354836.7145,355603.3138,356369.9039,357119.9101,357886.5441,358653.1506,344853.8018,348720.3774,349486.9392,350253.5671,351020.2285,351787.1106,352536.8061,353303.4246,354070.0145,357891.9161
Mixed,Female,done,47,F_lash.wav,None,737.868146,4270,347953.701,354836.7145,355603.3138,356369.9039,357119.9101,357886.5441,358653.1506,359419.7913,348720.3774,349486.9392,350253.5671,351020.2285,351787.1106,352536.8061,353303.4246,354070.0145,358658.3745
Mixed,Male,ball,5,M_priest.wav,None,735.3413704,4270,362503.0043,354836.7145,355603.3138,356369.9039,357119.9101,357886.5441,358653.1506,359419.7913,348720.3774,349486.9392,350253.5671,351020.2285,351787.1106,352536.8061,353303.4246,354070.0145,359424.8522
Mixed,Male,ball,5,M_ball.wav,None,740.1380653,4270,362503.0043,354836.7145,355603.3138,356369.9039,357119.9101,357886.5441,358653.1506,359419.7913,363269.6441,349486.9392,350253.5671,351020.2285,351787.1106,352536.8061,353303.4246,354070.0145,362508.3377
Mixed,Male,ball,5,M_depth.wav,None,737.4958652,4270,362503.0043,354836.7145,355603.3138,356369.9039,357119.9101,357886.5441,358653.1506,359419.7913,363269.6441,364036.2287,350253.5671,351020.2285,351787.1106,352536.8061,353303.4246,354070.0145,363274.8578
Mixed,Male,ball,5,M_ball.wav,None,735.3653319,4270,362503.0043,354836.7145,355603.3138,356369.9039,357119.9101,357886.5441,358653.1506,359419.7913,363269.6441,364036.2287,364802.9229,351020.2285,351787.1106,352536.8061,353303.4246,354070.0145,364041.1356
Mixed,Male,ball,5,F_romp.wav,None,732.6226101,4270,362503.0043,354836.7145,355603.3138,356369.9039,357119.9101,357886.5441,358653.1506,359419.7913,363269.6441,364036.2287,364802.9229,365569.4701,351787.1106,352536.8061,353303.4246,354070.0145,364807.954
Mixed,Male,ball,5,F_bluff.wav,None,730.2363895,4270,362503.0043,354836.7145,355603.3138,356369.9039,357119.9101,357886.5441,358653.1506,359419.7913,363269.6441,364036.2287,364802.9229,365569.4701,366336.6456,352536.8061,353303.4246,354070.0145,365574.6441
Mixed,Male,ball,5,F_cad.wav,None,726.7800808,4270,362503.0043,354836.7145,355603.3138,356369.9039,357119.9101,357886.5441,358653.1506,359419.7913,363269.6441,364036.2287,364802.9229,365569.4701,366336.6456,367086.0667,353303.4246,354070.0145,366342.0667
Mixed,Male,ball,5,M_reek.wav,None,741.7852764,4270,362503.0043,354836.7145,355603.3138,356369.9039,357119.9101,357886.5441,358653.1506,359419.7913,363269.6441,364036.2287,364802.9229,365569.4701,366336.6456,367086.0667,367852.7656,354070.0145,367091.0218
Mixed,Male,ball,5,F_gnash.wav,None,738.654202,4270,362503.0043,354836.7145,355603.3138,356369.9039,357119.9101,357886.5441,358653.1506,359419.7913,363269.6441,364036.2287,364802.9229,365569.4701,366336.6456,367086.0667,367852.7656,368619.3332,367858.0821
Mixed,Male,ball,5,F_depth.wav,None,736.2612605,4270,362503.0043,369385.9997,355603.3138,356369.9039,357119.9101,357886.5441,358653.1506,359419.7913,363269.6441,364036.2287,364802.9229,365569.4701,366336.6456,367086.0667,367852.7656,368619.3332,368624.5209
Mixed,Male,ball,5,M_gnash.wav,None,733.5322727,4270,362503.0043,369385.9997,370152.6348,356369.9039,357119.9101,357886.5441,358653.1506,359419.7913,363269.6441,364036.2287,364802.9229,365569.4701,366336.6456,367086.0667,367852.7656,368619.3332,369391.1771
Mixed,Male,ball,5,M_ball.wav,None,731.2731653,4270,362503.0043,369385.9997,370152.6348,370919.6689,357119.9101,357886.5441,358653.1506,359419.7913,363269.6441,364036.2287,364802.9229,365569.4701,366336.6456,367086.0667,367852.7656,368619.3332,370157.5125
Mixed,Male,ball,5,F_cling.wav,None,727.3113261,4270,362503.0043,369385.9997,370152.6348,370919.6689,371669.2247,357886.5441,358653.1506,359419.7913,363269.6441,364036.2287,364802.9229,365569.4701,366336.6456,367086.0667,367852.7656,368619.3332,370925.4997
Mixed,Male,ball,5,M_ball.wav,None,742.4044781,4270,362503.0043,369385.9997,370152.6348,370919.6689,371669.2247,372435.8546,358653.1506,359419.7913,363269.6441,364036.2287,364802.9229,365569.4701,366336.6456,367086.0667,367852.7656,368619.3332,371674.4679
Mixed,Male,ball,5,F_gnash.wav,None,740.0100755,4270,362503.0043,369385.9997,370152.6348,370919.6689,371669.2247,372435.8546,373202.4746,359419.7913,363269.6441,364036.2287,364802.9229,365569.4701,366336.6456,367086.0667,367852.7656,368619.3332,372440.9888
Mixed,Male,ball,5,F_jolt.wav,None,737.1440394,4270,362503.0043,369385.9997,370152.6348,370919.6689,371669.2247,372435.8546,373202.4746,373969.1515,363269.6441,364036.2287,364802.9229,365569.4701,366336.6456,367086.0667,367852.7656,368619.3332,373207.7888
Mixed,Female,cave,19,M_reek.wav,None,734.8586326,4270,377068.9532,369385.9997,370152.6348,370919.6689,371669.2247,372435.8546,373202.4746,373969.1515,363269.6441,364036.2287,364802.9229,365569.4701,366336.6456,367086.0667,367852.7656,368619.3332,373974.2466
Mixed,Female,cave,19,M_greet.wav,None,740.3060885,4270,377068.9532,369385.9997,370152.6348,370919.6689,371669.2247,372435.8546,373202.4746,373969.1515,377835.5752,364036.2287,364802.9229,365569.4701,366336.6456,367086.0667,367852.7656,368619.3332,377074.059
Mixed,Female,cave,19,M_depth.wav,None,737.3827783,4270,377068.9532,369385.9997,370152.6348,370919.6689,371669.2247,372435.8546,373202.4746,373969.1515,377835.5752,378602.2431,364802.9229,365569.4701,366336.6456,367086.0667,367852.7656,368619.3332,377840.9385
Mixed,Female,cave,19,F_greet.wav,None,734.9331473,4270,377068.9532,369385.9997,370152.6348,370919.6689,371669.2247,372435.8546,373202.4746,373969.1515,377835.5752,378602.2431,379368.8958,365569.4701,366336.6456,367086.0667,367852.7656,368619.3332,378607.4007
Mixed,Female,cave,19,M_greet.wav,None,732.5314393,4270,377068.9532,369385.9997,370152.6348,370919.6689,371669.2247,372435.8546,373202.4746,373969.1515,377835.5752,378602.2431,379368.8958,380135.5032,366336.6456,367086.0667,367852.7656,368619.3332,379373.8491
Mixed,Female,cave,19,F_cave.wav,None,729.9228438,4270,377068.9532,369385.9997,370152.6348,370919.6689,371669.2247,372435.8546,373202.4746,373969.1515,377835.5752,378602.2431,379368.8958,380135.5032,380902.4385,367086.0667,367852.7656,368619.3332,380140.6766
Mixed,Female,cave,19,M_priest.wav,None,726.5208869,4270,377068.9532,369385.9997,370152.6348,370919.6689,371669.2247,372435.8546,373202.4746,373969.1515,377835.5752,378602.2431,379368.8958,380135.5032,380902.4385,381652.0627,367852.7656,368619.3332,380908.0522
Mixed,Female,cave,19,M_park.wav,None,741.2651352,4270,377068.9532,369385.9997,370152.6348,370919.6689,371669.2247,372435.8546,373202.4746,373969.1515,377835.5752,378602.2431,379368.8958,380135.5032,380902.4385,381652.0627,382418.7157,368619.3332,381657.4292
Mixed,Female,cave,19,F_cave.wav,None,738.9186558,4270,377068.9532,369385.9997,370152.6348,370919.6689,371669.2247,372435.8546,373202.4746,373969.1515,377835.5752,378602.2431,379368.8958,380135.5032,380902.4385,381652.0627,382418.7157,383185.4029,382423.8195
Mixed,Female,cave,19,F_cling.wav,None,736.2709035,4270,377068.9532,383952.0181,370152.6348,370919.6689,371669.2247,372435.8546,373202.4746,373969.1515,377835.5752,378602.2431,379368.8958,380135.5032,380902.4385,381652.0627,382418.7157,383185.4029,383190.4491
Mixed,Female,cave,19,F_cave.wav,None,733.6237357,4270,377068.9532,383952.0181,384718.6279,370919.6689,371669.2247,372435.8546,373202.4746,373969.1515,377835.5752,378602.2431,379368.8958,380135.5032,380902.4385,381652.0627,382418.7157,383185.4029,383957.096
Mixed,Female,cave,19,F_bluff.wav,None,731.1644616,4270,377068.9532,383952.0181,384718.6279,385485.5027,371669.2247,372435.8546,373202.4746,373969.1515,377835.5752,378602.2431,379368.8958,380135.5032,380902.4385,381652.0627,382418.7157,383185.4029,384723.7177
Mixed,Female,cave,19,M_jaw.wav,None,727.676886,4270,377068.9532,383952.0181,384718.6279,385485.5027,386235.2163,372435.8546,373202.4746,373969.1515,377835.5752,378602.2431,379368.8958,380135.5032,380902.4385,381652.0627,382418.7157,383185.4029,385491.3642
Mixed,Female,cave,19,F_cave.wav,None,742.8799105,4270,377068.9532,383952.0181,384718.6279,385485.5027,386235.2163,387001.822,373202.4746,373969.1515,377835.5752,378602.2431,379368.8958,380135.5032,380902.4385,381652.0627,382418.7157,383185.4029,386240.2415
Mixed,Female,cave,19,F_gnash.wav,None,740.8516522,4270,377068.9532,383952.0181,384718.6279,385485.5027,386235.2163,387001.822,387768.4598,373969.1515,377835.5752,378602.2431,379368.8958,380135.5032,380902.4385,381652.0627,382418.7157,383185.4029,387006.891
Mixed,Female,cave,19,M_jaw.wav,None,738.1019173,4270,377068.9532,383952.0181,384718.6279,385485.5027,386235.2163,387001.822,387768.4598,388535.0943,377835.5752,378602.2431,379368.8958,380135.5032,380902.4385,381652.0627,382418.7157,383185.4029,387773.7404
Mixed,Male,ball,1,M_priest.wav,None,735.8469008,4270,391634.9901,383952.0181,384718.6279,385485.5027,386235.2163,387001.822,387768.4598,388535.0943,377835.5752,378602.2431,379368.8958,380135.5032,380902.4385,381652.0627,382418.7157,383185.4029,388540.2805
Mixed,Male,ball,1,M_greet.wav,None,740.3093028,4270,391634.9901,383952.0181,384718.6279,385485.5027,386235.2163,387001.822,387768.4598,388535.0943,392401.5922,378602.2431,379368.8958,380135.5032,380902.4385,381652.0627,382418.7157,383185.4029,391640.0007
Mixed,Male,ball,1,F_jolt.wav,None,737.6758691,4270,391634.9901,383952.0181,384718.6279,385485.5027,386235.2163,387001.822,387768.4598,388535.0943,392401.5922,393168.2075,379368.8958,380135.5032,380902.4385,381652.0627,382418.7157,383185.4029,392406.8258
Mixed,Male,ball,1,F_bluff.wav,None,735.6628059,4270,391634.9901,383952.0181,384718.6279,385485.5027,386235.2163,387001.822,387768.4598,388535.0943,392401.5922,393168.2075,393934.8395,380135.5032,380902.4385,381652.0627,382418.7157,383185.4029,393173.2719
Mixed,Male,ball,1,F_park.wav,None,733.0264501,4270,391634.9901,383952.0181,384718.6279,385485.5027,386235.2163,387001.822,387768.4598,388535.0943,392401.5922,393168.2075,393934.8395,394701.5059,380902.4385,381652.0627,382418.7157,383185.4029,393940.0862
Mixed,Male,ball,1,M_ball.wav,None,730.8377662,4270,391634.9901,383952.0181,384718.6279,385485.5027,386235.2163,387001.822,387768.4598,388535.0943,392401.5922,393168.2075,393934.8395,394701.5059,395468.5849,381652.0627,382418.7157,383185.4029,394706.6345
Mixed,Male,ball,1,F_knife.wav,None,727.569059,4270,391634.9901,383952.0181,384718.6279,385485.5027,386235.2163,387001.822,387768.4598,388535.0943,392401.5922,393168.2075,393934.8395,394701.5059,395468.5849,396218.0651,382418.7157,383185.4029,395474.078
Mixed,Male,ball,1,M_ball.wav,None,742.6175022,4270,391634.9901,383952.0181,384718.6279,385485.5027,386235.2163,387001.822,387768.4598,388535.0943,392401.5922,393168.2075,393934.8395,394701.5059,395468.5849,396218.0651,396984.6918,383185.4029,396223.2431
Mixed,Male,ball,1,M_greet.wav,None,740.3376476,4270,391634.9901,383952.0181,384718.6279,385485.5027,386235.2163,387001.822,387768.4598,388535.0943,392401.5922,393168.2075,393934.8395,394701.5059,395468.5849,396218.0651,396984.6918,397751.3012,396989.7488
Mixed,Male,ball,1,M_ball.wav,None,737.9385696,4270,391634.9901,398517.9373,384718.6279,385485.5027,386235.2163,387001.822,387768.4598,388535.0943,392401.5922,393168.2075,393934.8395,394701.5059,395468.5849,396218.0651,396984.6918,397751.3012,397756.3434
Mixed,Male,ball,1,F_dime.wav,None,735.4468597,4270,391634.9901,398517.9373,399284.5859,385485.5027,386235.2163,387001.822,387768.4598,388535.0943,392401.5922,393168.2075,393934.8395,394701.5059,395468.5849,396218.0651,396984.6918,397751.3012,398523.174
Mixed,Male,ball,1,M_ball.wav,None,732.9662539,4270,391634.9901,398517.9373,399284.5859,400051.2558,386235.2163,387001.822,387768.4598,388535.0943,392401.5922,393168.2075,393934.8395,394701.5059,395468.5849,396218.0651,396984.6918,397751.3012,399289.82
Mixed,Male,ball,1,F_knife.wav,None,730.585001,4270,391634.9901,398517.9373,399284.5859,400051.2558,400818.163,387001.822,387768.4598,388535.0943,392401.5922,393168.2075,393934.8395,394701.5059,395468.5849,396218.0651,396984.6918,397751.3012,400056.3336
Mixed,Male,ball,1,M_dime.wav,None,727.0433657,4270,391634.9901,398517.9373,399284.5859,400051.2558,400818.163,401567.7706,387768.4598,388535.0943,392401.5922,393168.2075,393934.8395,394701.5059,395468.5849,396218.0651,396984.6918,397751.3012,400824.0275
Mixed,Male,ball,1,F_priest.wav,None,742.3650292,4270,391634.9901,398517.9373,399284.5859,400051.2558,400818.163,401567.7706,402334.4324,388535.0943,392401.5922,393168.2075,393934.8395,394701.5059,395468.5849,396218.0651,396984.6918,397751.3012,401572.9808
Mixed,Male,ball,1,F_gnash.wav,None,740.0913111,4270,391634.9901,398517.9373,399284.5859,400051.2558,400818.163,401567.7706,402334.4324,403101.0769,392401.5922,393168.2075,393934.8395,394701.5059,395468.5849,396218.0651,396984.6918,397751.3012,402339.5952
Mixed,Female,cave,21,M_jolt.wav,None,737.7614878,4270,406217.6247,398517.9373,399284.5859,400051.2558,400818.163,401567.7706,402334.4324,403101.0769,392401.5922,393168.2075,393934.8395,394701.5059,395468.5849,396218.0651,396984.6918,397751.3012,403106.209
Mixed,Female,cave,21,M_romp.wav,None,740.308134,4270,406217.6247,398517.9373,399284.5859,400051.2558,400818.163,401567.7706,402334.4324,403101.0769,406984.2327,393168.2075,393934.8395,394701.5059,395468.5849,396218.0651,396984.6918,397751.3012,406222.6759
Mixed,Female,cave,21,F_cave.wav,None,737.8570418,4270,406217.6247,398517.9373,399284.5859,400051.2558,400818.163,401567.7706,402334.4324,403101.0769,406984.2327,407750.8118,393934.8395,394701.5059,395468.5849,396218.0651,396984.6918,397751.3012,406989.307
Mixed,Female,cave,21,M_gnash.wav,None,735.4716979,4270,406217.6247,398517.9373,399284.5859,400051.2558,400818.163,401567.7706,402334.4324,403101.0769,406984.2327,407750.8118,408517.4466,394701.5059,395468.5849,396218.0651,396984.6918,397751.3012,407756.2657
Mixed,Female,cave,21,M_greet.wav,None,733.4641868,4270,406217.6247,398517.9373,399284.5859,400051.2558,400818.163,401567.7706,402334.4324,403101.0769,406984.2327,407750.8118,408517.4466,409284.0891,395468.5849,396218.0651,396984.6918,397751.3012,408522.6042
Mixed,Female,cave,21,M_park.wav,None,731.1223828,4270,406217.6247,398517.9373,399284.5859,400051.2558,400818.163,401567.7706,402334.4324,403101.0769,406984.2327,407750.8118,408517.4466,409284.0891,410050.7409,396218.0651,396984.6918,397751.3012,409289.3984
Mixed,Female,cave,21,F_cave.wav,None,729.021071,4270,406217.6247,398517.9373,399284.5859,400051.2558,400818.163,401567.7706,402334.4324,403101.0769,406984.2327,407750.8118,408517.4466,409284.0891,410050.7409,410800.7047,396984.6918,397751.3012,410055.7591
Mixed,Female,cave,21,M_cad.wav,None,743.2112813,4270,406217.6247,398517.9373,399284.5859,400051.2558,400818.163,401567.7706,402334.4324,403101.0769,406984.2327,407750.8118,408517.4466,409284.0891,410050.7409,410800.7047,411567.3767,397751.3012,410805.7545
Mixed,Female,cave,21,F_cave.wav,None,740.7222014,4270,406217.6247,398517.9373,399284.5859,400051.2558,400818.163,401567.7706,402334.4324,403101.0769,406984.2327,407750.8118,408517.4466,409284.0891,410050.7409,410800.7047,411567.3767,412333.9651,411572.5626
Mixed,Female,cave,21,F_cling.wav,None,738.395008,4270,406217.6247,413100.6108,399284.5859,400051.2558,400818.163,401567.7706,402334.4324,403101.0769,406984.2327,407750.8118,408517.4466,409284.0891,410050.7409,410800.7047,411567.3767,412333.9651,412339.1244
Mixed,Female,cave,21,F_greet.wav,None,736.0920685,4270,406217.6247,413100.6108,413867.2103,400051.2558,400818.163,401567.7706,402334.4324,403101.0769,406984.2327,407750.8118,408517.4466,409284.0891,410050.7409,410800.7047,411567.3767,412333.9651,413105.7663
Mixed,Female,cave,21,M_cling.wav,None,733.7488034,4270,406217.6247,413100.6108,413867.2103,414633.8499,400818.163,401567.7706,402334.4324,403101.0769,406984.2327,407750.8118,408517.4466,409284.0891,410050.7409,410800.7047,411567.3767,412333.9651,413872.4246
Mixed,Female,cave,21,F_cave.wav,None,732.1541909,4270,406217.6247,413100.6108,413867.2103,414633.8499,415400.4669,401567.7706,402334.4324,403101.0769,406984.2327,407750.8118,408517.4466,409284.0891,410050.7409,410800.7047,411567.3767,412333.9651,414638.9011
Mixed,Female,cave,21,M_priest.wav,None,729.7384567,4270,406217.6247,413100.6108,413867.2103,414633.8499,415400.4669,416167.2976,402334.4324,403101.0769,406984.2327,407750.8118,408517.4466,409284.0891,410050.7409,410800.7047,411567.3767,412333.9651,415405.63
Mixed,Female,cave,21,F_cling.wav,None,727.3294434,4270,406217.6247,413100.6108,413867.2103,414633.8499,415400.4669,416167.2976,416917.1228,403101.0769,406984.2327,407750.8118,408517.4466,409284.0891,410050.7409,410800.7047,411567.3767,412333.9651,416172.2728
Mixed,Female,cave,21,F_jaw.wav,None,741.7364766,4270,406217.6247,413100.6108,413867.2103,414633.8499,415400.4669,416167.2976,416917.1228,417683.7215,406984.2327,407750.8118,408517.4466,409284.0891,410050.7409,410800.7047,411567.3767,412333.9651,416922.2702
Mixed,Female,done,48,F_priest.wav,None,739.3055473,4270,420800.1925,413100.6108,413867.2103,414633.8499,415400.4669,416167.2976,416917.1228,417683.7215,406984.2327,407750.8118,408517.4466,409284.0891,410050.7409,410800.7047,411567.3767,412333.9651,417688.9869
Mixed,Female,done,48,F_done.wav,None,740.4367082,4270,420800.1925,413100.6108,413867.2103,414633.8499,415400.4669,416167.2976,416917.1228,417683.7215,421566.837,407750.8118,408517.4466,409284.0891,410050.7409,410800.7047,411567.3767,412333.9651,420805.3725
Mixed,Female,done,48,M_knife.wav,None,738.274908,4270,420800.1925,413100.6108,413867.2103,414633.8499,415400.4669,416167.2976,416917.1228,417683.7215,421566.837,422333.5785,408517.4466,409284.0891,410050.7409,410800.7047,411567.3767,412333.9651,421571.8797
Mixed,Female,done,48,F_done.wav,None,736.3462948,4270,420800.1925,413100.6108,413867.2103,414633.8499,415400.4669,416167.2976,416917.1228,417683.7215,421566.837,422333.5785,423100.1254,409284.0891,410050.7409,410800.7047,411567.3767,412333.9651,422338.4816
Mixed,Female,done,48,M_priest.wav,None,733.8899428,4270,420800.1925,413100.6108,413867.2103,414633.8499,415400.4669,416167.2976,416917.1228,417683.7215,421566.837,422333.5785,423100.1254,423866.7547,410050.7409,410800.7047,411567.3767,412333.9651,423105.3046
Mixed,Female,done,48,M_greet.wav,None,731.9680505,4270,420800.1925,413100.6108,413867.2103,414633.8499,415400.4669,416167.2976,416917.1228,417683.7215,421566.837,422333.5785,423100.1254,423866.7547,424633.4279,410800.7047,411567.3767,412333.9651,423871.7785
Mixed,Female,done,48,F_jaw.wav,None,729.6125124,4270,420800.1925,413100.6108,413867.2103,414633.8499,415400.4669,416167.2976,416917.1228,417683.7215,421566.837,422333.5785,423100.1254,423866.7547,424633.4279,425400.312,411567.3767,412333.9651,424638.4876
Mixed,Female,done,48,F_knife.wav,None,726.6903711,4270,420800.1925,413100.6108,413867.2103,414633.8499,415400.4669,416167.2976,416917.1228,417683.7215,421566.837,422333.5785,423100.1254,423866.7547,424633.4279,425400.312,426150.0189,412333.9651,425405.8349
Mixed,Female,done,48,M_bluff.wav,None,741.5266669,4270,420800.1925,413100.6108,413867.2103,414633.8499,415400.4669,416167.2976,416917.1228,417683.7215,421566.837,422333.5785,423100.1254,423866.7547,424633.4279,425400.312,426150.0189,426916.5977,426155.4383
Mixed,Female,done,48,F_done.wav,None,739.5454551,4270,420800.1925,427683.2364,413867.2103,414633.8499,415400.4669,416167.2976,416917.1228,417683.7215,421566.837,422333.5785,423100.1254,423866.7547,424633.4279,425400.312,426150.0189,426916.5977,426921.8695
Mixed,Female,done,48,F_greet.wav,None,737.4257338,4270,420800.1925,427683.2364,428449.8499,414633.8499,415400.4669,416167.2976,416917.1228,417683.7215,421566.837,422333.5785,423100.1254,423866.7547,424633.4279,425400.312,426150.0189,426916.5977,427688.2417
Mixed,Female,done,48,M_cad.wav,None,735.11432,4270,420800.1925,427683.2364,428449.8499,429216.4623,415400.4669,416167.2976,416917.1228,417683.7215,421566.837,422333.5785,423100.1254,423866.7547,424633.4279,425400.312,426150.0189,426916.5977,428454.9225
Mixed,Female,done,48,F_done.wav,None,732.8552126,4270,420800.1925,427683.2364,428449.8499,429216.4623,429983.1112,416167.2976,416917.1228,417683.7215,421566.837,422333.5785,423100.1254,423866.7547,424633.4279,425400.312,426150.0189,426916.5977,429221.8913
Mixed,Female,done,48,M_jolt.wav,None,730.8801373,4270,420800.1925,427683.2364,428449.8499,429216.4623,429983.1112,430750.1227,416917.1228,417683.7215,421566.837,422333.5785,423100.1254,423866.7547,424633.4279,425400.312,426150.0189,426916.5977,429988.267
Mixed,Female,done,48,M_knife.wav,None,727.8028303,4270,420800.1925,427683.2364,428449.8499,429216.4623,429983.1112,430750.1227,431499.794,417683.7215,421566.837,422333.5785,423100.1254,423866.7547,424633.4279,425400.312,426150.0189,426916.5977,430755.7438
Mixed,Female,done,48,M_greet.wav,None,743.0955645,4270,420800.1925,427683.2364,428449.8499,429216.4623,429983.1112,430750.1227,431499.794,432266.3573,421566.837,422333.5785,423100.1254,423866.7547,424633.4279,425400.312,426150.0189,426916.5977,431504.7175
Mixed,Female,done,43,F_priest.wav,None,740.6961943,4270,435366.2337,427683.2364,428449.8499,429216.4623,429983.1112,430750.1227,431499.794,432266.3573,421566.837,422333.5785,423100.1254,423866.7547,424633.4279,425400.312,426150.0189,426916.5977,432271.4427
Mixed,Female,done,43,M_dime.wav,None,740.272776,4270,435366.2337,427683.2364,428449.8499,429216.4623,429983.1112,430750.1227,431499.794,432266.3573,436132.8417,422333.5785,423100.1254,423866.7547,424633.4279,425400.312,426150.0189,426916.5977,435371.3773
Mixed,Female,done,43,M_knife.wav,None,738.2620506,4270,435366.2337,427683.2364,428449.8499,429216.4623,429983.1112,430750.1227,431499.794,432266.3573,436132.8417,436899.4354,423100.1254,423866.7547,424633.4279,425400.312,426150.0189,426916.5977,436138.0294
Mixed,Female,done,43,M_dime.wav,None,736.2472342,4270,435366.2337,427683.2364,428449.8499,429216.4623,429983.1112,430750.1227,431499.794,432266.3573,436132.8417,436899.4354,437666.089,423866.7547,424633.4279,425400.312,426150.0189,426916.5977,436904.4954
Mixed,Female,done,43,M_park.wav,None,733.8557538,4270,435366.2337,427683.2364,428449.8499,429216.4623,429983.1112,430750.1227,431499.794,432266.3573,436132.8417,436899.4354,437666.089,438432.7344,424633.4279,425400.312,426150.0189,426916.5977,437671.3938
Mixed,Female,done,43,F_done.wav,None,732.1197096,4270,435366.2337,427683.2364,428449.8499,429216.4623,429983.1112,430750.1227,431499.794,432266.3573,436132.8417,436899.4354,437666.089,438432.7344,439199.3491,425400.312,426150.0189,426916.5977,438437.6868
Mixed,Female,done,43,F_lash.wav,None,729.790763,4270,435366.2337,427683.2364,428449.8499,429216.4623,429983.1112,430750.1227,431499.794,432266.3573,436132.8417,436899.4354,437666.089,438432.7344,439199.3491,439966.4097,426150.0189,426916.5977,439204.5338
Mixed,Female,done,43,F_dime.wav,None,726.9551171,4270,435366.2337,427683.2364,428449.8499,429216.4623,429983.1112,430750.1227,431499.794,432266.3573,436132.8417,436899.4354,437666.089,438432.7344,439199.3491,439966.4097,440715.9705,426916.5977,439971.9612
Mixed,Female,done,43,M_bluff.wav,None,742.3787633,4270,435366.2337,427683.2364,428449.8499,429216.4623,429983.1112,430750.1227,431499.794,432266.3573,436132.8417,436899.4354,437666.089,438432.7344,439199.3491,439966.4097,440715.9705,441482.6016,440721.0129
Mixed,Female,done,43,M_romp.wav,None,739.9440352,4270,435366.2337,442249.2204,428449.8499,429216.4623,429983.1112,430750.1227,431499.794,432266.3573,436132.8417,436899.4354,437666.089,438432.7344,439199.3491,439966.4097,440715.9705,441482.6016,441487.9327
Mixed,Female,done,43,F_done.wav,None,738.033247,4270,435366.2337,442249.2204,443015.8506,429216.4623,429983.1112,430750.1227,431499.794,432266.3573,436132.8417,436899.4354,437666.089,438432.7344,439199.3491,439966.4097,440715.9705,441482.6016,442254.2608
Mixed,Female,done,43,F_reek.wav,None,735.8197249,4270,435366.2337,442249.2204,443015.8506,443782.4428,429983.1112,430750.1227,431499.794,432266.3573,436132.8417,436899.4354,437666.089,438432.7344,439199.3491,439966.4097,440715.9705,441482.6016,443020.9447
Mixed,Female,done,43,F_done.wav,None,733.3519766,4270,435366.2337,442249.2204,443015.8506,443782.4428,444549.0966,430750.1227,431499.794,432266.3573,436132.8417,436899.4354,437666.089,438432.7344,439199.3491,439966.4097,440715.9705,441482.6016,443787.9043
Mixed,Female,done,43,M_gnash.wav,None,731.6664855,4270,435366.2337,442249.2204,443015.8506,443782.4428,444549.0966,445315.7298,431499.794,432266.3573,436132.8417,436899.4354,437666.089,438432.7344,439199.3491,439966.4097,440715.9705,441482.6016,444554.1619
Mixed,Female,done,43,F_done.wav,None,729.6125124,4270,435366.2337,442249.2204,443015.8506,443782.4428,444549.0966,445315.7298,446082.6417,432266.3573,436132.8417,436899.4354,437666.089,438432.7344,439199.3491,439966.4097,440715.9705,441482.6016,445320.6556
Mixed,Female,done,43,M_romp.wav,None,726.2356859,4270,435366.2337,442249.2204,443015.8506,443782.4428,444549.0966,445315.7298,446082.6417,446832.3398,436132.8417,436899.4354,437666.089,438432.7344,439199.3491,439966.4097,440715.9705,441482.6016,446088.4918
Mixed,Female,ball,8,M_lash.wav,None,741.9191105,4270,449932.1575,442249.2204,443015.8506,443782.4428,444549.0966,445315.7298,446082.6417,446832.3398,436132.8417,436899.4354,437666.089,438432.7344,439199.3491,439966.4097,440715.9705,441482.6016,446837.5222
Mixed,Female,ball,8,F_ball.wav,None,740.152676,4270,449932.1575,442249.2204,443015.8506,443782.4428,444549.0966,445315.7298,446082.6417,446832.3398,450698.7985,436899.4354,437666.089,438432.7344,439199.3491,439966.4097,440715.9705,441482.6016,449937.4568
Mixed,Female,ball,8,M_greet.wav,None,738.4253983,4270,449932.1575,442249.2204,443015.8506,443782.4428,444549.0966,445315.7298,446082.6417,446832.3398,450698.7985,451465.4629,437666.089,438432.7344,439199.3491,439966.4097,440715.9705,441482.6016,450703.796
Mixed,Female,ball,8,F_lash.wav,None,736.2197661,4270,449932.1575,442249.2204,443015.8506,443782.4428,444549.0966,445315.7298,446082.6417,446832.3398,450698.7985,451465.4629,452232.1001,438432.7344,439199.3491,439966.4097,440715.9705,441482.6016,451470.496
Mixed,Female,ball,8,F_cad.wav,None,734.1307273,4270,449932.1575,442249.2204,443015.8506,443782.4428,444549.0966,445315.7298,446082.6417,446832.3398,450698.7985,451465.4629,452232.1001,452998.6733,439199.3491,439966.4097,440715.9705,441482.6016,452237.22
Mixed,Female,ball,8,F_ball.wav,None,732.0469483,4270,449932.1575,442249.2204,443015.8506,443782.4428,444549.0966,445315.7298,446082.6417,446832.3398,450698.7985,451465.4629,452232.1001,452998.6733,453765.3322,439966.4097,440715.9705,441482.6016,453003.8397
Mixed,Female,ball,8,M_cling.wav,None,730.191973,4270,449932.1575,442249.2204,443015.8506,443782.4428,444549.0966,445315.7298,446082.6417,446832.3398,450698.7985,451465.4629,452232.1001,452998.6733,453765.3322,454532.091,440715.9705,441482.6016,453770.3165
Mixed,Female,ball,8,M_jolt.wav,None,727.3496062,4270,449932.1575,442249.2204,443015.8506,443782.4428,444549.0966,445315.7298,446082.6417,446832.3398,450698.7985,451465.4629,452232.1001,452998.6733,453765.3322,454532.091,455281.9276,441482.6016,454537.8672
Mixed,Female,ball,8,M_jolt.wav,None,742.8965667,4270,449932.1575,442249.2204,443015.8506,443782.4428,444549.0966,445315.7298,446082.6417,446832.3398,450698.7985,451465.4629,452232.1001,452998.6733,453765.3322,454532.091,455281.9276,456048.6092,455286.9329
Mixed,Female,ball,8,F_ball.wav,None,740.3429074,4270,449932.1575,456815.2123,443015.8506,443782.4428,444549.0966,445315.7298,446082.6417,446832.3398,450698.7985,451465.4629,452232.1001,452998.6733,453765.3322,454532.091,455281.9276,456048.6092,456053.9901
Mixed,Female,ball,8,F_dime.wav,None,738.7135214,4270,449932.1575,456815.2123,457581.8547,443782.4428,444549.0966,445315.7298,446082.6417,446832.3398,450698.7985,451465.4629,452232.1001,452998.6733,453765.3322,454532.091,455281.9276,456048.6092,456820.3085
Mixed,Female,ball,8,M_greet.wav,None,736.7659143,4270,449932.1575,456815.2123,457581.8547,458348.435,444549.0966,445315.7298,446082.6417,446832.3398,450698.7985,451465.4629,452232.1001,452998.6733,453765.3322,454532.091,455281.9276,456048.6092,457586.6874
Mixed,Female,ball,8,M_cling.wav,None,738.5791029,4270,449932.1575,456815.2123,457581.8547,458348.435,459115.0839,445315.7298,446082.6417,446832.3398,450698.7985,451465.4629,452232.1001,452998.6733,453765.3322,454532.091,455281.9276,456048.6092,458349.8388
Mixed,Female,ball,8,F_ball.wav,None,732.7240084,4270,449932.1575,456815.2123,457581.8547,458348.435,459115.0839,459881.6802,446082.6417,446832.3398,450698.7985,451465.4629,452232.1001,452998.6733,453765.3322,454532.091,455281.9276,456048.6092,459120.2905
Mixed,Female,ball,8,M_park.wav,None,731.1241361,4270,449932.1575,456815.2123,457581.8547,458348.435,459115.0839,459881.6802,460648.353,446832.3398,450698.7985,451465.4629,452232.1001,452998.6733,453765.3322,454532.091,455281.9276,456048.6092,459886.7068
Mixed,Female,ball,8,F_cling.wav,None,729.029253,4270,449932.1575,456815.2123,457581.8547,458348.435,459115.0839,459881.6802,460648.353,461415.4917,450698.7985,451465.4629,452232.1001,452998.6733,453765.3322,454532.091,455281.9276,456048.6092,460653.3519
Mixed,Male,done,40,M_greet.wav,None,726.1567881,4270,468364.6485,456815.2123,457581.8547,458348.435,459115.0839,459881.6802,460648.353,461415.4917,450698.7985,451465.4629,452232.1001,452998.6733,453765.3322,454532.091,455281.9276,456048.6092,461421.1636
Mixed,Male,done,40,M_done.wav,None,740.3510894,4270,468364.6485,456815.2123,457581.8547,458348.435,459115.0839,459881.6802,460648.353,461415.4917,469131.238,451465.4629,452232.1001,452998.6733,453765.3322,454532.091,455281.9276,456048.6092,468369.764
Mixed,Male,done,40,F_gnash.wav,None,738.6580008,4270,468364.6485,456815.2123,457581.8547,458348.435,459115.0839,459881.6802,460648.353,461415.4917,469131.238,469897.9018,452232.1001,452998.6733,453765.3322,454532.091,455281.9276,456048.6092,469136.3649
Mixed,Male,done,40,F_lash.wav,None,736.6186384,4270,468364.6485,456815.2123,457581.8547,458348.435,459115.0839,459881.6802,460648.353,461415.4917,469131.238,469897.9018,470664.5461,452998.6733,453765.3322,454532.091,455281.9276,456048.6092,469903.3166
Mixed,Male,done,40,F_gnash.wav,None,734.8197682,4270,468364.6485,456815.2123,457581.8547,458348.435,459115.0839,459881.6802,460648.353,461415.4917,469131.238,469897.9018,470664.5461,471431.2023,453765.3322,454532.091,455281.9276,456048.6092,470669.7241
Mixed,Male,done,40,F_park.wav,None,733.0638535,4270,468364.6485,456815.2123,457581.8547,458348.435,459115.0839,459881.6802,460648.353,461415.4917,469131.238,469897.9018,470664.5461,471431.2023,472197.8041,454532.091,455281.9276,456048.6092,471436.2587
Mixed,Male,done,40,M_done.wav,None,730.9748147,4270,468364.6485,456815.2123,457581.8547,458348.435,459115.0839,459881.6802,460648.353,461415.4917,469131.238,469897.9018,470664.5461,471431.2023,472197.8041,472964.5036,455281.9276,456048.6092,472202.8524
Mixed,Male,done,40,M_gnash.wav,None,729.1265603,4270,468364.6485,456815.2123,457581.8547,458348.435,459115.0839,459881.6802,460648.353,461415.4917,469131.238,469897.9018,470664.5461,471431.2023,472197.8041,472964.5036,473731.4599,456048.6092,472969.4803
