"Condition","Talker","Target","Trial","current_stimulus","response_response","response_time_response","subject_nr","time_Audio1","time_Audio10","time_Audio11","time_Audio12","time_Audio13","time_Audio14","time_Audio15","time_Audio16","time_Audio2","time_Audio3","time_Audio4","time_Audio5","time_Audio6","time_Audio7","time_Audio8","time_Audio9","time_response","title"
"Mixed","both","tile","30","F_bluff.wav","NA","NA","323","173022.527905","NA","NA","NA","NA","NA","NA","NA","NA","NA","NA","NA","NA","NA","NA","NA","NA","Mapping"
"Mixed","both","tile","30","M_cling.wav","None","717.876672279","323","173022.527905","NA","NA","NA","NA","NA","NA","NA","173789.310832","NA","NA","NA","NA","NA","NA","NA","173036.576736","Mapping"
"Mixed","both","tile","30","F_gnash.wav","None","719.619173091","323","173022.527905","NA","NA","NA","NA","NA","NA","NA","173789.310832","174555.626597","NA","NA","NA","NA","NA","NA","173800.488679","Mapping"
"Mixed","both","tile","30","F_tile.wav","None","719.995127525","323","173022.527905","NA","NA","NA","NA","NA","NA","NA","173789.310832","174555.626597","175321.874344","NA","NA","NA","NA","NA","174566.422616","Mapping"
"Mixed","both","tile","30","F_cling.wav","space","424.058559816","323","173022.527905","NA","NA","NA","NA","NA","NA","NA","173789.310832","174555.626597","175321.874344","176071.795892","NA","NA","NA","NA","175331.503853","Mapping"
"Mixed","both","tile","30","M_priest.wav","None","735.94599124","323","173022.527905","NA","NA","NA","NA","NA","NA","NA","173789.310832","174555.626597","175321.874344","176071.795892","176838.811934","NA","NA","NA","176081.826707","Mapping"
"Mixed","both","tile","30","F_dime.wav","None","734.885527287","323","173022.527905","NA","NA","NA","NA","NA","NA","NA","173789.310832","174555.626597","175321.874344","176071.795892","176838.811934","177605.242712","NA","NA","176848.531721","Mapping"
"Mixed","both","tile","30","F_knife.wav","None","733.677896671","323","173022.527905","NA","NA","NA","NA","NA","NA","NA","173789.310832","174555.626597","175321.874344","176071.795892","176838.811934","177605.242712","178371.747382","NA","177615.535088","Mapping"
"Mixed","both","tile","30","M_gnash.wav","None","734.055397101","323","173022.527905","NA","NA","NA","NA","NA","NA","NA","173789.310832","174555.626597","175321.874344","176071.795892","176838.811934","177605.242712","178371.747382","179138.82495","178381.536115","Mapping"
"Mixed","both","tile","30","F_tile.wav","None","732.715749182","323","173022.527905","179905.363939","NA","NA","NA","NA","NA","NA","173789.310832","174555.626597","175321.874344","176071.795892","176838.811934","177605.242712","178371.747382","179138.82495","179148.689431","Mapping"
"Mixed","both","tile","30","M_bluff.wav","None","731.527906377","323","173022.527905","179905.363939","180671.745867","NA","NA","NA","NA","NA","173789.310832","174555.626597","175321.874344","176071.795892","176838.811934","177605.242712","178371.747382","179138.82495","179915.476376","Mapping"
"Mixed","both","tile","30","M_tile.wav","space","122.702495195","323","173022.527905","179905.363939","180671.745867","181439.345938","NA","NA","NA","NA","173789.310832","174555.626597","175321.874344","176071.795892","176838.811934","177605.242712","178371.747382","179138.82495","180680.819173","Mapping"
"Mixed","both","tile","30","M_knife.wav","space","722.790053114","323","173022.527905","179905.363939","180671.745867","181439.345938","182205.726939","NA","NA","NA","173789.310832","174555.626597","175321.874344","176071.795892","176838.811934","177605.242712","178371.747382","179138.82495","181448.663182","Mapping"
"Mixed","both","tile","30","F_jolt.wav","None","731.780809816","323","173022.527905","179905.363939","180671.745867","181439.345938","182205.726939","182972.374756","NA","NA","173789.310832","174555.626597","175321.874344","176071.795892","176838.811934","177605.242712","178371.747382","179138.82495","182215.692828","Mapping"
"Mixed","both","tile","30","M_tile.wav","None","730.482282117","323","173022.527905","179905.363939","180671.745867","181439.345938","182205.726939","182972.374756","183738.710927","NA","173789.310832","174555.626597","175321.874344","176071.795892","176838.811934","177605.242712","178371.747382","179138.82495","182982.895921","Mapping"
"Mixed","both","tile","30","M_priest.wav","space","431.202315725","323","173022.527905","179905.363939","180671.745867","181439.345938","182205.726939","182972.374756","183738.710927","184505.088527","173789.310832","174555.626597","175321.874344","176071.795892","176838.811934","177605.242712","178371.747382","179138.82495","183748.20038","Mapping"
"Mixed","both","ball","2","M_jolt.wav","None","730.516291223","323","187655.911562","179905.363939","180671.745867","181439.345938","182205.726939","182972.374756","183738.710927","184505.088527","173789.310832","174555.626597","175321.874344","176071.795892","176838.811934","177605.242712","178371.747382","179138.82495","184514.23047","Mapping"
"Mixed","both","ball","2","F_ball.wav","None","722.492319066","323","187655.911562","179905.363939","180671.745867","181439.345938","182205.726939","182972.374756","183738.710927","184505.088527","188422.639455","174555.626597","175321.874344","176071.795892","176838.811934","177605.242712","178371.747382","179138.82495","187665.741106","Mapping"
"Mixed","both","ball","2","M_romp.wav","space","506.207734346","323","187655.911562","179905.363939","180671.745867","181439.345938","182205.726939","182972.374756","183738.710927","184505.088527","188422.639455","189189.482979","175321.874344","176071.795892","176838.811934","177605.242712","178371.747382","179138.82495","188433.078997","Mapping"
"Mixed","both","ball","2","M_ball.wav","None","719.314637128","323","187655.911562","179905.363939","180671.745867","181439.345938","182205.726939","182972.374756","183738.710927","184505.088527","188422.639455","189189.482979","189956.512316","176071.795892","176838.811934","177605.242712","178371.747382","179138.82495","189200.164913","Mapping"
"Mixed","both","ball","2","M_jaw.wav","space","452.996244188","323","187655.911562","179905.363939","180671.745867","181439.345938","182205.726939","182972.374756","183738.710927","184505.088527","188422.639455","189189.482979","189956.512316","190722.696374","176838.811934","177605.242712","178371.747382","179138.82495","189966.280953","Mapping"
"Mixed","both","ball","2","F_knife.wav","None","718.171624001","323","187655.911562","179905.363939","180671.745867","181439.345938","182205.726939","182972.374756","183738.710927","184505.088527","188422.639455","189189.482979","189956.512316","190722.696374","191471.921663","177605.242712","178371.747382","179138.82495","190733.038217","Mapping"
"Mixed","both","ball","2","F_ball.wav","None","735.446676146","323","187655.911562","179905.363939","180671.745867","181439.345938","182205.726939","182972.374756","183738.710927","184505.088527","188422.639455","189189.482979","189956.512316","190722.696374","191471.921663","192238.473637","178371.747382","179138.82495","191481.685353","Mapping"
"Mixed","both","ball","2","F_romp.wav","space","475.028853863","323","187655.911562","179905.363939","180671.745867","181439.345938","182205.726939","182972.374756","183738.710927","184505.088527","188422.639455","189189.482979","189956.512316","190722.696374","191471.921663","192238.473637","193005.264292","179138.82495","192248.192496","Mapping"
"Mixed","both","ball","2","F_dime.wav","None","733.58978238","323","187655.911562","179905.363939","180671.745867","181439.345938","182205.726939","182972.374756","183738.710927","184505.088527","188422.639455","189189.482979","189956.512316","190722.696374","191471.921663","192238.473637","193005.264292","193772.195312","193014.884216","Mapping"
"Mixed","both","ball","2","F_cling.wav","None","732.457589824","323","187655.911562","194538.870955","180671.745867","181439.345938","182205.726939","182972.374756","183738.710927","184505.088527","188422.639455","189189.482979","189956.512316","190722.696374","191471.921663","192238.473637","193005.264292","193772.195312","193781.691567","Mapping"
"Mixed","both","ball","2","M_cling.wav","None","731.424333062","323","187655.911562","194538.870955","195305.294622","181439.345938","182205.726939","182972.374756","183738.710927","184505.088527","188422.639455","189189.482979","189956.512316","190722.696374","191471.921663","192238.473637","193005.264292","193772.195312","194548.579612","Mapping"
"Mixed","both","ball","2","M_greet.wav","None","730.254112743","323","187655.911562","194538.870955","195305.294622","196071.75539","182205.726939","182972.374756","183738.710927","184505.088527","188422.639455","189189.482979","189956.512316","190722.696374","191471.921663","192238.473637","193005.264292","193772.195312","195315.466111","Mapping"
"Mixed","both","ball","2","F_priest.wav","None","730.312546715","323","187655.911562","194538.870955","195305.294622","196071.75539","196838.46597","182972.374756","183738.710927","184505.088527","188422.639455","189189.482979","189956.512316","190722.696374","191471.921663","192238.473637","193005.264292","193772.195312","196081.444568","Mapping"
"Mixed","both","ball","2","M_ball.wav","None","729.49200077","323","187655.911562","194538.870955","195305.294622","196071.75539","196838.46597","197605.126463","183738.710927","184505.088527","188422.639455","189189.482979","189956.512316","190722.696374","191471.921663","192238.473637","193005.264292","193772.195312","196847.937181","Mapping"
"Mixed","both","ball","2","M_greet.wav","space","412.674802821","323","187655.911562","194538.870955","195305.294622","196071.75539","196838.46597","197605.126463","198371.633916","184505.088527","188422.639455","189189.482979","189956.512316","190722.696374","191471.921663","192238.473637","193005.264292","193772.195312","197614.449271","Mapping"
"Mixed","both","ball","2","F_romp.wav","None","728.495844174","323","187655.911562","194538.870955","195305.294622","196071.75539","196838.46597","197605.126463","198371.633916","199138.438175","188422.639455","189189.482979","189956.512316","190722.696374","191471.921663","192238.473637","193005.264292","193772.195312","198381.008666","Mapping"
"Mixed","both","done","41","F_priest.wav","None","727.515147533","323","202272.511751","194538.870955","195305.294622","196071.75539","196838.46597","197605.126463","198371.633916","199138.438175","188422.639455","189189.482979","189956.512316","190722.696374","191471.921663","192238.473637","193005.264292","193772.195312","199147.88929","Mapping"
"Mixed","both","done","41","F_dime.wav","None","721.480395179","323","202272.511751","194538.870955","195305.294622","196071.75539","196838.46597","197605.126463","198371.633916","199138.438175","203038.990141","189189.482979","189956.512316","190722.696374","191471.921663","192238.473637","193005.264292","193772.195312","202283.107117","Mapping"
"Mixed","both","done","41","M_romp.wav","space","586.441889405","323","202272.511751","194538.870955","195305.294622","196071.75539","196838.46597","197605.126463","198371.633916","199138.438175","203038.990141","203805.6899","189956.512316","190722.696374","191471.921663","192238.473637","193005.264292","193772.195312","203048.591206","Mapping"
"Mixed","both","done","41","M_done.wav","None","720.053251833","323","202272.511751","194538.870955","195305.294622","196071.75539","196838.46597","197605.126463","198371.633916","199138.438175","203038.990141","203805.6899","204572.240328","190722.696374","191471.921663","192238.473637","193005.264292","193772.195312","203815.936828","Mapping"
"Mixed","both","done","41","M_dime.wav","None","725.64526787","323","202272.511751","194538.870955","195305.294622","196071.75539","196838.46597","197605.126463","198371.633916","199138.438175","203038.990141","203805.6899","204572.240328","205338.365952","191471.921663","192238.473637","193005.264292","193772.195312","204576.45745","Mapping"
"Mixed","both","done","41","F_done.wav","space","199.061164632","323","202272.511751","194538.870955","195305.294622","196071.75539","196838.46597","197605.126463","198371.633916","199138.438175","203038.990141","203805.6899","204572.240328","205338.365952","206088.842156","192238.473637","193005.264292","193772.195312","205347.933007","Mapping"
"Mixed","both","done","41","F_gnash.wav","None","735.190681182","323","202272.511751","194538.870955","195305.294622","196071.75539","196838.46597","197605.126463","198371.633916","199138.438175","203038.990141","203805.6899","204572.240328","205338.365952","206088.842156","206854.937172","193005.264292","193772.195312","206098.429307","Mapping"
"Mixed","both","done","41","F_jolt.wav","space","98.4608433209","323","202272.511751","194538.870955","195305.294622","196071.75539","196838.46597","197605.126463","198371.633916","199138.438175","203038.990141","203805.6899","204572.240328","205338.365952","206088.842156","206854.937172","207621.719788","193772.195312","206864.508555","Mapping"
"Mixed","both","done","41","M_done.wav","None","733.736330178","323","202272.511751","194538.870955","195305.294622","196071.75539","196838.46597","197605.126463","198371.633916","199138.438175","203038.990141","203805.6899","204572.240328","205338.365952","206088.842156","206854.937172","207621.719788","208388.436242","207631.470493","Mapping"
"Mixed","both","done","41","M_reek.wav","space","548.8278782","323","202272.511751","209155.149295","195305.294622","196071.75539","196838.46597","197605.126463","198371.633916","199138.438175","203038.990141","203805.6899","204572.240328","205338.365952","206088.842156","206854.937172","207621.719788","208388.436242","208398.09605","Mapping"
"Mixed","both","done","41","M_reek.wav","None","731.326016132","323","202272.511751","209155.149295","209921.811335","196071.75539","196838.46597","197605.126463","198371.633916","199138.438175","203038.990141","203805.6899","204572.240328","205338.365952","206088.842156","206854.937172","207621.719788","208388.436242","209165.069736","Mapping"
"Mixed","both","done","41","M_park.wav","None","731.319832616","323","202272.511751","209155.149295","209921.811335","210688.523151","196838.46597","197605.126463","198371.633916","199138.438175","203038.990141","203805.6899","204572.240328","205338.365952","206088.842156","206854.937172","207621.719788","208388.436242","209931.225658","Mapping"
"Mixed","both","done","41","M_priest.wav","None","730.114057194","323","202272.511751","209155.149295","209921.811335","210688.523151","211455.130158","197605.126463","198371.633916","199138.438175","203038.990141","203805.6899","204572.240328","205338.365952","206088.842156","206854.937172","207621.719788","208388.436242","210698.225006","Mapping"
"Mixed","both","done","41","F_cad.wav","None","729.276506696","323","202272.511751","209155.149295","209921.811335","210688.523151","211455.130158","212221.819404","198371.633916","199138.438175","203038.990141","203805.6899","204572.240328","205338.365952","206088.842156","206854.937172","207621.719788","208388.436242","211464.893847","Mapping"
"Mixed","both","done","41","F_done.wav","None","728.610547725","323","202272.511751","209155.149295","209921.811335","210688.523151","211455.130158","212221.819404","212988.477424","199138.438175","203038.990141","203805.6899","204572.240328","205338.365952","206088.842156","206854.937172","207621.719788","208388.436242","212231.443966","Mapping"
"Mixed","both","done","41","F_cling.wav","space","484.798108228","323","202272.511751","209155.149295","209921.811335","210688.523151","211455.130158","212221.819404","212988.477424","213755.080721","203038.990141","203805.6899","204572.240328","205338.365952","206088.842156","206854.937172","207621.719788","208388.436242","212998.052518","Mapping"
"Mixed","both","ball","11","F_park.wav","None","726.427166723","323","216888.800912","209155.149295","209921.811335","210688.523151","211455.130158","212221.819404","212988.477424","213755.080721","203038.990141","203805.6899","204572.240328","205338.365952","206088.842156","206854.937172","207621.719788","208388.436242","213764.773919","Mapping"
"Mixed","both","ball","11","F_priest.wav","None","721.084962599","323","216888.800912","209155.149295","209921.811335","210688.523151","211455.130158","212221.819404","212988.477424","213755.080721","217654.710424","203805.6899","204572.240328","205338.365952","206088.842156","206854.937172","207621.719788","208388.436242","216899.261788","Mapping"
"Mixed","both","ball","11","F_ball.wav","None","722.455528099","323","216888.800912","209155.149295","209921.811335","210688.523151","211455.130158","212221.819404","212988.477424","213755.080721","217654.710424","218422.015234","204572.240328","205338.365952","206088.842156","206854.937172","207621.719788","208388.436242","217663.835052","Mapping"
"Mixed","both","ball","11","M_cad.wav","space","506.333876867","323","216888.800912","209155.149295","209921.811335","210688.523151","211455.130158","212221.819404","212988.477424","213755.080721","217654.710424","218422.015234","219188.726432","205338.365952","206088.842156","206854.937172","207621.719788","208388.436242","218432.417676","Mapping"
"Mixed","both","ball","11","M_jaw.wav","None","720.109831076","323","216888.800912","209155.149295","209921.811335","210688.523151","211455.130158","212221.819404","212988.477424","213755.080721","217654.710424","218422.015234","219188.726432","219955.508431","206088.842156","206854.937172","207621.719788","208388.436242","219198.888646","Mapping"
"Mixed","both","ball","11","F_ball.wav","None","719.106563367","323","216888.800912","209155.149295","209921.811335","210688.523151","211455.130158","212221.819404","212988.477424","213755.080721","217654.710424","218422.015234","219188.726432","219955.508431","220722.085757","206854.937172","207621.719788","208388.436242","219965.806372","Mapping"
"Mixed","both","ball","11","M_reek.wav","space","541.629398707","323","216888.800912","209155.149295","209921.811335","210688.523151","211455.130158","212221.819404","212988.477424","213755.080721","217654.710424","218422.015234","219188.726432","219955.508431","220722.085757","221471.314447","207621.719788","208388.436242","220733.075627","Mapping"
"Mixed","both","ball","11","M_dime.wav","None","735.233656131","323","216888.800912","209155.149295","209921.811335","210688.523151","211455.130158","212221.819404","212988.477424","213755.080721","217654.710424","218422.015234","219188.726432","219955.508431","220722.085757","221471.314447","222238.226607","208388.436242","221481.125131","Mapping"
"Mixed","both","ball","11","M_ball.wav","None","734.305518214","323","216888.800912","209155.149295","209921.811335","210688.523151","211455.130158","212221.819404","212988.477424","213755.080721","217654.710424","218422.015234","219188.726432","219955.508431","220722.085757","221471.314447","222238.226607","223004.612864","222247.971437","Mapping"
"Mixed","both","ball","11","M_greet.wav","space","532.25619439","323","216888.800912","223771.647767","209921.811335","210688.523151","211455.130158","212221.819404","212988.477424","213755.080721","217654.710424","218422.015234","219188.726432","219955.508431","220722.085757","221471.314447","222238.226607","223004.612864","223014.424785","Mapping"
"Mixed","both","ball","11","F_cad.wav","None","732.486343011","323","216888.800912","223771.647767","224538.270232","210688.523151","211455.130158","212221.819404","212988.477424","213755.080721","217654.710424","218422.015234","219188.726432","219955.508431","220722.085757","221471.314447","222238.226607","223004.612864","223781.412693","Mapping"
"Mixed","both","ball","11","M_ball.wav","None","731.562533882","323","216888.800912","223771.647767","224538.270232","225304.661745","211455.130158","212221.819404","212988.477424","213755.080721","217654.710424","218422.015234","219188.726432","219955.508431","220722.085757","221471.314447","222238.226607","223004.612864","224548.581158","Mapping"
"Mixed","both","ball","11","F_jolt.wav","space","520.438048989","323","216888.800912","223771.647767","224538.270232","225304.661745","226071.192694","212221.819404","212988.477424","213755.080721","217654.710424","218422.015234","219188.726432","219955.508431","220722.085757","221471.314447","222238.226607","223004.612864","225314.202521","Mapping"
"Mixed","both","ball","11","M_priest.wav","None","731.233263854","323","216888.800912","223771.647767","224538.270232","225304.661745","226071.192694","226837.936665","212988.477424","213755.080721","217654.710424","218422.015234","219188.726432","219955.508431","220722.085757","221471.314447","222238.226607","223004.612864","226080.58785","Mapping"
"Mixed","both","ball","11","F_reek.wav","None","730.482282583","323","216888.800912","223771.647767","224538.270232","225304.661745","226071.192694","226837.936665","227604.426804","213755.080721","217654.710424","218422.015234","219188.726432","219955.508431","220722.085757","221471.314447","222238.226607","223004.612864","226847.303376","Mapping"
"Mixed","both","ball","11","F_jaw.wav","None","730.314710643","323","216888.800912","223771.647767","224538.270232","225304.661745","226071.192694","226837.936665","227604.426804","228371.091316","217654.710424","218422.015234","219188.726432","219955.508431","220722.085757","221471.314447","222238.226607","223004.612864","227613.543703","Mapping"
"Mixed","both","ball","6","F_gnash.wav","None","729.79529947","323","231505.338648","223771.647767","224538.270232","225304.661745","226071.192694","226837.936665","227604.426804","228371.091316","217654.710424","218422.015234","219188.726432","219955.508431","220722.085757","221471.314447","222238.226607","223004.612864","228380.575205","Mapping"
"Mixed","both","ball","6","M_cling.wav","None","721.574075054","323","231505.338648","223771.647767","224538.270232","225304.661745","226071.192694","226837.936665","227604.426804","228371.091316","232271.254343","218422.015234","219188.726432","219955.508431","220722.085757","221471.314447","222238.226607","223004.612864","231515.48695","Mapping"
"Mixed","both","ball","6","F_ball.wav","None","722.517671529","323","231505.338648","223771.647767","224538.270232","225304.661745","226071.192694","226837.936665","227604.426804","228371.091316","232271.254343","233038.336859","219188.726432","219955.508431","220722.085757","221471.314447","222238.226607","223004.612864","232280.662175","Mapping"
"Mixed","both","ball","6","M_knife.wav","space","489.487956744","323","231505.338648","223771.647767","224538.270232","225304.661745","226071.192694","226837.936665","227604.426804","228371.091316","232271.254343","233038.336859","233805.119166","219955.508431","220722.085757","221471.314447","222238.226607","223004.612864","233049.026213","Mapping"
"Mixed","both","ball","6","M_reek.wav","None","719.206735492","323","231505.338648","223771.647767","224538.270232","225304.661745","226071.192694","226837.936665","227604.426804","228371.091316","232271.254343","233038.336859","233805.119166","234571.24479","220722.085757","221471.314447","222238.226607","223004.612864","233815.576641","Mapping"
"Mixed","both","ball","6","M_park.wav","None","725.900026504","323","231505.338648","223771.647767","224538.270232","225304.661745","226071.192694","226837.936665","227604.426804","228371.091316","232271.254343","233038.336859","233805.119166","234571.24479","235337.802638","221471.314447","222238.226607","223004.612864","234575.720381","Mapping"
"Mixed","both","ball","6","F_dime.wav","None","720.438790973","323","231505.338648","223771.647767","224538.270232","225304.661745","226071.192694","226837.936665","227604.426804","228371.091316","232271.254343","233038.336859","233805.119166","234571.24479","235337.802638","236087.990074","222238.226607","223004.612864","235347.353926","Mapping"
"Mixed","both","ball","6","F_ball.wav","None","736.022975296","323","231505.338648","223771.647767","224538.270232","225304.661745","226071.192694","226837.936665","227604.426804","228371.091316","232271.254343","233038.336859","233805.119166","234571.24479","235337.802638","236087.990074","236854.704364","223004.612864","236097.638752","Mapping"
"Mixed","both","ball","6","F_park.wav","space","569.403972942","323","231505.338648","223771.647767","224538.270232","225304.661745","226071.192694","226837.936665","227604.426804","228371.091316","232271.254343","233038.336859","233805.119166","234571.24479","235337.802638","236087.990074","236854.704364","237620.776501","236864.993957","Mapping"
"Mixed","both","ball","6","M_dime.wav","None","735.594152007","323","231505.338648","238387.851905","224538.270232","225304.661745","226071.192694","226837.936665","227604.426804","228371.091316","232271.254343","233038.336859","233805.119166","234571.24479","235337.802638","236087.990074","236854.704364","237620.776501","237630.172275","Mapping"
"Mixed","both","ball","6","F_depth.wav","None","734.025097918","323","231505.338648","238387.851905","239154.374816","225304.661745","226071.192694","226837.936665","227604.426804","228371.091316","232271.254343","233038.336859","233805.119166","234571.24479","235337.802638","236087.990074","236854.704364","237620.776501","238397.826451","Mapping"
"Mixed","both","ball","6","M_ball.wav","None","733.800638467","323","231505.338648","238387.851905","239154.374816","239921.326242","226071.192694","226837.936665","227604.426804","228371.091316","232271.254343","233038.336859","233805.119166","234571.24479","235337.802638","236087.990074","236854.704364","237620.776501","239164.136651","Mapping"
"Mixed","both","ball","6","F_jolt.wav","space","511.256841477","323","231505.338648","238387.851905","239154.374816","239921.326242","240687.894602","226837.936665","227604.426804","228371.091316","232271.254343","233038.336859","233805.119166","234571.24479","235337.802638","236087.990074","236854.704364","237620.776501","239931.128578","Mapping"
"Mixed","both","ball","6","M_cling.wav","None","732.240859885","323","231505.338648","238387.851905","239154.374816","239921.326242","240687.894602","241454.497898","227604.426804","228371.091316","232271.254343","233038.336859","233805.119166","234571.24479","235337.802638","236087.990074","236854.704364","237620.776501","240697.398586","Mapping"
"Mixed","both","ball","6","M_ball.wav","None","731.404236984","323","231505.338648","238387.851905","239154.374816","239921.326242","240687.894602","241454.497898","242221.235994","228371.091316","232271.254343","233038.336859","233805.119166","234571.24479","235337.802638","236087.990074","236854.704364","237620.776501","241464.272409","Mapping"
"Mixed","both","ball","6","F_dime.wav","space","515.503644943","323","231505.338648","238387.851905","239154.374816","239921.326242","240687.894602","241454.497898","242221.235994","242987.947192","232271.254343","233038.336859","233805.119166","234571.24479","235337.802638","236087.990074","236854.704364","237620.776501","242230.815107","Mapping"
"Mixed","both","ball","1","F_cad.wav","None","729.381007142","323","246121.599056","238387.851905","239154.374816","239921.326242","240687.894602","241454.497898","242221.235994","242987.947192","232271.254343","233038.336859","233805.119166","234571.24479","235337.802638","236087.990074","236854.704364","237620.776501","242998.007997","Mapping"
"Mixed","both","ball","1","F_cling.wav","None","721.916947979","323","246121.599056","238387.851905","239154.374816","239921.326242","240687.894602","241454.497898","242221.235994","242987.947192","246888.287684","233038.336859","233805.119166","234571.24479","235337.802638","236087.990074","236854.704364","237620.776501","246131.661716","Mapping"
"Mixed","both","ball","1","M_reek.wav","None","721.220999025","323","246121.599056","238387.851905","239154.374816","239921.326242","240687.894602","241454.497898","242221.235994","242987.947192","246888.287684","247654.503896","233805.119166","234571.24479","235337.802638","236087.990074","236854.704364","237620.776501","246898.581606","Mapping"
"Mixed","both","ball","1","F_gnash.wav","None","722.197059076","323","246121.599056","238387.851905","239154.374816","239921.326242","240687.894602","241454.497898","242221.235994","242987.947192","246888.287684","247654.503896","248421.550547","234571.24479","235337.802638","236087.990074","236854.704364","237620.776501","247664.066314","Mapping"
"Mixed","both","ball","1","F_cad.wav","None","720.702515449","323","246121.599056","238387.851905","239154.374816","239921.326242","240687.894602","241454.497898","242221.235994","242987.947192","246888.287684","247654.503896","248421.550547","249188.222171","235337.802638","236087.990074","236854.704364","237620.776501","248431.7579","Mapping"
"Mixed","both","ball","1","F_ball.wav","None","719.351429027","323","246121.599056","238387.851905","239154.374816","239921.326242","240687.894602","241454.497898","242221.235994","242987.947192","246888.287684","247654.503896","248421.550547","249188.222171","249954.903379","236087.990074","236854.704364","237620.776501","249199.239248","Mapping"
"Mixed","both","ball","1","M_cad.wav","space","604.948378634","323","246121.599056","238387.851905","239154.374816","239921.326242","240687.894602","241454.497898","242221.235994","242987.947192","246888.287684","247654.503896","248421.550547","249188.222171","249954.903379","250721.475758","236854.704364","237620.776501","249965.220798","Mapping"
"Mixed","both","ball","1","M_jolt.wav","None","718.302713241","323","246121.599056","238387.851905","239154.374816","239921.326242","240687.894602","241454.497898","242221.235994","242987.947192","246888.287684","247654.503896","248421.550547","249188.222171","249954.903379","250721.475758","251471.238081","237620.776501","250732.081945","Mapping"
"Mixed","both","ball","1","M_ball.wav","None","735.720294528","323","246121.599056","238387.851905","239154.374816","239921.326242","240687.894602","241454.497898","242221.235994","242987.947192","246888.287684","247654.503896","248421.550547","249188.222171","249954.903379","250721.475758","251471.238081","252237.886208","251480.879338","Mapping"
"Mixed","both","ball","1","M_dime.wav","space","578.139043413","323","246121.599056","253003.754599","239154.374816","239921.326242","240687.894602","241454.497898","242221.235994","242987.947192","246888.287684","247654.503896","248421.550547","249188.222171","249954.903379","250721.475758","251471.238081","252237.886208","252248.054605","Mapping"
"Mixed","both","ball","1","F_greet.wav","None","727.371381596","323","246121.599056","253003.754599","253770.777753","239921.326242","240687.894602","241454.497898","242221.235994","242987.947192","246888.287684","247654.503896","248421.550547","249188.222171","249954.903379","250721.475758","251471.238081","252237.886208","253021.111892","Mapping"
"Mixed","both","ball","1","M_ball.wav","None","734.358077403","323","246121.599056","253003.754599","253770.777753","254537.665489","240687.894602","241454.497898","242221.235994","242987.947192","246888.287684","247654.503896","248421.550547","249188.222171","249954.903379","250721.475758","251471.238081","252237.886208","253780.220521","Mapping"
"Mixed","both","ball","1","F_cling.wav","space","470.571812708","323","246121.599056","253003.754599","253770.777753","254537.665489","255304.124711","241454.497898","242221.235994","242987.947192","246888.287684","247654.503896","248421.550547","249188.222171","249954.903379","250721.475758","251471.238081","252237.886208","254547.551302","Mapping"
"Mixed","both","ball","1","M_priest.wav","None","732.474903576","323","246121.599056","253003.754599","253770.777753","254537.665489","255304.124711","256070.995442","242221.235994","242987.947192","246888.287684","247654.503896","248421.550547","249188.222171","249954.903379","250721.475758","251471.238081","252237.886208","255314.051335","Mapping"
"Mixed","both","ball","1","F_ball.wav","None","732.019182295","323","246121.599056","253003.754599","253770.777753","254537.665489","255304.124711","256070.995442","256837.245972","242987.947192","246888.287684","247654.503896","248421.550547","249188.222171","249954.903379","250721.475758","251471.238081","252237.886208","256080.752948","Mapping"
"Mixed","both","ball","1","M_cad.wav","space","515.495915432","323","246121.599056","253003.754599","253770.777753","254537.665489","255304.124711","256070.995442","256837.245972","257604.081457","246888.287684","247654.503896","248421.550547","249188.222171","249954.903379","250721.475758","251471.238081","252237.886208","256846.571254","Mapping"
"Mixed","both","done","42","F_depth.wav","None","730.755591299","323","260738.162454","253003.754599","253770.777753","254537.665489","255304.124711","256070.995442","256837.245972","257604.081457","246888.287684","247654.503896","248421.550547","249188.222171","249954.903379","250721.475758","251471.238081","252237.886208","257613.854731","Mapping"
"Mixed","both","done","42","F_done.wav","None","721.276959404","323","260738.162454","253003.754599","253770.777753","254537.665489","255304.124711","256070.995442","256837.245972","257604.081457","261504.017242","247654.503896","248421.550547","249188.222171","249954.903379","250721.475758","251471.238081","252237.886208","260748.429168","Mapping"
"Mixed","both","done","42","M_lash.wav","space","504.835932516","323","260738.162454","253003.754599","253770.777753","254537.665489","255304.124711","256070.995442","256837.245972","257604.081457","261504.017242","262270.717928","248421.550547","249188.222171","249954.903379","250721.475758","251471.238081","252237.886208","261513.139088","Mapping"
"Mixed","both","done","42","M_priest.wav","None","720.940269995","323","260738.162454","253003.754599","253770.777753","254537.665489","255304.124711","256070.995442","256837.245972","257604.081457","261504.017242","262270.717928","263038.037888","249188.222171","249954.903379","250721.475758","251471.238081","252237.886208","262280.385465","Mapping"
"Mixed","both","done","42","F_lash.wav","None","719.375544693","323","260738.162454","253003.754599","253770.777753","254537.665489","255304.124711","256070.995442","256837.245972","257604.081457","261504.017242","262270.717928","263038.037888","263804.009544","249954.903379","250721.475758","251471.238081","252237.886208","263048.424871","Mapping"
"Mixed","both","done","42","M_done.wav","None","720.479910728","323","260738.162454","253003.754599","253770.777753","254537.665489","255304.124711","256070.995442","256837.245972","257604.081457","261504.017242","262270.717928","263038.037888","263804.009544","264571.216037","250721.475758","251471.238081","252237.886208","263813.523731","Mapping"
"Mixed","both","done","42","M_cling.wav","space","580.017270055","323","260738.162454","253003.754599","253770.777753","254537.665489","255304.124711","256070.995442","256837.245972","257604.081457","261504.017242","262270.717928","263038.037888","263804.009544","264571.216037","265337.838193","251471.238081","252237.886208","264581.910957","Mapping"
"Mixed","both","done","42","F_jaw.wav","None","718.387117609","323","260738.162454","253003.754599","253770.777753","254537.665489","255304.124711","256070.995442","256837.245972","257604.081457","261504.017242","262270.717928","263038.037888","263804.009544","264571.216037","265337.838193","266087.530334","252237.886208","265347.905491","Mapping"
"Mixed","both","done","42","F_dime.wav","None","735.278795473","323","260738.162454","253003.754599","253770.777753","254537.665489","255304.124711","256070.995442","256837.245972","257604.081457","261504.017242","262270.717928","263038.037888","263804.009544","264571.216037","265337.838193","266087.530334","266853.941634","266097.370699","Mapping"
"Mixed","both","done","42","M_done.wav","None","735.117406584","323","260738.162454","267620.620987","253770.777753","254537.665489","255304.124711","256070.995442","256837.245972","257604.081457","261504.017242","262270.717928","263038.037888","263804.009544","264571.216037","265337.838193","266087.530334","266853.941634","266863.868567","Mapping"
"Mixed","both","done","42","M_bluff.wav","space","603.568229824","323","260738.162454","267620.620987","268387.425555","254537.665489","255304.124711","256070.995442","256837.245972","257604.081457","261504.017242","262270.717928","263038.037888","263804.009544","264571.216037","265337.838193","266087.530334","266853.941634","267630.313258","Mapping"
"Mixed","both","done","42","M_cad.wav","None","733.44045179","323","260738.162454","267620.620987","268387.425555","269154.078938","255304.124711","256070.995442","256837.245972","257604.081457","261504.017242","262270.717928","263038.037888","263804.009544","264571.216037","265337.838193","266087.530334","266853.941634","268397.307658","Mapping"
"Mixed","both","done","42","F_done.wav","None","733.329767827","323","260738.162454","267620.620987","268387.425555","269154.078938","269920.772513","256070.995442","256837.245972","257604.081457","261504.017242","262270.717928","263038.037888","263804.009544","264571.216037","265337.838193","266087.530334","266853.941634","269163.841391","Mapping"
"Mixed","both","done","42","M_park.wav","space","678.933834657","323","260738.162454","267620.620987","268387.425555","269154.078938","269920.772513","270687.446301","256837.245972","257604.081457","261504.017242","262270.717928","263038.037888","263804.009544","264571.216037","265337.838193","266087.530334","266853.941634","269930.913085","Mapping"
"Mixed","both","done","42","F_jolt.wav","None","731.805543415","323","260738.162454","267620.620987","268387.425555","269154.078938","269920.772513","270687.446301","271453.775669","257604.081457","261504.017242","262270.717928","263038.037888","263804.009544","264571.216037","265337.838193","266087.530334","266853.941634","270697.047675","Mapping"
"Mixed","both","done","42","F_lash.wav","None","732.22107254","323","260738.162454","267620.620987","268387.425555","269154.078938","269920.772513","270687.446301","271453.775669","272220.795113","261504.017242","262270.717928","263038.037888","263804.009544","264571.216037","265337.838193","266087.530334","266853.941634","271462.88855","Mapping"
"Mixed","both","tile","27","M_park.wav","None","730.955007952","323","275353.842853","267620.620987","268387.425555","269154.078938","269920.772513","270687.446301","271453.775669","272220.795113","261504.017242","262270.717928","263038.037888","263804.009544","264571.216037","265337.838193","266087.530334","266853.941634","272230.382265","Mapping"
"Mixed","both","tile","27","M_jolt.wav","None","720.546074212","323","275353.842853","267620.620987","268387.425555","269154.078938","269920.772513","270687.446301","271453.775669","272220.795113","276120.202212","262270.717928","263038.037888","263804.009544","264571.216037","265337.838193","266087.530334","266853.941634","275365.76148","Mapping"
"Mixed","both","tile","27","F_tile.wav","None","726.041318383","323","275353.842853","267620.620987","268387.425555","269154.078938","269920.772513","270687.446301","271453.775669","272220.795113","276120.202212","276887.367585","263038.037888","263804.009544","264571.216037","265337.838193","266087.530334","266853.941634","276129.174727","Mapping"
"Mixed","both","tile","27","M_bluff.wav","space","472.721803002","323","275353.842853","267620.620987","268387.425555","269154.078938","269920.772513","270687.446301","271453.775669","272220.795113","276120.202212","276887.367585","277654.107536","263804.009544","264571.216037","265337.838193","266087.530334","266853.941634","276896.940515","Mapping"
"Mixed","both","tile","27","F_cling.wav","None","723.146529868","323","275353.842853","267620.620987","268387.425555","269154.078938","269920.772513","270687.446301","271453.775669","272220.795113","276120.202212","276887.367585","277654.107536","278420.706813","264571.216037","265337.838193","266087.530334","266853.941634","277664.166177","Mapping"
"Mixed","both","tile","27","M_greet.wav","None","723.056251183","323","275353.842853","267620.620987","268387.425555","269154.078938","269920.772513","270687.446301","271453.775669","272220.795113","276120.202212","276887.367585","277654.107536","278420.706813","279187.883935","265337.838193","266087.530334","266853.941634","278430.846149","Mapping"
"Mixed","both","tile","27","M_tile.wav","None","721.941991244","323","275353.842853","267620.620987","268387.425555","269154.078938","269920.772513","270687.446301","271453.775669","272220.795113","276120.202212","276887.367585","277654.107536","278420.706813","279187.883935","279954.355833","266087.530334","266853.941634","279198.328115","Mapping"
"Mixed","both","tile","27","F_knife.wav","space","613.008524291","323","275353.842853","267620.620987","268387.425555","269154.078938","269920.772513","270687.446301","271453.775669","272220.795113","276120.202212","276887.367585","277654.107536","278420.706813","279187.883935","279954.355833","280720.359952","266853.941634","279964.614509","Mapping"
"Mixed","both","tile","27","F_cling.wav","None","722.87538508","323","275353.842853","267620.620987","268387.425555","269154.078938","269920.772513","270687.446301","271453.775669","272220.795113","276120.202212","276887.367585","277654.107536","278420.706813","279187.883935","279954.355833","280720.359952","281487.770809","280729.637312","Mapping"
"Mixed","both","tile","27","F_tile.wav","None","721.197501756","323","275353.842853","282254.11069","268387.425555","269154.078938","269920.772513","270687.446301","271453.775669","272220.795113","276120.202212","276887.367585","277654.107536","278420.706813","279187.883935","279954.355833","280720.359952","281487.770809","281497.813064","Mapping"
"Mixed","both","tile","27","F_park.wav","space","641.330335289","323","275353.842853","282254.11069","283020.359364","269154.078938","269920.772513","270687.446301","271453.775669","272220.795113","276120.202212","276887.367585","277654.107536","278420.706813","279187.883935","279954.355833","280720.359952","281487.770809","282264.300111","Mapping"
"Mixed","both","tile","27","F_priest.wav","None","721.090218518","323","275353.842853","282254.11069","283020.359364","283787.365823","269920.772513","270687.446301","271453.775669","272220.795113","276120.202212","276887.367585","277654.107536","278420.706813","279187.883935","279954.355833","280720.359952","281487.770809","283030.166339","Mapping"
"Mixed","both","tile","27","M_cad.wav","None","720.117869321","323","275353.842853","282254.11069","283020.359364","283787.365823","284553.687153","270687.446301","271453.775669","272220.795113","276120.202212","276887.367585","277654.107536","278420.706813","279187.883935","279954.355833","280720.359952","281487.770809","283797.572249","Mapping"
"Mixed","both","tile","27","F_gnash.wav","None","721.031785011","323","275353.842853","282254.11069","283020.359364","283787.365823","284553.687153","285320.8213","271453.775669","272220.795113","276120.202212","276887.367585","277654.107536","278420.706813","279187.883935","279954.355833","280720.359952","281487.770809","284563.061594","Mapping"
"Mixed","both","tile","27","M_tile.wav","None","719.017521478","323","275353.842853","282254.11069","283020.359364","283787.365823","284553.687153","285320.8213","286087.294744","272220.795113","276120.202212","276887.367585","277654.107536","278420.706813","279187.883935","279954.355833","280720.359952","281487.770809","285331.549301","Mapping"
"Mixed","both","tile","27","M_dime.wav","space","488.581151702","323","275353.842853","282254.11069","283020.359364","283787.365823","284553.687153","285320.8213","286087.294744","286854.247715","276120.202212","276887.367585","277654.107536","278420.706813","279187.883935","279954.355833","280720.359952","281487.770809","286096.895808","Mapping"
"Mixed","both","ball","9","F_romp.wav","None","718.229130376","323","289970.994607","282254.11069","283020.359364","283787.365823","284553.687153","285320.8213","286087.294744","286854.247715","276120.202212","276887.367585","277654.107536","278420.706813","279187.883935","279954.355833","280720.359952","281487.770809","286864.460324","Mapping"
"Mixed","both","ball","9","F_park.wav","None","720.962530468","323","289970.994607","282254.11069","283020.359364","283787.365823","284553.687153","285320.8213","286087.294744","286854.247715","290737.365715","276887.367585","277654.107536","278420.706813","279187.883935","279954.355833","280720.359952","281487.770809","289981.943667","Mapping"
"Mixed","both","ball","9","M_ball.wav","None","722.799018957","323","289970.994607","282254.11069","283020.359364","283787.365823","284553.687153","285320.8213","286087.294744","286854.247715","290737.365715","291504.178321","277654.107536","278420.706813","279187.883935","279954.355833","280720.359952","281487.770809","290746.639056","Mapping"
"Mixed","both","ball","9","M_depth.wav","space","503.191440366","323","289970.994607","282254.11069","283020.359364","283787.365823","284553.687153","285320.8213","286087.294744","286854.247715","290737.365715","291504.178321","292270.976706","278420.706813","279187.883935","279954.355833","280720.359952","281487.770809","291514.270353","Mapping"
"Mixed","both","ball","9","F_ball.wav","None","719.964828342","323","289970.994607","282254.11069","283020.359364","283787.365823","284553.687153","285320.8213","286087.294744","286854.247715","290737.365715","291504.178321","292270.976706","293037.553414","279187.883935","279954.355833","280720.359952","281487.770809","292281.571763","Mapping"
"Mixed","both","ball","9","M_cad.wav","space","593.666648492","323","289970.994607","282254.11069","283020.359364","283787.365823","284553.687153","285320.8213","286087.294744","286854.247715","290737.365715","291504.178321","292270.976706","293037.553414","293804.25039","279954.355833","280720.359952","281487.770809","293047.751492","Mapping"
"Mixed","both","ball","9","F_park.wav","None","719.151393976","323","289970.994607","282254.11069","283020.359364","283787.365823","284553.687153","285320.8213","286087.294744","286854.247715","290737.365715","291504.178321","292270.976706","293037.553414","293804.25039","294570.861415","280720.359952","281487.770809","293814.372102","Mapping"
"Mixed","both","ball","9","M_ball.wav","None","720.029445831","323","289970.994607","282254.11069","283020.359364","283787.365823","284553.687153","285320.8213","286087.294744","286854.247715","290737.365715","291504.178321","292270.976706","293037.553414","293804.25039","294570.861415","295336.684977","281487.770809","294580.593878","Mapping"
"Mixed","both","ball","9","M_reek.wav","space","367.031253874","323","289970.994607","282254.11069","283020.359364","283787.365823","284553.687153","285320.8213","286087.294744","286854.247715","290737.365715","291504.178321","292270.976706","293037.553414","293804.25039","294570.861415","295336.684977","296103.961962","295346.318814","Mapping"
"Mixed","both","ball","9","F_ball.wav","None","717.374575324","323","289970.994607","296870.64688","283020.359364","283787.365823","284553.687153","285320.8213","286087.294744","286854.247715","290737.365715","291504.178321","292270.976706","293037.553414","293804.25039","294570.861415","295336.684977","296103.961962","296115.260387","Mapping"
"Mixed","both","ball","9","M_gnash.wav","space","440.631170757","323","289970.994607","296870.64688","297620.009133","283787.365823","284553.687153","285320.8213","286087.294744","286854.247715","290737.365715","291504.178321","292270.976706","293037.553414","293804.25039","294570.861415","295336.684977","296103.961962","296880.689753","Mapping"
"Mixed","both","ball","9","F_greet.wav","None","735.269210767","323","289970.994607","296870.64688","297620.009133","298386.756504","284553.687153","285320.8213","286087.294744","286854.247715","290737.365715","291504.178321","292270.976706","293037.553414","293804.25039","294570.861415","295336.684977","296103.961962","297629.596903","Mapping"
"Mixed","both","ball","9","F_cad.wav","None","734.80545124","323","289970.994607","296870.64688","297620.009133","298386.756504","299153.130085","285320.8213","286087.294744","286854.247715","290737.365715","291504.178321","292270.976706","293037.553414","293804.25039","294570.861415","295336.684977","296103.961962","298396.535653","Mapping"
"Mixed","both","ball","9","M_cad.wav","None","734.977969434","323","289970.994607","296870.64688","297620.009133","298386.756504","299153.130085","299920.070071","286087.294744","286854.247715","290737.365715","291504.178321","292270.976706","293037.553414","293804.25039","294570.861415","295336.684977","296103.961962","299162.866568","Mapping"
"Mixed","both","ball","9","M_reek.wav","None","734.627985861","323","289970.994607","296870.64688","297620.009133","298386.756504","299153.130085","299920.070071","300686.728091","286854.247715","290737.365715","291504.178321","292270.976706","293037.553414","293804.25039","294570.861415","295336.684977","296103.961962","299929.656296","Mapping"
"Mixed","both","ball","9","F_jolt.wav","None","734.518538695","323","289970.994607","296870.64688","297620.009133","298386.756504","299153.130085","299920.070071","300686.728091","301453.270481","290737.365715","291504.178321","292270.976706","293037.553414","293804.25039","294570.861415","295336.684977","296103.961962","300696.316789","Mapping"
"Mixed","both","done","38","M_depth.wav","None","734.004074242","323","304587.466799","296870.64688","297620.009133","298386.756504","299153.130085","299920.070071","300686.728091","301453.270481","290737.365715","291504.178321","292270.976706","293037.553414","293804.25039","294570.861415","295336.684977","296103.961962","301463.278726","Mapping"
"Mixed","both","done","38","F_gnash.wav","None","721.277887002","323","304587.466799","296870.64688","297620.009133","298386.756504","299153.130085","299920.070071","300686.728091","301453.270481","305353.352195","291504.178321","292270.976706","293037.553414","293804.25039","294570.861415","295336.684977","296103.961962","304597.466079","Mapping"
"Mixed","both","done","38","M_done.wav","None","721.61488561","323","304587.466799","296870.64688","297620.009133","298386.756504","299153.130085","299920.070071","300686.728091","301453.270481","305353.352195","306120.613412","292270.976706","293037.553414","293804.25039","294570.861415","295336.684977","296103.961962","305363.55522","Mapping"
"Mixed","both","done","38","M_jaw.wav","space","486.458677333","323","304587.466799","296870.64688","297620.009133","298386.756504","299153.130085","299920.070071","300686.728091","301453.270481","305353.352195","306120.613412","306886.578266","293037.553414","293804.25039","294570.861415","295336.684977","296103.961962","306130.731105","Mapping"
"Mixed","both","done","38","M_gnash.wav","None","721.14710696","323","304587.466799","296870.64688","297620.009133","298386.756504","299153.130085","299920.070071","300686.728091","301453.270481","305353.352195","306120.613412","306886.578266","307653.138278","293804.25039","294570.861415","295336.684977","296103.961962","306896.072666","Mapping"
"Mixed","both","done","38","F_done.wav","None","721.098876093","323","304587.466799","296870.64688","297620.009133","298386.756504","299153.130085","299920.070071","300686.728091","301453.270481","305353.352195","306120.613412","306886.578266","307653.138278","308419.898635","294570.861415","295336.684977","296103.961962","307662.584447","Mapping"
"Mixed","both","done","38","F_jolt.wav","space","483.967669308","323","304587.466799","296870.64688","297620.009133","298386.756504","299153.130085","299920.070071","300686.728091","301453.270481","305353.352195","306120.613412","306886.578266","307653.138278","308419.898635","309186.876031","295336.684977","296103.961962","308429.192381","Mapping"
"Mixed","both","done","38","M_done.wav","None","719.529512804","323","304587.466799","296870.64688","297620.009133","298386.756504","299153.130085","299920.070071","300686.728091","301453.270481","305353.352195","306120.613412","306886.578266","307653.138278","308419.898635","309186.876031","309953.86734","296103.961962","309196.216771","Mapping"
"Mixed","both","done","38","F_jaw.wav","None","717.744037509","323","304587.466799","296870.64688","297620.009133","298386.756504","299153.130085","299920.070071","300686.728091","301453.270481","305353.352195","306120.613412","306886.578266","307653.138278","308419.898635","309186.876031","309953.86734","310720.492587","309964.590084","Mapping"
"Mixed","both","done","38","M_jolt.wav","space","14.4352968782","323","304587.466799","311469.564218","297620.009133","298386.756504","299153.130085","299920.070071","300686.728091","301453.270481","305353.352195","306120.613412","306886.578266","307653.138278","308419.898635","309186.876031","309953.86734","310720.492587","310730.675516","Mapping"
"Mixed","both","done","38","F_gnash.wav","None","735.687522218","323","304587.466799","311469.564218","312236.102897","298386.756504","299153.130085","299920.070071","300686.728091","301453.270481","305353.352195","306120.613412","306886.578266","307653.138278","308419.898635","309186.876031","309953.86734","310720.492587","311478.825192","Mapping"
"Mixed","both","done","38","F_done.wav","None","735.563234892","323","304587.466799","311469.564218","312236.102897","313003.11863","299153.130085","299920.070071","300686.728091","301453.270481","305353.352195","306120.613412","306886.578266","307653.138278","308419.898635","309186.876031","309953.86734","310720.492587","312245.531752","Mapping"
"Mixed","both","done","38","F_lash.wav","space","556.099322159","323","304587.466799","311469.564218","312236.102897","313003.11863","313769.97885","299920.070071","300686.728091","301453.270481","305353.352195","306120.613412","306886.578266","307653.138278","308419.898635","309186.876031","309953.86734","310720.492587","313012.985893","Mapping"
"Mixed","both","done","38","M_cad.wav","None","733.922761865","323","304587.466799","311469.564218","312236.102897","313003.11863","313769.97885","314536.563905","300686.728091","301453.270481","305353.352195","306120.613412","306886.578266","307653.138278","308419.898635","309186.876031","309953.86734","310720.492587","313779.475105","Mapping"
"Mixed","both","done","38","M_jolt.wav","None","733.56164759","323","304587.466799","311469.564218","312236.102897","313003.11863","313769.97885","314536.563905","315302.97304","301453.270481","305353.352195","306120.613412","306886.578266","307653.138278","308419.898635","309186.876031","309953.86734","310720.492587","314546.358512","Mapping"
"Mixed","both","done","38","F_reek.wav","None","732.797680423","323","304587.466799","311469.564218","312236.102897","313003.11863","313769.97885","314536.563905","315302.97304","316069.969296","305353.352195","306120.613412","306886.578266","307653.138278","308419.898635","309186.876031","309953.86734","310720.492587","315313.60829","Mapping"
"Mixed","both","cave","14","M_depth.wav","None","733.901119791","323","319203.494399","311469.564218","312236.102897","313003.11863","313769.97885","314536.563905","315302.97304","316069.969296","305353.352195","306120.613412","306886.578266","307653.138278","308419.898635","309186.876031","309953.86734","310720.492587","316079.16689","Mapping"
"Mixed","both","cave","14","M_cad.wav","None","721.233984455","323","319203.494399","311469.564218","312236.102897","313003.11863","313769.97885","314536.563905","315302.97304","316069.969296","319970.157985","306120.613412","306886.578266","307653.138278","308419.898635","309186.876031","309953.86734","310720.492587","319214.276196","Mapping"
"Mixed","both","cave","14","F_jaw.wav","None","722.055457532","323","319203.494399","311469.564218","312236.102897","313003.11863","313769.97885","314536.563905","315302.97304","316069.969296","319970.157985","320737.018204","306886.578266","307653.138278","308419.898635","309186.876031","309953.86734","310720.492587","319980.066677","Mapping"
"Mixed","both","cave","14","M_cave.wav","None","721.979091875","323","319203.494399","311469.564218","312236.102897","313003.11863","313769.97885","314536.563905","315302.97304","316069.969296","319970.157985","320737.018204","321503.406625","307653.138278","308419.898635","309186.876031","309953.86734","310720.492587","320746.911746","Mapping"
"Mixed","both","cave","14","F_reek.wav","space","527.360436972","323","319203.494399","311469.564218","312236.102897","313003.11863","313769.97885","314536.563905","315302.97304","316069.969296","319970.157985","320737.018204","321503.406625","322270.231599","308419.898635","309186.876031","309953.86734","310720.492587","321513.579969","Mapping"
"Mixed","both","cave","14","M_cave.wav","None","720.092826057","323","319203.494399","311469.564218","312236.102897","313003.11863","313769.97885","314536.563905","315302.97304","316069.969296","319970.157985","320737.018204","321503.406625","322270.231599","323036.874469","309186.876031","309953.86734","310720.492587","322280.642697","Mapping"
"Mixed","both","cave","14","F_greet.wav","None","719.905158039","323","319203.494399","311469.564218","312236.102897","313003.11863","313769.97885","314536.563905","315302.97304","316069.969296","319970.157985","320737.018204","321503.406625","322270.231599","323036.874469","323803.572373","309953.86734","310720.492587","323047.292369","Mapping"
"Mixed","both","cave","14","F_gnash.wav","space","0.0395742245018","323","319203.494399","311469.564218","312236.102897","313003.11863","313769.97885","314536.563905","315302.97304","316069.969296","319970.157985","320737.018204","321503.406625","322270.231599","323036.874469","323803.572373","324570.144134","310720.492587","323813.971722","Mapping"
"Mixed","both","cave","14","F_greet.wav","None","719.044729136","323","319203.494399","311469.564218","312236.102897","313003.11863","313769.97885","314536.563905","315302.97304","316069.969296","319970.157985","320737.018204","321503.406625","322270.231599","323036.874469","323803.572373","324570.144134","325336.689305","324580.780619","Mapping"
"Mixed","both","cave","14","F_cave.wav","None","719.540024176","323","319203.494399","326103.469449","312236.102897","313003.11863","313769.97885","314536.563905","315302.97304","316069.969296","319970.157985","320737.018204","321503.406625","322270.231599","323036.874469","323803.572373","324570.144134","325336.689305","325346.759695","Mapping"
"Mixed","both","cave","14","M_jaw.wav","space","535.16613273","323","319203.494399","326103.469449","326853.114905","313003.11863","313769.97885","314536.563905","315302.97304","316069.969296","319970.157985","320737.018204","321503.406625","322270.231599","323036.874469","323803.572373","324570.144134","325336.689305","326113.699372","Mapping"
"Mixed","both","cave","14","M_cling.wav","None","735.449768137","323","319203.494399","326103.469449","326853.114905","327619.536407","313769.97885","314536.563905","315302.97304","316069.969296","319970.157985","320737.018204","321503.406625","322270.231599","323036.874469","323803.572373","324570.144134","325336.689305","326862.747505","Mapping"
"Mixed","both","cave","14","F_cave.wav","None","735.61146576","323","319203.494399","326103.469449","326853.114905","327619.536407","328386.325517","314536.563905","315302.97304","316069.969296","319970.157985","320737.018204","321503.406625","322270.231599","323036.874469","323803.572373","324570.144134","325336.689305","327629.168389","Mapping"
"Mixed","both","cave","14","M_depth.wav","space","564.564793836","323","319203.494399","326103.469449","326853.114905","327619.536407","328386.325517","329152.704044","315302.97304","316069.969296","319970.157985","320737.018204","321503.406625","322270.231599","323036.874469","323803.572373","324570.144134","325336.689305","328396.268218","Mapping"
"Mixed","both","cave","14","M_park.wav","None","733.910394832","323","319203.494399","326103.469449","326853.114905","327619.536407","328386.325517","329152.704044","329919.514796","316069.969296","319970.157985","320737.018204","321503.406625","322270.231599","323036.874469","323803.572373","324570.144134","325336.689305","329163.123799","Mapping"
"Mixed","both","cave","14","F_lash.wav","None","734.779480379","323","319203.494399","326103.469449","326853.114905","327619.536407","328386.325517","329152.704044","329919.514796","330686.208062","319970.157985","320737.018204","321503.406625","322270.231599","323036.874469","323803.572373","324570.144134","325336.689305","329928.795557","Mapping"
"Mixed","both","tile","25","M_gnash.wav","None","734.299953096","323","333820.035537","326103.469449","326853.114905","327619.536407","328386.325517","329152.704044","329919.514796","330686.208062","319970.157985","320737.018204","321503.406625","322270.231599","323036.874469","323803.572373","324570.144134","325336.689305","330695.798305","Mapping"
"Mixed","both","tile","25","F_dime.wav","None","721.231820527","323","333820.035537","326103.469449","326853.114905","327619.536407","328386.325517","329152.704044","329919.514796","330686.208062","334586.685518","320737.018204","321503.406625","322270.231599","323036.874469","323803.572373","324570.144134","325336.689305","333830.371815","Mapping"
"Mixed","both","tile","25","F_tile.wav","None","721.354561858","323","333820.035537","326103.469449","326853.114905","327619.536407","328386.325517","329152.704044","329919.514796","330686.208062","334586.685518","335352.780843","321503.406625","322270.231599","323036.874469","323803.572373","324570.144134","325336.689305","334596.899983","Mapping"
"Mixed","both","tile","25","F_jolt.wav","space","422.213723417","323","333820.035537","326103.469449","326853.114905","327619.536407","328386.325517","329152.704044","329919.514796","330686.208062","334586.685518","335352.780843","336119.330962","322270.231599","323036.874469","323803.572373","324570.144134","325336.689305","335362.453017","Mapping"
"Mixed","both","tile","25","M_greet.wav","None","722.145427018","323","333820.035537","326103.469449","326853.114905","327619.536407","328386.325517","329152.704044","329919.514796","330686.208062","334586.685518","335352.780843","336119.330962","336886.442848","323036.874469","323803.572373","324570.144134","325336.689305","336128.611414","Mapping"
"Mixed","both","tile","25","M_bluff.wav","None","689.119545743","323","333820.035537","326103.469449","326853.114905","327619.536407","328386.325517","329152.704044","329919.514796","330686.208062","334586.685518","335352.780843","336119.330962","336886.442848","337653.448997","323803.572373","324570.144134","325336.689305","336928.405999","Mapping"
"Mixed","both","tile","25","F_reek.wav","None","720.913062803","323","333820.035537","326103.469449","326853.114905","327619.536407","328386.325517","329152.704044","329919.514796","330686.208062","334586.685518","335352.780843","336119.330962","336886.442848","337653.448997","338420.062806","324570.144134","325336.689305","337663.550922","Mapping"
"Mixed","both","tile","25","F_tile.wav","None","721.469265409","323","333820.035537","326103.469449","326853.114905","327619.536407","328386.325517","329152.704044","329919.514796","330686.208062","334586.685518","335352.780843","336119.330962","336886.442848","337653.448997","338420.062806","339186.836456","325336.689305","338429.709628","Mapping"
"Mixed","both","tile","25","M_depth.wav","space","507.603651378","323","333820.035537","326103.469449","326853.114905","327619.536407","328386.325517","329152.704044","329919.514796","330686.208062","334586.685518","335352.780843","336119.330962","336886.442848","337653.448997","338420.062806","339186.836456","339952.620135","339196.915812","Mapping"
"Mixed","both","tile","25","M_jolt.wav","None","724.538427312","323","333820.035537","340719.906086","326853.114905","327619.536407","328386.325517","329152.704044","329919.514796","330686.208062","334586.685518","335352.780843","336119.330962","336886.442848","337653.448997","338420.062806","339186.836456","339952.620135","339961.530816","Mapping"
"Mixed","both","tile","25","M_tile.wav","None","722.711213864","323","333820.035537","340719.906086","341486.474136","327619.536407","328386.325517","329152.704044","329919.514796","330686.208062","334586.685518","335352.780843","336119.330962","336886.442848","337653.448997","338420.062806","339186.836456","339952.620135","340730.048822","Mapping"
"Mixed","both","tile","25","F_bluff.wav","space","664.48184289","323","333820.035537","340719.906086","341486.474136","342253.2617","328386.325517","329152.704044","329919.514796","330686.208062","334586.685518","335352.780843","336119.330962","336886.442848","337653.448997","338420.062806","339186.836456","339952.620135","341496.09437","Mapping"
"Mixed","both","tile","25","M_reek.wav","None","722.044636495","323","333820.035537","340719.906086","341486.474136","342253.2617","343019.809345","329152.704044","329919.514796","330686.208062","334586.685518","335352.780843","336119.330962","336886.442848","337653.448997","338420.062806","339186.836456","339952.620135","342263.138238","Mapping"
"Mixed","both","tile","25","F_cling.wav","None","722.498193849","323","333820.035537","340719.906086","341486.474136","342253.2617","343019.809345","343786.693681","329919.514796","330686.208062","334586.685518","335352.780843","336119.330962","336886.442848","337653.448997","338420.062806","339186.836456","339952.620135","343029.644454","Mapping"
"Mixed","both","tile","25","M_tile.wav","None","722.34360734","323","333820.035537","340719.906086","341486.474136","342253.2617","343019.809345","343786.693681","344552.98533","330686.208062","334586.685518","335352.780843","336119.330962","336886.442848","337653.448997","338420.062806","339186.836456","339952.620135","343796.881246","Mapping"
"Mixed","both","tile","25","F_romp.wav","space","525.776233524","323","333820.035537","340719.906086","341486.474136","342253.2617","343019.809345","343786.693681","344552.98533","345319.641804","334586.685518","335352.780843","336119.330962","336886.442848","337653.448997","338420.062806","339186.836456","339952.620135","344562.708827","Mapping"
"Mixed","both","tile","33","M_cling.wav","None","722.140480299","323","348452.906584","340719.906086","341486.474136","342253.2617","343019.809345","343786.693681","344552.98533","345319.641804","334586.685518","335352.780843","336119.330962","336886.442848","337653.448997","338420.062806","339186.836456","339952.620135","345329.748058","Mapping"
"Mixed","both","tile","33","F_tile.wav","None","722.097814549","323","348452.906584","340719.906086","341486.474136","342253.2617","343019.809345","343786.693681","344552.98533","345319.641804","349219.205035","335352.780843","336119.330962","336886.442848","337653.448997","338420.062806","339186.836456","339952.620135","348462.935235","Mapping"
"Mixed","both","tile","33","M_dime.wav","None","723.583082203","323","348452.906584","340719.906086","341486.474136","342253.2617","343019.809345","343786.693681","344552.98533","345319.641804","349219.205035","349986.264053","336119.330962","336886.442848","337653.448997","338420.062806","339186.836456","339952.620135","349228.425508","Mapping"
"Mixed","both","tile","33","F_gnash.wav","space","147.834875621","323","348452.906584","340719.906086","341486.474136","342253.2617","343019.809345","343786.693681","344552.98533","345319.641804","349219.205035","349986.264053","350752.850036","336886.442848","337653.448997","338420.062806","339186.836456","339952.620135","349996.617645","Mapping"
"Mixed","both","tile","33","F_tile.wav","None","721.367547289","323","348452.906584","340719.906086","341486.474136","342253.2617","343019.809345","343786.693681","344552.98533","345319.641804","349219.205035","349986.264053","350752.850036","351519.146633","337653.448997","338420.062806","339186.836456","339952.620135","350763.081814","Mapping"
"Mixed","both","tile","33","F_jaw.wav","space","528.231686912","323","348452.906584","340719.906086","341486.474136","342253.2617","343019.809345","343786.693681","344552.98533","345319.641804","349219.205035","349986.264053","350752.850036","351519.146633","352285.922448","338420.062806","339186.836456","339952.620135","351528.173253","Mapping"
"Mixed","both","tile","33","F_cad.wav","None","721.708565485","323","348452.906584","340719.906086","341486.474136","342253.2617","343019.809345","343786.693681","344552.98533","345319.641804","349219.205035","349986.264053","350752.850036","351519.146633","352285.922448","353052.362191","339186.836456","339952.620135","352295.141683","Mapping"
"Mixed","both","tile","33","M_priest.wav","None","721.834708005","323","348452.906584","340719.906086","341486.474136","342253.2617","343019.809345","343786.693681","344552.98533","345319.641804","349219.205035","349986.264053","350752.850036","351519.146633","352285.922448","353052.362191","353819.578269","339952.620135","353061.738487","Mapping"
"Mixed","both","tile","33","M_jolt.wav","None","720.897295047","323","348452.906584","340719.906086","341486.474136","342253.2617","343019.809345","343786.693681","344552.98533","345319.641804","349219.205035","349986.264053","350752.850036","351519.146633","352285.922448","353052.362191","353819.578269","354586.020796","353829.615886","Mapping"
"Mixed","both","tile","33","F_dime.wav","None","721.255008131","323","348452.906584","355352.386957","341486.474136","342253.2617","343019.809345","343786.693681","344552.98533","345319.641804","349219.205035","349986.264053","350752.850036","351519.146633","352285.922448","353052.362191","353819.578269","354586.020796","354596.198778","Mapping"
"Mixed","both","tile","33","M_tile.wav","None","722.381635569","323","348452.906584","355352.386957","356119.738143","342253.2617","343019.809345","343786.693681","344552.98533","345319.641804","349219.205035","349986.264053","350752.850036","351519.146633","352285.922448","353052.362191","353819.578269","354586.020796","355361.984001","Mapping"
"Mixed","both","tile","33","F_bluff.wav","space","446.621092502","323","348452.906584","355352.386957","356119.738143","356885.792966","343019.809345","343786.693681","344552.98533","345319.641804","349219.205035","349986.264053","350752.850036","351519.146633","352285.922448","353052.362191","353819.578269","354586.020796","356129.67868","Mapping"
"Mixed","both","tile","33","M_tile.wav","None","721.899325028","323","348452.906584","355352.386957","356119.738143","356885.792966","357652.717493","343786.693681","344552.98533","345319.641804","349219.205035","349986.264053","350752.850036","351519.146633","352285.922448","353052.362191","353819.578269","354586.020796","356895.184102","Mapping"
"Mixed","both","tile","33","M_bluff.wav","space","465.62009491","323","348452.906584","355352.386957","356119.738143","356885.792966","357652.717493","358419.577095","344552.98533","345319.641804","349219.205035","349986.264053","350752.850036","351519.146633","352285.922448","353052.362191","353819.578269","354586.020796","357662.629586","Mapping"
"Mixed","both","tile","33","M_dime.wav","None","719.85723637","323","348452.906584","355352.386957","356119.738143","356885.792966","357652.717493","358419.577095","359185.676439","345319.641804","349219.205035","349986.264053","350752.850036","351519.146633","352285.922448","353052.362191","353819.578269","354586.020796","358429.841645","Mapping"
"Mixed","both","tile","33","F_cling.wav","None","721.743192989","323","348452.906584","355352.386957","356119.738143","356885.792966","357652.717493","358419.577095","359185.676439","359952.675167","349219.205035","349986.264053","350752.850036","351519.146633","352285.922448","353052.362191","353819.578269","354586.020796","359194.942669","Mapping"
"Mixed","both","tile","28","F_depth.wav","None","721.126392484","323","363086.272308","355352.386957","356119.738143","356885.792966","357652.717493","358419.577095","359185.676439","359952.675167","349219.205035","349986.264053","350752.850036","351519.146633","352285.922448","353052.362191","353819.578269","354586.020796","359962.460499","Mapping"
"Mixed","both","tile","28","F_tile.wav","None","721.797607373","323","363086.272308","355352.386957","356119.738143","356885.792966","357652.717493","358419.577095","359185.676439","359952.675167","363852.518819","349986.264053","350752.850036","351519.146633","352285.922448","353052.362191","353819.578269","354586.020796","363096.056712","Mapping"
"Mixed","both","tile","28","M_dime.wav","space","481.773776002","323","363086.272308","355352.386957","356119.738143","356885.792966","357652.717493","358419.577095","359185.676439","359952.675167","363852.518819","364619.302672","350752.850036","351519.146633","352285.922448","353052.362191","353819.578269","354586.020796","363862.376806","Mapping"
"Mixed","both","tile","28","M_tile.wav","None","721.026529092","323","363086.272308","355352.386957","356119.738143","356885.792966","357652.717493","358419.577095","359185.676439","359952.675167","363852.518819","364619.302672","365386.026856","351519.146633","352285.922448","353052.362191","353819.578269","354586.020796","364629.384192","Mapping"
"Mixed","both","tile","28","F_dime.wav","space","540.268727113","323","363086.272308","355352.386957","356119.738143","356885.792966","357652.717493","358419.577095","359185.676439","359952.675167","363852.518819","364619.302672","365386.026856","366152.707445","352285.922448","353052.362191","353819.578269","354586.020796","365395.895973","Mapping"
"Mixed","both","tile","28","F_cling.wav","None","719.817971345","323","363086.272308","355352.386957","356119.738143","356885.792966","357652.717493","358419.577095","359185.676439","359952.675167","363852.518819","364619.302672","365386.026856","366152.707445","366918.830905","353052.362191","353819.578269","354586.020796","366163.036613","Mapping"
"Mixed","both","tile","28","M_tile.wav","None","721.698053647","323","363086.272308","355352.386957","356119.738143","356885.792966","357652.717493","358419.577095","359185.676439","359952.675167","363852.518819","364619.302672","365386.026856","366152.707445","366918.830905","367685.720187","353819.578269","354586.020796","366928.156496","Mapping"
"Mixed","both","tile","28","M_park.wav","space","505.296909716","323","363086.272308","355352.386957","356119.738143","356885.792966","357652.717493","358419.577095","359185.676439","359952.675167","363852.518819","364619.302672","365386.026856","366152.707445","366918.830905","367685.720187","368452.919569","354586.020796","367694.795348","Mapping"
"Mixed","both","tile","28","F_bluff.wav","None","719.927109312","323","363086.272308","355352.386957","356119.738143","356885.792966","357652.717493","358419.577095","359185.676439","359952.675167","363852.518819","364619.302672","365386.026856","366152.707445","366918.830905","367685.720187","368452.919569","369219.404452","368462.637501","Mapping"
"Mixed","both","tile","28","F_greet.wav","None","719.801275525","323","363086.272308","369985.944368","356119.738143","356885.792966","357652.717493","358419.577095","359185.676439","359952.675167","363852.518819","364619.302672","365386.026856","366152.707445","366918.830905","367685.720187","368452.919569","369219.404452","369229.666529","Mapping"
"Mixed","both","tile","28","M_cling.wav","None","720.335217658","323","363086.272308","369985.944368","370752.457695","356885.792966","357652.717493","358419.577095","359185.676439","359952.675167","363852.518819","364619.302672","365386.026856","366152.707445","366918.830905","367685.720187","368452.919569","369219.404452","369996.012903","Mapping"
"Mixed","both","tile","28","M_priest.wav","None","720.9748975","323","363086.272308","369985.944368","370752.457695","371518.312793","357652.717493","358419.577095","359185.676439","359952.675167","363852.518819","364619.302672","365386.026856","366152.707445","366918.830905","367685.720187","368452.919569","369219.404452","370762.332996","Mapping"
"Mixed","both","tile","28","M_jolt.wav","None","727.06313571","323","363086.272308","369985.944368","370752.457695","371518.312793","372285.301628","358419.577095","359185.676439","359952.675167","363852.518819","364619.302672","365386.026856","366152.707445","366918.830905","367685.720187","368452.919569","369219.404452","371527.045699","Mapping"
"Mixed","both","tile","28","F_tile.wav","None","726.650389843","323","363086.272308","369985.944368","370752.457695","371518.312793","372285.301628","373052.192146","359185.676439","359952.675167","363852.518819","364619.302672","365386.026856","366152.707445","366918.830905","367685.720187","368452.919569","369219.404452","372294.402141","Mapping"
"Mixed","both","tile","28","F_cling.wav","space","498.273731675","323","363086.272308","369985.944368","370752.457695","371518.312793","372285.301628","373052.192146","373819.019902","359952.675167","363852.518819","364619.302672","365386.026856","366152.707445","366918.830905","367685.720187","368452.919569","369219.404452","373061.71499","Mapping"
"Mixed","both","tile","28","M_bluff.wav","None","725.414315239","323","363086.272308","369985.944368","370752.457695","371518.312793","372285.301628","373052.192146","373819.019902","374585.62289","363852.518819","364619.302672","365386.026856","366152.707445","366918.830905","367685.720187","368452.919569","369219.404452","373828.207603","Mapping"
"Mixed","both","cave","24","M_jolt.wav","None","725.498410407","323","377719.44449","369985.944368","370752.457695","371518.312793","372285.301628","373052.192146","373819.019902","374585.62289","363852.518819","364619.302672","365386.026856","366152.707445","366918.830905","367685.720187","368452.919569","369219.404452","374595.193655","Mapping"
"Mixed","both","cave","24","F_cave.wav","None","722.282700241","323","377719.44449","369985.944368","370752.457695","371518.312793","372285.301628","373052.192146","373819.019902","374585.62289","378485.961218","364619.302672","365386.026856","366152.707445","366918.830905","367685.720187","368452.919569","369219.404452","377729.028859","Mapping"
"Mixed","both","cave","24","F_dime.wav","space","463.845131453","323","377719.44449","369985.944368","370752.457695","371518.312793","372285.301628","373052.192146","373819.019902","374585.62289","378485.961218","379252.79052","365386.026856","366152.707445","366918.830905","367685.720187","368452.919569","369219.404452","378496.078911","Mapping"
"Mixed","both","cave","24","F_reek.wav","None","720.950472634","323","377719.44449","369985.944368","370752.457695","371518.312793","372285.301628","373052.192146","373819.019902","374585.62289","378485.961218","379252.79052","380018.547919","366152.707445","366918.830905","367685.720187","368452.919569","369219.404452","379262.81577","Mapping"
"Mixed","both","cave","24","M_cave.wav","None","722.888988443","323","377719.44449","369985.944368","370752.457695","371518.312793","372285.301628","373052.192146","373819.019902","374585.62289","378485.961218","379252.79052","380018.547919","380785.851802","366918.830905","367685.720187","368452.919569","369219.404452","380027.75015","Mapping"
"Mixed","both","cave","24","F_cling.wav","space","691.980944015","323","377719.44449","369985.944368","370752.457695","371518.312793","372285.301628","373052.192146","373819.019902","374585.62289","378485.961218","379252.79052","380018.547919","380785.851802","381552.544758","367685.720187","368452.919569","369219.404452","380795.874578","Mapping"
"Mixed","both","cave","24","F_cave.wav","None","720.521030948","323","377719.44449","369985.944368","370752.457695","371518.312793","372285.301628","373052.192146","373819.019902","374585.62289","378485.961218","379252.79052","380018.547919","380785.851802","381552.544758","382319.076945","368452.919569","369219.404452","381562.432736","Mapping"
"Mixed","both","cave","24","M_bluff.wav","None","720.615328755","323","377719.44449","369985.944368","370752.457695","371518.312793","372285.301628","373052.192146","373819.019902","374585.62289","378485.961218","379252.79052","380018.547919","380785.851802","381552.544758","382319.076945","383085.794636","369219.404452","382329.359118","Mapping"
"Mixed","both","cave","24","M_cad.wav","space","48.9455182105","323","377719.44449","369985.944368","370752.457695","371518.312793","372285.301628","373052.192146","373819.019902","374585.62289","378485.961218","379252.79052","380018.547919","380785.851802","381552.544758","382319.076945","383085.794636","383852.189549","383094.86485","Mapping"
"Mixed","both","cave","24","F_lash.wav","None","720.312030055","323","377719.44449","384618.515208","370752.457695","371518.312793","372285.301628","373052.192146","373819.019902","374585.62289","378485.961218","379252.79052","380018.547919","380785.851802","381552.544758","382319.076945","383085.794636","383852.189549","383862.260557","Mapping"
"Mixed","both","cave","24","M_reek.wav","None","722.012791783","323","377719.44449","384618.515208","385385.133654","371518.312793","372285.301628","373052.192146","373819.019902","374585.62289","378485.961218","379252.79052","380018.547919","380785.851802","381552.544758","382319.076945","383085.794636","383852.189549","384627.736608","Mapping"
"Mixed","both","cave","24","F_bluff.wav","None","722.179436125","323","377719.44449","384618.515208","385385.133654","386151.915962","372285.301628","373052.192146","373819.019902","374585.62289","378485.961218","379252.79052","380018.547919","380785.851802","381552.544758","382319.076945","383085.794636","383852.189549","385394.589407","Mapping"
"Mixed","both","cave","24","F_cling.wav","None","722.421209328","323","377719.44449","384618.515208","385385.133654","386151.915962","386919.090301","373052.192146","373819.019902","374585.62289","378485.961218","379252.79052","380018.547919","380785.851802","381552.544758","382319.076945","383085.794636","383852.189549","386161.476525","Mapping"
"Mixed","both","cave","24","M_jaw.wav","None","721.68383142","323","377719.44449","384618.515208","385385.133654","386151.915962","386919.090301","387685.164602","373819.019902","374585.62289","378485.961218","379252.79052","380018.547919","380785.851802","381552.544758","382319.076945","383085.794636","383852.189549","386929.170584","Mapping"
"Mixed","both","cave","24","M_cave.wav","None","723.493422382","323","377719.44449","384618.515208","385385.133654","386151.915962","386919.090301","387685.164602","388452.151274","374585.62289","378485.961218","379252.79052","380018.547919","380785.851802","381552.544758","382319.076945","383085.794636","383852.189549","387694.402697","Mapping"
"Mixed","both","cave","24","M_dime.wav","space","641.537481453","323","377719.44449","384618.515208","385385.133654","386151.915962","386919.090301","387685.164602","388452.151274","389219.039319","378485.961218","379252.79052","380018.547919","380785.851802","381552.544758","382319.076945","383085.794636","383852.189549","388462.165393","Mapping"
"Mixed","both","cave","19","F_cling.wav","None","720.952018164","323","392351.609695","384618.515208","385385.133654","386151.915962","386919.090301","387685.164602","388452.151274","389219.039319","378485.961218","379252.79052","380018.547919","380785.851802","381552.544758","382319.076945","383085.794636","383852.189549","389229.288101","Mapping"
"Mixed","both","cave","19","F_cad.wav","None","722.780468874","323","392351.609695","384618.515208","385385.133654","386151.915962","386919.090301","387685.164602","388452.151274","389219.039319","393118.90152","379252.79052","380018.547919","380785.851802","381552.544758","382319.076945","383085.794636","383852.189549","392361.264247","Mapping"
"Mixed","both","cave","19","M_knife.wav","None","722.306506243","323","392351.609695","384618.515208","385385.133654","386151.915962","386919.090301","387685.164602","388452.151274","389219.039319","393118.90152","393885.522749","380018.547919","380785.851802","381552.544758","382319.076945","383085.794636","383852.189549","393128.734774","Mapping"
"Mixed","both","cave","19","M_knife.wav","None","722.492937464","323","392351.609695","384618.515208","385385.133654","386151.915962","386919.090301","387685.164602","388452.151274","389219.039319","393118.90152","393885.522749","394652.129755","380785.851802","381552.544758","382319.076945","383085.794636","383852.189549","393895.541816","Mapping"
"Mixed","both","cave","19","F_cave.wav","None","722.521381453","323","392351.609695","384618.515208","385385.133654","386151.915962","386919.090301","387685.164602","388452.151274","389219.039319","393118.90152","393885.522749","394652.129755","395418.915464","381552.544758","382319.076945","383085.794636","383852.189549","394662.514574","Mapping"
"Mixed","both","cave","19","F_cling.wav","space","594.937350601","323","392351.609695","384618.515208","385385.133654","386151.915962","386919.090301","387685.164602","388452.151274","389219.039319","393118.90152","393885.522749","394652.129755","395418.915464","396185.512268","382319.076945","383085.794636","383852.189549","395428.651019","Mapping"
"Mixed","both","cave","19","F_dime.wav","None","722.034433857","323","392351.609695","384618.515208","385385.133654","386151.915962","386919.090301","387685.164602","388452.151274","389219.039319","393118.90152","393885.522749","394652.129755","395418.915464","396185.512268","396951.813811","383085.794636","383852.189549","396195.605227","Mapping"
"Mixed","both","cave","19","M_cave.wav","None","723.841242027","323","392351.609695","384618.515208","385385.133654","386151.915962","386919.090301","387685.164602","388452.151274","389219.039319","393118.90152","393885.522749","394652.129755","395418.915464","396185.512268","396951.813811","397718.94332","383852.189549","396960.973067","Mapping"
"Mixed","both","cave","19","F_priest.wav","None","723.019459751","323","392351.609695","384618.515208","385385.133654","386151.915962","386919.090301","387685.164602","388452.151274","389219.039319","393118.90152","393885.522749","394652.129755","395418.915464","396185.512268","396951.813811","397718.94332","398485.714189","397728.700826","Mapping"
"Mixed","both","cave","19","M_priest.wav","space","47.5969049148","323","392351.609695","399251.568358","385385.133654","386151.915962","386919.090301","387685.164602","388452.151274","389219.039319","393118.90152","393885.522749","394652.129755","395418.915464","396185.512268","396951.813811","397718.94332","398485.714189","398495.951223","Mapping"
"Mixed","both","cave","19","M_gnash.wav","None","723.246083595","323","392351.609695","399251.568358","400018.854","386151.915962","386919.090301","387685.164602","388452.151274","389219.039319","393118.90152","393885.522749","394652.129755","395418.915464","396185.512268","396951.813811","397718.94332","398485.714189","399260.854376","Mapping"
"Mixed","both","cave","19","F_cave.wav","None","722.637939733","323","392351.609695","399251.568358","400018.854","400784.926755","386919.090301","387685.164602","388452.151274","389219.039319","393118.90152","393885.522749","394652.129755","395418.915464","396185.512268","396951.813811","397718.94332","398485.714189","400028.623564","Mapping"
"Mixed","both","cave","19","M_dime.wav","space","605.517876334","323","392351.609695","399251.568358","400018.854","400784.926755","401552.305767","387685.164602","388452.151274","389219.039319","393118.90152","393885.522749","394652.129755","395418.915464","396185.512268","396951.813811","397718.94332","398485.714189","400793.988622","Mapping"
"Mixed","both","cave","19","M_cave.wav","None","721.630653832","323","392351.609695","399251.568358","400018.854","400784.926755","401552.305767","402318.890823","388452.151274","389219.039319","393118.90152","393885.522749","394652.129755","395418.915464","396185.512268","396951.813811","397718.94332","398485.714189","401562.147678","Mapping"
"Mixed","both","cave","19","M_park.wav","None","721.44576814","323","392351.609695","399251.568358","400018.854","400784.926755","401552.305767","402318.890823","403085.545751","389219.039319","393118.90152","393885.522749","394652.129755","395418.915464","396185.512268","396951.813811","397718.94332","398485.714189","402329.40704","Mapping"
"Mixed","both","cave","19","F_dime.wav","space","48.1218812056","323","392351.609695","399251.568358","400018.854","400784.926755","401552.305767","402318.890823","403085.545751","403852.025378","393118.90152","393885.522749","394652.129755","395418.915464","396185.512268","396951.813811","397718.94332","398485.714189","403095.328609","Mapping"
"Mixed","both","tile","31","F_dime.wav","None","721.535427961","323","406985.025815","399251.568358","400018.854","400784.926755","401552.305767","402318.890823","403085.545751","403852.025378","393118.90152","393885.522749","394652.129755","395418.915464","396185.512268","396951.813811","397718.94332","398485.714189","403861.955713","Mapping"
"Mixed","both","tile","31","F_priest.wav","None","723.396032583","323","406985.025815","399251.568358","400018.854","400784.926755","401552.305767","402318.890823","403085.545751","403852.025378","407751.975076","393885.522749","394652.129755","395418.915464","396185.512268","396951.813811","397718.94332","398485.714189","406994.186617","Mapping"
"Mixed","both","tile","31","F_park.wav","None","722.706576344","323","406985.025815","399251.568358","400018.854","400784.926755","401552.305767","402318.890823","403085.545751","403852.025378","407751.975076","408518.724302","394652.129755","395418.915464","396185.512268","396951.813811","397718.94332","398485.714189","407762.005273","Mapping"
"Mixed","both","tile","31","M_bluff.wav","None","723.592357244","323","406985.025815","399251.568358","400018.854","400784.926755","401552.305767","402318.890823","403085.545751","403852.025378","407751.975076","408518.724302","409284.585583","395418.915464","396185.512268","396951.813811","397718.94332","398485.714189","408528.470369","Mapping"
"Mixed","both","tile","31","F_cad.wav","None","725.70277378","323","406985.025815","399251.568358","400018.854","400784.926755","401552.305767","402318.890823","403085.545751","403852.025378","407751.975076","408518.724302","409284.585583","410051.35676","396185.512268","396951.813811","397718.94332","398485.714189","409293.661362","Mapping"
"Mixed","both","tile","31","F_tile.wav","None","725.729053374","323","406985.025815","399251.568358","400018.854","400784.926755","401552.305767","402318.890823","403085.545751","403852.025378","407751.975076","408518.724302","409284.585583","410051.35676","410817.813509","396951.813811","397718.94332","398485.714189","410060.77263","Mapping"
"Mixed","both","tile","31","M_dime.wav","space","434.08102775","323","406985.025815","399251.568358","400018.854","400784.926755","401552.305767","402318.890823","403085.545751","403852.025378","407751.975076","408518.724302","409284.585583","410051.35676","410817.813509","411584.740819","397718.94332","398485.714189","410821.22709","Mapping"
"Mixed","both","tile","31","M_tile.wav","None","725.644030608","323","406985.025815","399251.568358","400018.854","400784.926755","401552.305767","402318.890823","403085.545751","403852.025378","407751.975076","408518.724302","409284.585583","410051.35676","410817.813509","411584.740819","412351.001861","398485.714189","411593.913988","Mapping"
"Mixed","both","tile","31","F_gnash.wav","space","703.39747332","323","406985.025815","399251.568358","400018.854","400784.926755","401552.305767","402318.890823","403085.545751","403852.025378","407751.975076","408518.724302","409284.585583","410051.35676","410817.813509","411584.740819","412351.001861","413117.891142","412359.865547","Mapping"
"Mixed","both","tile","31","M_tile.wav","None","725.471512415","323","406985.025815","413884.533395","400018.854","400784.926755","401552.305767","402318.890823","403085.545751","403852.025378","407751.975076","408518.724302","409284.585583","410051.35676","410817.813509","411584.740819","412351.001861","413117.891142","413126.959501","Mapping"
"Mixed","both","tile","31","M_romp.wav","space","489.644088782","323","406985.025815","413884.533395","414652.13563","400784.926755","401552.305767","402318.890823","403085.545751","403852.025378","407751.975076","408518.724302","409284.585583","410051.35676","410817.813509","411584.740819","412351.001861","413117.891142","413893.617212","Mapping"
"Mixed","both","tile","31","M_park.wav","None","723.04914007","323","406985.025815","413884.533395","414652.13563","415418.174994","401552.305767","402318.890823","403085.545751","403852.025378","407751.975076","408518.724302","409284.585583","410051.35676","410817.813509","411584.740819","412351.001861","413117.891142","414662.182522","Mapping"
"Mixed","both","tile","31","M_jaw.wav","None","725.311051589","323","406985.025815","413884.533395","414652.13563","415418.174994","416184.420577","402318.890823","403085.545751","403852.025378","407751.975076","408518.724302","409284.585583","410051.35676","410817.813509","411584.740819","412351.001861","413117.891142","415427.244899","Mapping"
"Mixed","both","tile","31","F_bluff.wav","None","726.417582016","323","406985.025815","413884.533395","414652.13563","415418.174994","416184.420577","416951.150016","403085.545751","403852.025378","407751.975076","408518.724302","409284.585583","410051.35676","410817.813509","411584.740819","412351.001861","413117.891142","416193.378562","Mapping"
"Mixed","both","tile","31","F_tile.wav","None","726.730465889","323","406985.025815","413884.533395","414652.13563","415418.174994","416184.420577","416951.150016","417718.133905","403852.025378","407751.975076","408518.724302","409284.585583","410051.35676","410817.813509","411584.740819","412351.001861","413117.891142","416960.247128","Mapping"
"Mixed","both","tile","31","M_cad.wav","space","471.70833312","323","406985.025815","413884.533395","414652.13563","415418.174994","416184.420577","416951.150016","417718.133905","418484.798418","407751.975076","408518.724302","409284.585583","410051.35676","410817.813509","411584.740819","412351.001861","413117.891142","417727.492887","Mapping"
"Mixed","both","ball","12","F_park.wav","None","725.838191807","323","421618.455229","413884.533395","414652.13563","415418.174994","416184.420577","416951.150016","417718.133905","418484.798418","407751.975076","408518.724302","409284.585583","410051.35676","410817.813509","411584.740819","412351.001861","413117.891142","418494.118444","Mapping"
"Mixed","both","ball","12","F_ball.wav","None","722.151301336","323","421618.455229","413884.533395","414652.13563","415418.174994","416184.420577","416951.150016","417718.133905","418484.798418","422385.200436","408518.724302","409284.585583","410051.35676","410817.813509","411584.740819","412351.001861","413117.891142","421628.584361","Mapping"
"Mixed","both","ball","12","F_romp.wav","space","451.954330318","323","421618.455229","413884.533395","414652.13563","415418.174994","416184.420577","416951.150016","417718.133905","418484.798418","422385.200436","423151.843615","409284.585583","410051.35676","410817.813509","411584.740819","412351.001861","413117.891142","422395.134789","Mapping"
"Mixed","both","ball","12","M_jolt.wav","None","721.485651564","323","421618.455229","413884.533395","414652.13563","415418.174994","416184.420577","416951.150016","417718.133905","418484.798418","422385.200436","423151.843615","423918.403628","410051.35676","410817.813509","411584.740819","412351.001861","413117.891142","423161.996863","Mapping"
"Mixed","both","ball","12","M_jaw.wav","None","722.076172009","323","421618.455229","413884.533395","414652.13563","415418.174994","416184.420577","416951.150016","417718.133905","418484.798418","422385.200436","423151.843615","423918.403628","424684.992084","410817.813509","411584.740819","412351.001861","413117.891142","423928.550692","Mapping"
"Mixed","both","ball","12","F_ball.wav","None","723.248557188","323","421618.455229","413884.533395","414652.13563","415418.174994","416184.420577","416951.150016","417718.133905","418484.798418","422385.200436","423151.843615","423918.403628","424684.992084","425451.637119","411584.740819","412351.001861","413117.891142","424694.530077","Mapping"
"Mixed","both","ball","12","F_romp.wav","space","368.996049743","323","421618.455229","413884.533395","414652.13563","415418.174994","416184.420577","416951.150016","417718.133905","418484.798418","422385.200436","423151.843615","423918.403628","424684.992084","425451.637119","426218.467657","412351.001861","413117.891142","425462.061821","Mapping"
"Mixed","both","ball","12","M_ball.wav","None","722.483971622","323","421618.455229","413884.533395","414652.13563","415418.174994","416184.420577","416951.150016","417718.133905","418484.798418","422385.200436","423151.843615","423918.403628","424684.992084","425451.637119","426218.467657","426985.008501","413117.891142","426228.195792","Mapping"
"Mixed","both","ball","12","M_bluff.wav","space","475.956372917","323","421618.455229","413884.533395","414652.13563","415418.174994","416184.420577","416951.150016","417718.133905","418484.798418","422385.200436","423151.843615","423918.403628","424684.992084","425451.637119","426218.467657","426985.008501","427751.073836","426995.088475","Mapping"
"Mixed","both","ball","12","M_knife.wav","None","723.202181049","323","421618.455229","428517.767102","414652.13563","415418.174994","416184.420577","416951.150016","417718.133905","418484.798418","422385.200436","423151.843615","423918.403628","424684.992084","425451.637119","426218.467657","426985.008501","427751.073836","427760.278231","Mapping"
"Mixed","both","ball","12","F_knife.wav","None","723.977587186","323","421618.455229","428517.767102","429284.822719","415418.174994","416184.420577","416951.150016","417718.133905","418484.798418","422385.200436","423151.843615","423918.403628","424684.992084","425451.637119","426218.467657","426985.008501","427751.073836","428526.734671","Mapping"
"Mixed","both","ball","12","M_lash.wav","None","723.132617306","323","421618.455229","428517.767102","429284.822719","430051.002139","416184.420577","416951.150016","417718.133905","418484.798418","422385.200436","423151.843615","423918.403628","424684.992084","425451.637119","426218.467657","426985.008501","427751.073836","429294.856316","Mapping"
"Mixed","both","ball","12","M_ball.wav","None","724.712491967","323","421618.455229","428517.767102","429284.822719","430051.002139","430817.554731","416951.150016","417718.133905","418484.798418","422385.200436","423151.843615","423918.403628","424684.992084","425451.637119","426218.467657","426985.008501","427751.073836","430060.515089","Mapping"
"Mixed","both","ball","12","F_cling.wav","space","484.048672486","323","421618.455229","428517.767102","429284.822719","430051.002139","430817.554731","431584.490389","417718.133905","418484.798418","422385.200436","423151.843615","423918.403628","424684.992084","425451.637119","426218.467657","426985.008501","427751.073836","430826.887742","Mapping"
"Mixed","both","ball","12","M_park.wav","None","724.095691461","323","421618.455229","428517.767102","429284.822719","430051.002139","430817.554731","431584.490389","432350.594679","418484.798418","422385.200436","423151.843615","423918.403628","424684.992084","425451.637119","426218.467657","426985.008501","427751.073836","431593.824637","Mapping"
"Mixed","both","ball","12","F_greet.wav","None","725.450797472","323","421618.455229","428517.767102","429284.822719","430051.002139","430817.554731","431584.490389","432350.594679","433117.859916","422385.200436","423151.843615","423918.403628","424684.992084","425451.637119","426218.467657","426985.008501","427751.073836","432359.718999","Mapping"
