"Condition","Talker","Target","Trial","current_stimulus","response_response","response_time_response","subject_nr","time_Audio1","time_Audio10","time_Audio11","time_Audio12","time_Audio13","time_Audio14","time_Audio15","time_Audio16","time_Audio2","time_Audio3","time_Audio4","time_Audio5","time_Audio6","time_Audio7","time_Audio8","time_Audio9","time_response"
"Mixed","both","tile","30","M_depth.wav","NA","NA","331","30579.3458717","NA","NA","NA","NA","NA","NA","NA","NA","NA","NA","NA","NA","NA","NA","NA","NA"
"Mixed","both","tile","30","F_tile.wav","None","716.384931002","331","30579.3458717","NA","NA","NA","NA","NA","NA","NA","31328.9257106","NA","NA","NA","NA","NA","NA","NA","30593.0553735"
"Mixed","both","tile","30","F_depth.wav","space","421.946456656","331","30579.3458717","NA","NA","NA","NA","NA","NA","NA","31328.9257106","32096.0051594","NA","NA","NA","NA","NA","NA","31337.9540774"
"Mixed","both","tile","30","F_jolt.wav","None","734.881303739","331","30579.3458717","NA","NA","NA","NA","NA","NA","NA","31328.9257106","32096.0051594","32862.0235389","NA","NA","NA","NA","NA","32105.6237309"
"Mixed","both","tile","30","F_tile.wav","None","733.342567459","331","30579.3458717","NA","NA","NA","NA","NA","NA","NA","31328.9257106","32096.0051594","32862.0235389","33629.257882","NA","NA","NA","NA","32871.2738897"
"Mixed","both","tile","30","M_bluff.wav","space","401.21417027","331","30579.3458717","NA","NA","NA","NA","NA","NA","NA","31328.9257106","32096.0051594","32862.0235389","33629.257882","34395.623459","NA","NA","NA","33638.6257173"
"Mixed","both","tile","30","F_gnash.wav","None","731.495898217","331","30579.3458717","NA","NA","NA","NA","NA","NA","NA","31328.9257106","32096.0051594","32862.0235389","33629.257882","34395.623459","35162.1887595","NA","NA","34404.7396299"
"Mixed","both","tile","30","F_jolt.wav","None","732.428971212","331","30579.3458717","NA","NA","NA","NA","NA","NA","NA","31328.9257106","32096.0051594","32862.0235389","33629.257882","34395.623459","35162.1887595","35929.1766942","NA","35171.1843545"
"Mixed","both","tile","30","F_lash.wav","None","729.345005937","331","30579.3458717","NA","NA","NA","NA","NA","NA","NA","31328.9257106","32096.0051594","32862.0235389","33629.257882","34395.623459","35162.1887595","35929.1766942","36695.8817393","35938.5105208"
"Mixed","both","tile","30","M_tile.wav","None","730.36062764","331","30579.3458717","37462.6415069","NA","NA","NA","NA","NA","NA","31328.9257106","32096.0051594","32862.0235389","33629.257882","34395.623459","35162.1887595","35929.1766942","36695.8817393","36705.2013436"
"Mixed","both","tile","30","M_gnash.wav","space","383.904390037","331","30579.3458717","37462.6415069","38229.2432892","NA","NA","NA","NA","NA","31328.9257106","32096.0051594","32862.0235389","33629.257882","34395.623459","35162.1887595","35929.1766942","36695.8817393","37471.8337338"
"Mixed","both","tile","30","M_tile.wav","None","729.115602095","331","30579.3458717","37462.6415069","38229.2432892","38995.7671608","NA","NA","NA","NA","31328.9257106","32096.0051594","32862.0235389","33629.257882","34395.623459","35162.1887595","35929.1766942","36695.8817393","38238.3322534"
"Mixed","both","tile","30","M_jolt.wav","space","418.93607378","331","30579.3458717","37462.6415069","38229.2432892","38995.7671608","39762.8453732","NA","NA","NA","31328.9257106","32096.0051594","32862.0235389","33629.257882","34395.623459","35162.1887595","35929.1766942","36695.8817393","39004.7488431"
"Mixed","both","tile","30","F_depth.wav","None","730.555404443","331","30579.3458717","37462.6415069","38229.2432892","38995.7671608","39762.8453732","40528.8897231","NA","NA","31328.9257106","32096.0051594","32862.0235389","33629.257882","34395.623459","35162.1887595","35929.1766942","36695.8817393","39771.8759044"
"Mixed","both","tile","30","M_dime.wav","None","728.273733519","331","30579.3458717","37462.6415069","38229.2432892","38995.7671608","39762.8453732","40528.8897231","41295.5020173","NA","31328.9257106","32096.0051594","32862.0235389","33629.257882","34395.623459","35162.1887595","35929.1766942","36695.8817393","40538.1014277"
"Mixed","both","tile","30","M_jaw.wav","None","727.060861886","331","30579.3458717","37462.6415069","38229.2432892","38995.7671608","39762.8453732","40528.8897231","41295.5020173","42062.2407617","31328.9257106","32096.0051594","32862.0235389","33629.257882","34395.623459","35162.1887595","35929.1766942","36695.8817393","41304.303763"
"Mixed","both","done","43","M_cad.wav","None","724.399222061","331","45229.4621812","37462.6415069","38229.2432892","38995.7671608","39762.8453732","40528.8897231","41295.5020173","42062.2407617","31328.9257106","32096.0051594","32862.0235389","33629.257882","34395.623459","35162.1887595","35929.1766942","36695.8817393","42071.0647674"
"Mixed","both","done","43","M_knife.wav","None","726.227959618","331","45229.4621812","37462.6415069","38229.2432892","38995.7671608","39762.8453732","40528.8897231","41295.5020173","42062.2407617","45978.8657934","32096.0051594","32862.0235389","33629.257882","34395.623459","35162.1887595","35929.1766942","36695.8817393","45233.4863311"
"Mixed","both","done","43","F_cling.wav","None","735.679578967","331","45229.4621812","37462.6415069","38229.2432892","38995.7671608","39762.8453732","40528.8897231","41295.5020173","42062.2407617","45978.8657934","46762.849702","32862.0235389","33629.257882","34395.623459","35162.1887595","35929.1766942","36695.8817393","45988.2076583"
"Mixed","both","done","43","M_park.wav","None","720.235327259","331","45229.4621812","37462.6415069","38229.2432892","38995.7671608","39762.8453732","40528.8897231","41295.5020173","42062.2407617","45978.8657934","46762.849702","47529.1243829","33629.257882","34395.623459","35162.1887595","35929.1766942","36695.8817393","46772.3102877"
"Mixed","both","done","43","M_knife.wav","None","722.369214986","331","45229.4621812","37462.6415069","38229.2432892","38995.7671608","39762.8453732","40528.8897231","41295.5020173","42062.2407617","45978.8657934","46762.849702","47529.1243829","48279.3278163","34395.623459","35162.1887595","35929.1766942","36695.8817393","47537.7687612"
"Mixed","both","done","43","F_done.wav","None","735.882703681","331","45229.4621812","37462.6415069","38229.2432892","38995.7671608","39762.8453732","40528.8897231","41295.5020173","42062.2407617","45978.8657934","46762.849702","47529.1243829","48279.3278163","49062.7879915","35162.1887595","35929.1766942","36695.8817393","48288.5268447"
"Mixed","both","done","43","F_jaw.wav","space","271.100507118","331","45229.4621812","37462.6415069","38229.2432892","38995.7671608","39762.8453732","40528.8897231","41295.5020173","42062.2407617","45978.8657934","46762.849702","47529.1243829","48279.3278163","49062.7879915","49811.7377427","35929.1766942","36695.8817393","49072.2896969"
"Mixed","both","done","43","F_cad.wav","None","733.067715541","331","45229.4621812","37462.6415069","38229.2432892","38995.7671608","39762.8453732","40528.8897231","41295.5020173","42062.2407617","45978.8657934","46762.849702","47529.1243829","48279.3278163","49062.7879915","49811.7377427","50578.9720858","36695.8817393","49822.414292"
"Mixed","both","done","43","M_done.wav","None","731.277314946","331","45229.4621812","37462.6415069","38229.2432892","38995.7671608","39762.8453732","40528.8897231","41295.5020173","42062.2407617","45978.8657934","46762.849702","47529.1243829","48279.3278163","49062.7879915","49811.7377427","50578.9720858","51345.5577912","50588.0316789"
"Mixed","both","done","43","F_park.wav","space","387.149123475","331","45229.4621812","52112.3030283","38229.2432892","38995.7671608","39762.8453732","40528.8897231","41295.5020173","42062.2407617","45978.8657934","46762.849702","47529.1243829","48279.3278163","49062.7879915","49811.7377427","50578.9720858","51345.5577912","51356.1768355"
"Mixed","both","done","43","F_bluff.wav","None","729.578428902","331","45229.4621812","52112.3030283","52878.9233607","38995.7671608","39762.8453732","40528.8897231","41295.5020173","42062.2407617","45978.8657934","46762.849702","47529.1243829","48279.3278163","49062.7879915","49811.7377427","50578.9720858","51345.5577912","52120.8769162"
"Mixed","both","done","43","F_done.wav","None","727.059625089","331","45229.4621812","52112.3030283","52878.9233607","53646.0838122","39762.8453732","40528.8897231","41295.5020173","42062.2407617","45978.8657934","46762.849702","47529.1243829","48279.3278163","49062.7879915","49811.7377427","50578.9720858","51345.5577912","52888.0630289"
"Mixed","both","done","43","M_dime.wav","space","398.788735736","331","45229.4621812","52112.3030283","52878.9233607","53646.0838122","54412.69858","40528.8897231","41295.5020173","42062.2407617","45978.8657934","46762.849702","47529.1243829","48279.3278163","49062.7879915","49811.7377427","50578.9720858","51345.5577912","53656.4307869"
"Mixed","both","done","43","M_done.wav","None","720.929103903","331","45229.4621812","52112.3030283","52878.9233607","53646.0838122","54412.69858","55161.8990675","41295.5020173","42062.2407617","45978.8657934","46762.849702","47529.1243829","48279.3278163","49062.7879915","49811.7377427","50578.9720858","51345.5577912","54422.2404771"
"Mixed","both","done","43","F_dime.wav","space","588.566232938","331","45229.4621812","52112.3030283","52878.9233607","53646.0838122","54412.69858","55161.8990675","55928.6152427","42062.2407617","45978.8657934","46762.849702","47529.1243829","48279.3278163","49062.7879915","49811.7377427","50578.9720858","51345.5577912","55170.6167189"
"Mixed","both","done","43","M_park.wav","None","733.734594192","331","45229.4621812","52112.3030283","52878.9233607","53646.0838122","54412.69858","55161.8990675","55928.6152427","56695.4173665","45978.8657934","46762.849702","47529.1243829","48279.3278163","49062.7879915","49811.7377427","50578.9720858","51345.5577912","55937.8550812"
"Mixed","both","done","48","F_gnash.wav","None","730.971855577","331","59828.9374588","52112.3030283","52878.9233607","53646.0838122","54412.69858","55161.8990675","55928.6152427","56695.4173665","45978.8657934","46762.849702","47529.1243829","48279.3278163","49062.7879915","49811.7377427","50578.9720858","51345.5577912","56704.9026862"
"Mixed","both","done","48","F_lash.wav","None","721.246929839","331","59828.9374588","52112.3030283","52878.9233607","53646.0838122","54412.69858","55161.8990675","55928.6152427","56695.4173665","60578.0872428","46762.849702","47529.1243829","48279.3278163","49062.7879915","49811.7377427","50578.9720858","51345.5577912","59838.3281725"
"Mixed","both","done","48","M_park.wav","None","736.206403933","331","59828.9374588","52112.3030283","52878.9233607","53646.0838122","54412.69858","55161.8990675","55928.6152427","56695.4173665","60578.0872428","61345.218014","47529.1243829","48279.3278163","49062.7879915","49811.7377427","50578.9720858","51345.5577912","60587.0244047"
"Mixed","both","done","48","F_done.wav","None","732.928588986","331","59828.9374588","52112.3030283","52878.9233607","53646.0838122","54412.69858","55161.8990675","55928.6152427","56695.4173665","60578.0872428","61345.218014","62111.5066078","48279.3278163","49062.7879915","49811.7377427","50578.9720858","51345.5577912","61354.5042286"
"Mixed","both","done","48","M_cling.wav","space","302.767809015","331","59828.9374588","52112.3030283","52878.9233607","53646.0838122","54412.69858","55161.8990675","55928.6152427","56695.4173665","60578.0872428","61345.218014","62111.5066078","62878.5690526","49062.7879915","49811.7377427","50578.9720858","51345.5577912","62120.2088008"
"Mixed","both","done","48","M_jaw.wav","None","728.206643835","331","59828.9374588","52112.3030283","52878.9233607","53646.0838122","54412.69858","55161.8990675","55928.6152427","56695.4173665","60578.0872428","61345.218014","62111.5066078","62878.5690526","63645.1822743","49811.7377427","50578.9720858","51345.5577912","62887.8914397"
"Mixed","both","done","48","M_done.wav","None","726.093161386","331","59828.9374588","52112.3030283","52878.9233607","53646.0838122","54412.69858","55161.8990675","55928.6152427","56695.4173665","60578.0872428","61345.218014","62111.5066078","62878.5690526","63645.1822743","64412.3365423","50578.9720858","51345.5577912","63654.4119106"
"Mixed","both","done","48","M_lash.wav","space","600.735143293","331","59828.9374588","52112.3030283","52878.9233607","53646.0838122","54412.69858","55161.8990675","55928.6152427","56695.4173665","60578.0872428","61345.218014","62111.5066078","62878.5690526","63645.1822743","64412.3365423","65179.0517899","51345.5577912","64422.1041333"
"Mixed","both","done","48","F_park.wav","None","723.042895552","331","59828.9374588","52112.3030283","52878.9233607","53646.0838122","54412.69858","55161.8990675","55928.6152427","56695.4173665","60578.0872428","61345.218014","62111.5066078","62878.5690526","63645.1822743","64412.3365423","65179.0517899","65944.987312","65188.6685062"
"Mixed","both","done","48","M_lash.wav","None","721.925247461","331","59828.9374588","66694.901363","52878.9233607","53646.0838122","54412.69858","55161.8990675","55928.6152427","56695.4173665","60578.0872428","61345.218014","62111.5066078","62878.5690526","63645.1822743","64412.3365423","65179.0517899","65944.987312","65954.1495494"
"Mixed","both","done","48","F_lash.wav","None","735.988130327","331","59828.9374588","66694.901363","67461.8834234","53646.0838122","54412.69858","55161.8990675","55928.6152427","56695.4173665","60578.0872428","61345.218014","62111.5066078","62878.5690526","63645.1822743","64412.3365423","65179.0517899","65944.987312","66703.9810517"
"Mixed","both","done","48","F_done.wav","None","732.917459216","331","59828.9374588","66694.901363","67461.8834234","68228.4388305","54412.69858","55161.8990675","55928.6152427","56695.4173665","60578.0872428","61345.218014","62111.5066078","62878.5690526","63645.1822743","64412.3365423","65179.0517899","65944.987312","67471.3316425"
"Mixed","both","done","48","M_jolt.wav","space","264.950816985","331","59828.9374588","66694.901363","67461.8834234","68228.4388305","68995.0770945","55161.8990675","55928.6152427","56695.4173665","60578.0872428","61345.218014","62111.5066078","62878.5690526","63645.1822743","64412.3365423","65179.0517899","65944.987312","68237.8484034"
"Mixed","both","done","48","F_jaw.wav","None","727.858828381","331","59828.9374588","66694.901363","67461.8834234","68228.4388305","68995.0770945","69761.8418094","55928.6152427","56695.4173665","60578.0872428","61345.218014","62111.5066078","62878.5690526","63645.1822743","64412.3365423","65179.0517899","65944.987312","69004.9096113"
"Mixed","both","done","48","M_done.wav","None","725.463692565","331","59828.9374588","66694.901363","67461.8834234","68228.4388305","68995.0770945","69761.8418094","70528.717516","56695.4173665","60578.0872428","61345.218014","62111.5066078","62878.5690526","63645.1822743","64412.3365423","65179.0517899","65944.987312","69771.6183662"
"Mixed","both","done","48","F_greet.wav","space","364.658589941","331","59828.9374588","66694.901363","67461.8834234","68228.4388305","68995.0770945","69761.8418094","70528.717516","71295.3857696","60578.0872428","61345.218014","62111.5066078","62878.5690526","63645.1822743","64412.3365423","65179.0517899","65944.987312","70538.0924619"
"Mixed","both","done","45","M_knife.wav","None","723.007031716","331","74412.0981726","66694.901363","67461.8834234","68228.4388305","68995.0770945","69761.8418094","70528.717516","71295.3857696","60578.0872428","61345.218014","62111.5066078","62878.5690526","63645.1822743","64412.3365423","65179.0517899","65944.987312","71305.2402372"
"Mixed","both","done","45","M_done.wav","None","720.161126927","331","74412.0981726","66694.901363","67461.8834234","68228.4388305","68995.0770945","69761.8418094","70528.717516","71295.3857696","75177.7545149","61345.218014","62111.5066078","62878.5690526","63645.1822743","64412.3365423","65179.0517899","65944.987312","74421.7498251"
"Mixed","both","done","45","M_greet.wav","None","721.404606476","331","74412.0981726","66694.901363","67461.8834234","68228.4388305","68995.0770945","69761.8418094","70528.717516","71295.3857696","75177.7545149","75945.1969289","62111.5066078","62878.5690526","63645.1822743","64412.3365423","65179.0517899","65944.987312","75186.7624763"
"Mixed","both","done","45","F_jolt.wav","space","0.0278251245618","331","74412.0981726","66694.901363","67461.8834234","68228.4388305","68995.0770945","69761.8418094","70528.717516","71295.3857696","75177.7545149","75945.1969289","76694.2610727","62878.5690526","63645.1822743","64412.3365423","65179.0517899","65944.987312","75954.8383788"
"Mixed","both","done","45","M_jolt.wav","None","736.713751219","331","74412.0981726","66694.901363","67461.8834234","68228.4388305","68995.0770945","69761.8418094","70528.717516","71295.3857696","75177.7545149","75945.1969289","76694.2610727","77461.5572495","63645.1822743","64412.3365423","65179.0517899","65944.987312","76703.0148972"
"Mixed","both","done","45","M_cling.wav","None","733.506736346","331","74412.0981726","66694.901363","67461.8834234","68228.4388305","68995.0770945","69761.8418094","70528.717516","71295.3857696","75177.7545149","75945.1969289","76694.2610727","77461.5572495","78227.594798","64412.3365423","65179.0517899","65944.987312","77470.7092843"
"Mixed","both","done","45","F_done.wav","None","732.441029046","331","74412.0981726","66694.901363","67461.8834234","68228.4388305","68995.0770945","69761.8418094","70528.717516","71295.3857696","75177.7545149","75945.1969289","76694.2610727","77461.5572495","78227.594798","78994.3758985","65179.0517899","65944.987312","78236.2815323"
"Mixed","both","done","45","M_knife.wav","space","315.10799937","331","74412.0981726","66694.901363","67461.8834234","68228.4388305","68995.0770945","69761.8418094","70528.717516","71295.3857696","75177.7545149","75945.1969289","76694.2610727","77461.5572495","78227.594798","78994.3758985","79761.5545909","65944.987312","79003.4073568"
"Mixed","both","done","45","F_gnash.wav","None","725.944141857","331","74412.0981726","66694.901363","67461.8834234","68228.4388305","68995.0770945","69761.8418094","70528.717516","71295.3857696","75177.7545149","75945.1969289","76694.2610727","77461.5572495","78227.594798","78994.3758985","79761.5545909","80527.8549329","79770.3832341"
"Mixed","both","done","45","M_cad.wav","None","723.039185628","331","74412.0981726","81294.9721008","67461.8834234","68228.4388305","68995.0770945","69761.8418094","70528.717516","71295.3857696","75177.7545149","75945.1969289","76694.2610727","77461.5572495","78227.594798","78994.3758985","79761.5545909","80527.8549329","80537.5600718"
"Mixed","both","done","45","F_done.wav","None","720.271809492","331","74412.0981726","81294.9721008","82044.5126751","68228.4388305","68995.0770945","69761.8418094","70528.717516","71295.3857696","75177.7545149","75945.1969289","76694.2610727","77461.5572495","78227.594798","78994.3758985","79761.5545909","80527.8549329","81304.9054067"
"Mixed","both","done","45","F_greet.wav","space","288.536738139","331","74412.0981726","81294.9721008","82044.5126751","82811.3800338","68995.0770945","69761.8418094","70528.717516","71295.3857696","75177.7545149","75945.1969289","76694.2610727","77461.5572495","78227.594798","78994.3758985","79761.5545909","80527.8549329","82053.851448"
"Mixed","both","done","45","F_depth.wav","None","732.666722499","331","74412.0981726","81294.9721008","82044.5126751","82811.3800338","83577.9876905","69761.8418094","70528.717516","71295.3857696","75177.7545149","75945.1969289","76694.2610727","77461.5572495","78227.594798","78994.3758985","79761.5545909","80527.8549329","82820.5413437"
"Mixed","both","done","45","M_done.wav","None","730.563442688","331","74412.0981726","81294.9721008","82044.5126751","82811.3800338","83577.9876905","84344.5869992","70528.717516","71295.3857696","75177.7545149","75945.1969289","76694.2610727","77461.5572495","78227.594798","78994.3758985","79761.5545909","80527.8549329","83587.2559729"
"Mixed","both","done","45","F_gnash.wav","space","380.56628732","331","74412.0981726","81294.9721008","82044.5126751","82811.3800338","83577.9876905","84344.5869992","85111.3835583","71295.3857696","75177.7545149","75945.1969289","76694.2610727","77461.5572495","78227.594798","78994.3758985","79761.5545909","80527.8549329","84353.7616031"
"Mixed","both","done","45","F_lash.wav","None","725.959909614","331","74412.0981726","81294.9721008","82044.5126751","82811.3800338","83577.9876905","84344.5869992","85111.3835583","85877.5648703","75177.7545149","75945.1969289","76694.2610727","77461.5572495","78227.594798","78994.3758985","79761.5545909","80527.8549329","85120.2520845"
"Mixed","both","cave","23","M_dime.wav","None","724.229797255","331","88994.9256019","81294.9721008","82044.5126751","82811.3800338","83577.9876905","84344.5869992","85111.3835583","85877.5648703","75177.7545149","75945.1969289","76694.2610727","77461.5572495","78227.594798","78994.3758985","79761.5545909","80527.8549329","85886.7524592"
"Mixed","both","cave","23","M_jolt.wav","None","726.440358907","331","88994.9256019","81294.9721008","82044.5126751","82811.3800338","83577.9876905","84344.5869992","85111.3835583","85877.5648703","89761.6142607","75945.1969289","76694.2610727","77461.5572495","78227.594798","78994.3758985","79761.5545909","80527.8549329","88999.2332598"
"Mixed","both","cave","23","M_park.wav","None","718.732764013","331","88994.9256019","81294.9721008","82044.5126751","82811.3800338","83577.9876905","84344.5869992","85111.3835583","85877.5648703","89761.6142607","90511.1919353","76694.2610727","77461.5572495","78227.594798","78994.3758985","79761.5545909","80527.8549329","89771.2501455"
"Mixed","both","cave","23","F_depth.wav","None","733.752525877","331","88994.9256019","81294.9721008","82044.5126751","82811.3800338","83577.9876905","84344.5869992","85111.3835583","85877.5648703","89761.6142607","90511.1919353","91277.2727669","77461.5572495","78227.594798","78994.3758985","79761.5545909","80527.8549329","90520.2063895"
"Mixed","both","cave","23","F_cave.wav","space","311.870685313","331","88994.9256019","81294.9721008","82044.5126751","82811.3800338","83577.9876905","84344.5869992","85111.3835583","85877.5648703","89761.6142607","90511.1919353","91277.2727669","92044.3076957","78227.594798","78994.3758985","79761.5545909","80527.8549329","91286.2699078"
"Mixed","both","cave","23","F_greet.wav","space","584.564652294","331","88994.9256019","81294.9721008","82044.5126751","82811.3800338","83577.9876905","84344.5869992","85111.3835583","85877.5648703","89761.6142607","90511.1919353","91277.2727669","92044.3076957","92811.165161","78994.3758985","79761.5545909","80527.8549329","92053.5388775"
"Mixed","both","cave","23","F_priest.wav","None","728.438211605","331","88994.9256019","81294.9721008","82044.5126751","82811.3800338","83577.9876905","84344.5869992","85111.3835583","85877.5648703","89761.6142607","90511.1919353","91277.2727669","92044.3076957","92811.165161","93577.1625172","79761.5545909","80527.8549329","92820.4739448"
"Mixed","both","cave","23","F_cave.wav","None","727.75123734","331","88994.9256019","81294.9721008","82044.5126751","82811.3800338","83577.9876905","84344.5869992","85111.3835583","85877.5648703","89761.6142607","90511.1919353","91277.2727669","92044.3076957","92811.165161","93577.1625172","94343.8876579","80527.8549329","93585.8798595"
"Mixed","both","cave","23","F_depth.wav","space","405.197200365","331","88994.9256019","81294.9721008","82044.5126751","82811.3800338","83577.9876905","84344.5869992","85111.3835583","85877.5648703","89761.6142607","90511.1919353","91277.2727669","92044.3076957","92811.165161","93577.1625172","94343.8876579","95111.656555","94352.8322401"
"Mixed","both","cave","23","M_reek.wav","None","720.717631746","331","88994.9256019","95877.9191785","82044.5126751","82811.3800338","83577.9876905","84344.5869992","85111.3835583","85877.5648703","89761.6142607","90511.1919353","91277.2727669","92044.3076957","92811.165161","93577.1625172","94343.8876579","95111.656555","95121.2117467"
"Mixed","both","cave","23","M_cave.wav","None","718.751004897","331","88994.9256019","95877.9191785","96644.7812812","82811.3800338","83577.9876905","84344.5869992","85111.3835583","85877.5648703","89761.6142607","90511.1919353","91277.2727669","92044.3076957","92811.165161","93577.1625172","94343.8876579","95111.656555","95887.7050104"
"Mixed","both","cave","23","F_jolt.wav","space","551.511344034","331","88994.9256019","95877.9191785","96644.7812812","97394.0871959","83577.9876905","84344.5869992","85111.3835583","85877.5648703","89761.6142607","90511.1919353","91277.2727669","92044.3076957","92811.165161","93577.1625172","94343.8876579","95111.656555","96654.4255139"
"Mixed","both","cave","23","M_depth.wav","None","734.447229654","331","88994.9256019","95877.9191785","96644.7812812","97394.0871959","98160.3825912","84344.5869992","85111.3835583","85877.5648703","89761.6142607","90511.1919353","91277.2727669","92044.3076957","92811.165161","93577.1625172","94343.8876579","95111.656555","97403.3743376"
"Mixed","both","cave","23","F_gnash.wav","None","733.115327545","331","88994.9256019","95877.9191785","96644.7812812","97394.0871959","98160.3825912","98927.4450359","85111.3835583","85877.5648703","89761.6142607","90511.1919353","91277.2727669","92044.3076957","92811.165161","93577.1625172","94343.8876579","95111.656555","98169.3324293"
"Mixed","both","cave","23","M_cave.wav","None","729.701478034","331","88994.9256019","95877.9191785","96644.7812812","97394.0871959","98160.3825912","98927.4450359","99694.3358919","85877.5648703","89761.6142607","90511.1919353","91277.2727669","92044.3076957","92811.165161","93577.1625172","94343.8876579","95111.656555","98936.5466763"
"Mixed","both","cave","23","M_gnash.wav","space","486.295444891","331","88994.9256019","95877.9191785","96644.7812812","97394.0871959","98160.3825912","98927.4450359","99694.3358919","100461.308678","89761.6142607","90511.1919353","91277.2727669","92044.3076957","92811.165161","93577.1625172","94343.8876579","95111.656555","99703.5831506"
"Mixed","both","ball","10","F_knife.wav","None","724.07150222","331","103594.499813","95877.9191785","96644.7812812","97394.0871959","98160.3825912","98927.4450359","99694.3358919","100461.308678","89761.6142607","90511.1919353","91277.2727669","92044.3076957","92811.165161","93577.1625172","94343.8876579","95111.656555","100470.699082"
"Mixed","both","ball","10","M_priest.wav","None","721.282793675","331","103594.499813","95877.9191785","96644.7812812","97394.0871959","98160.3825912","98927.4450359","99694.3358919","100461.308678","104361.189091","90511.1919353","91277.2727669","92044.3076957","92811.165161","93577.1625172","94343.8876579","95111.656555","103603.87074"
"Mixed","both","ball","10","M_cling.wav","None","727.94384975","331","103594.499813","95877.9191785","96644.7812812","97394.0871959","98160.3825912","98927.4450359","99694.3358919","100461.308678","104361.189091","105127.916086","91277.2727669","92044.3076957","92811.165161","93577.1625172","94343.8876579","95111.656555","104365.350203"
"Mixed","both","ball","10","M_ball.wav","None","719.530730043","331","103594.499813","95877.9191785","96644.7812812","97394.0871959","98160.3825912","98927.4450359","99694.3358919","100461.308678","104361.189091","105127.916086","105877.156767","92044.3076957","92811.165161","93577.1625172","94343.8876579","95111.656555","105137.92483"
"Mixed","both","ball","10","M_gnash.wav","space","399.469217751","331","103594.499813","95877.9191785","96644.7812812","97394.0871959","98160.3825912","98927.4450359","99694.3358919","100461.308678","104361.189091","105127.916086","105877.156767","106660.006023","92811.165161","93577.1625172","94343.8876579","95111.656555","105886.215741"
"Mixed","both","ball","10","F_knife.wav","None","724.199807271","331","103594.499813","95877.9191785","96644.7812812","97394.0871959","98160.3825912","98927.4450359","99694.3358919","100461.308678","104361.189091","105127.916086","105877.156767","106660.006023","107427.121645","93577.1625172","94343.8876579","95111.656555","106668.8223"
"Mixed","both","ball","10","F_ball.wav","None","721.7882853","331","103594.499813","95877.9191785","96644.7812812","97394.0871959","98160.3825912","98927.4450359","99694.3358919","100461.308678","104361.189091","105127.916086","105877.156767","106660.006023","107427.121645","108176.800727","94343.8876579","95111.656555","107435.895256"
"Mixed","both","ball","10","F_knife.wav","space","300.015273038","331","103594.499813","95877.9191785","96644.7812812","97394.0871959","98160.3825912","98927.4450359","99694.3358919","100461.308678","104361.189091","105127.916086","105877.156767","106660.006023","107427.121645","108176.800727","108943.593267","95111.656555","108185.600617"
"Mixed","both","ball","10","M_ball.wav","None","733.638751786","331","103594.499813","95877.9191785","96644.7812812","97394.0871959","98160.3825912","98927.4450359","99694.3358919","100461.308678","104361.189091","105127.916086","105877.156767","106660.006023","107427.121645","108176.800727","108943.593267","109710.632524","108952.66399"
"Mixed","both","ball","10","M_reek.wav","space","389.789121691","331","103594.499813","110477.049114","96644.7812812","97394.0871959","98160.3825912","98927.4450359","99694.3358919","100461.308678","104361.189091","105127.916086","105877.156767","106660.006023","107427.121645","108176.800727","108943.593267","109710.632524","109719.784559"
"Mixed","both","ball","10","F_cad.wav","None","729.050985537","331","103594.499813","110477.049114","111243.456119","97394.0871959","98160.3825912","98927.4450359","99694.3358919","100461.308678","104361.189091","105127.916086","105877.156767","106660.006023","107427.121645","108176.800727","108943.593267","109710.632524","110486.274422"
"Mixed","both","ball","10","F_ball.wav","None","728.085449431","331","103594.499813","110477.049114","111243.456119","112010.525057","98160.3825912","98927.4450359","99694.3358919","100461.308678","104361.189091","105127.916086","105877.156767","106660.006023","107427.121645","108176.800727","108943.593267","109710.632524","111252.202523"
"Mixed","both","ball","10","F_lash.wav","space","457.790947054","331","103594.499813","110477.049114","111243.456119","112010.525057","112777.452085","98927.4450359","99694.3358919","100461.308678","104361.189091","105127.916086","105877.156767","106660.006023","107427.121645","108176.800727","108943.593267","109710.632524","112019.672763"
"Mixed","both","ball","10","M_greet.wav","None","721.815801691","331","103594.499813","110477.049114","111243.456119","112010.525057","112777.452085","113544.042737","99694.3358919","100461.308678","104361.189091","105127.916086","105877.156767","106660.006023","107427.121645","108176.800727","108943.593267","109710.632524","112786.937714"
"Mixed","both","ball","10","M_cling.wav","None","719.302562997","331","103594.499813","110477.049114","111243.456119","112010.525057","112777.452085","113544.042737","114293.548685","100461.308678","104361.189091","105127.916086","105877.156767","106660.006023","107427.121645","108176.800727","108943.593267","109710.632524","113554.042824"
"Mixed","both","ball","10","F_romp.wav","None","735.175014939","331","103594.499813","110477.049114","111243.456119","112010.525057","112777.452085","113544.042737","114293.548685","115059.878089","104361.189091","105127.916086","105877.156767","106660.006023","107427.121645","108176.800727","108943.593267","109710.632524","114302.872617"
"Mixed","both","ball","5","F_park.wav","None","734.185053967","331","118193.27204","110477.049114","111243.456119","112010.525057","112777.452085","113544.042737","114293.548685","115059.878089","104361.189091","105127.916086","105877.156767","106660.006023","107427.121645","108176.800727","108943.593267","109710.632524","115068.512264"
"Mixed","both","ball","5","F_cling.wav","None","722.497210838","331","118193.27204","110477.049114","111243.456119","112010.525057","112777.452085","113544.042737","114293.548685","115059.878089","118960.430945","105127.916086","105877.156767","106660.006023","107427.121645","108176.800727","108943.593267","109710.632524","118202.3811"
"Mixed","both","ball","5","M_romp.wav","None","718.963713385","331","118193.27204","110477.049114","111243.456119","112010.525057","112777.452085","113544.042737","114293.548685","115059.878089","118960.430945","119710.165678","105877.156767","106660.006023","107427.121645","108176.800727","108943.593267","109710.632524","118970.394859"
"Mixed","both","ball","5","F_jaw.wav","None","734.63613214","331","118193.27204","110477.049114","111243.456119","112010.525057","112777.452085","113544.042737","114293.548685","115059.878089","118960.430945","119710.165678","120476.88649","106660.006023","107427.121645","108176.800727","108943.593267","109710.632524","119719.123864"
"Mixed","both","ball","5","M_ball.wav","None","732.362499926","331","118193.27204","110477.049114","111243.456119","112010.525057","112777.452085","113544.042737","114293.548685","115059.878089","118960.430945","119710.165678","120476.88649","121243.636056","107427.121645","108176.800727","108943.593267","109710.632524","120486.04409"
"Mixed","both","ball","5","F_jolt.wav","space","304.58881706","331","118193.27204","110477.049114","111243.456119","112010.525057","112777.452085","113544.042737","114293.548685","115059.878089","118960.430945","119710.165678","120476.88649","121243.636056","122009.829116","108176.800727","108943.593267","109710.632524","121252.661949"
"Mixed","both","ball","5","M_ball.wav","None","728.762221523","331","118193.27204","110477.049114","111243.456119","112010.525057","112777.452085","113544.042737","114293.548685","115059.878089","118960.430945","119710.165678","120476.88649","121243.636056","122009.829116","122776.732648","108943.593267","109710.632524","122018.855319"
"Mixed","both","ball","5","M_knife.wav","space","387.349156197","331","118193.27204","110477.049114","111243.456119","112010.525057","112777.452085","113544.042737","114293.548685","115059.878089","118960.430945","119710.165678","120476.88649","121243.636056","122009.829116","122776.732648","123543.254046","109710.632524","122785.848819"
"Mixed","both","ball","5","F_greet.wav","None","724.291631021","331","118193.27204","110477.049114","111243.456119","112010.525057","112777.452085","113544.042737","114293.548685","115059.878089","118960.430945","119710.165678","120476.88649","121243.636056","122009.829116","122776.732648","123543.254046","124310.493336","123552.140504"
"Mixed","both","ball","5","M_priest.wav","None","720.96620407","331","118193.27204","125077.018135","111243.456119","112010.525057","112777.452085","113544.042737","114293.548685","115059.878089","118960.430945","119710.165678","120476.88649","121243.636056","122009.829116","122776.732648","123543.254046","124310.493336","124320.238357"
"Mixed","both","ball","5","M_knife.wav","None","719.580197707","331","118193.27204","125077.018135","125826.564583","112010.525057","112777.452085","113544.042737","114293.548685","115059.878089","118960.430945","119710.165678","120476.88649","121243.636056","122009.829116","122776.732648","123543.254046","124310.493336","125086.061651"
"Mixed","both","ball","5","M_depth.wav","None","734.710642137","331","118193.27204","125077.018135","125826.564583","126593.341046","112777.452085","113544.042737","114293.548685","115059.878089","118960.430945","119710.165678","120476.88649","121243.636056","122009.829116","122776.732648","123543.254046","124310.493336","125835.824518"
"Mixed","both","ball","5","F_ball.wav","None","732.655901928","331","118193.27204","125077.018135","125826.564583","126593.341046","127359.50659","113544.042737","114293.548685","115059.878089","118960.430945","119710.165678","120476.88649","121243.636056","122009.829116","122776.732648","123543.254046","124310.493336","126602.514723"
"Mixed","both","ball","5","M_romp.wav","space","372.745845467","331","118193.27204","125077.018135","125826.564583","126593.341046","127359.50659","128126.119503","114293.548685","115059.878089","118960.430945","119710.165678","120476.88649","121243.636056","122009.829116","122776.732648","123543.254046","124310.493336","127368.311428"
"Mixed","both","ball","5","F_ball.wav","None","729.208971374","331","118193.27204","125077.018135","125826.564583","126593.341046","127359.50659","128126.119503","128893.225231","115059.878089","118960.430945","119710.165678","120476.88649","121243.636056","122009.829116","122776.732648","123543.254046","124310.493336","128134.784905"
"Mixed","both","ball","5","F_cling.wav","space","710.586766712","331","118193.27204","125077.018135","125826.564583","126593.341046","127359.50659","128126.119503","128893.225231","129660.22306","118960.430945","119710.165678","120476.88649","121243.636056","122009.829116","122776.732648","123543.254046","124310.493336","128902.402927"
"Mixed","both","ball","12","F_reek.wav","None","723.292704206","331","132776.819524","125077.018135","125826.564583","126593.341046","127359.50659","128126.119503","128893.225231","129660.22306","118960.430945","119710.165678","120476.88649","121243.636056","122009.829116","122776.732648","123543.254046","124310.493336","129669.821844"
"Mixed","both","ball","12","M_cling.wav","None","723.738526925","331","132776.819524","125077.018135","125826.564583","126593.341046","127359.50659","128126.119503","128893.225231","129660.22306","133543.573418","119710.165678","120476.88649","121243.636056","122009.829116","122776.732648","123543.254046","124310.493336","132786.179012"
"Mixed","both","ball","12","M_jolt.wav","None","721.327004954","331","132776.819524","125077.018135","125826.564583","126593.341046","127359.50659","128126.119503","128893.225231","129660.22306","133543.573418","134310.297941","120476.88649","121243.636056","122009.829116","122776.732648","123543.254046","124310.493336","133553.291233"
"Mixed","both","ball","12","F_ball.wav","None","719.56442995","331","132776.819524","125077.018135","125826.564583","126593.341046","127359.50659","128126.119503","128893.225231","129660.22306","133543.573418","134310.297941","135059.0996","121243.636056","122009.829116","122776.732648","123543.254046","124310.493336","134319.829017"
"Mixed","both","ball","12","F_lash.wav","space","374.186266214","331","132776.819524","125077.018135","125826.564583","126593.341046","127359.50659","128126.119503","128893.225231","129660.22306","133543.573418","134310.297941","135059.0996","135826.371043","122009.829116","122776.732648","123543.254046","124310.493336","135062.626296"
"Mixed","both","ball","12","M_ball.wav","None","732.607362326","331","132776.819524","125077.018135","125826.564583","126593.341046","127359.50659","128126.119503","128893.225231","129660.22306","133543.573418","134310.297941","135059.0996","135826.371043","136593.218615","122776.732648","123543.254046","124310.493336","135835.641181"
"Mixed","both","ball","12","F_priest.wav","space","474.623369519","331","132776.819524","125077.018135","125826.564583","126593.341046","127359.50659","128126.119503","128893.225231","129660.22306","133543.573418","134310.297941","135059.0996","135826.371043","136593.218615","137359.805557","123543.254046","124310.493336","136602.141246"
"Mixed","both","ball","12","M_cad.wav","None","727.457835339","331","132776.819524","125077.018135","125826.564583","126593.341046","127359.50659","128126.119503","128893.225231","129660.22306","133543.573418","134310.297941","135059.0996","135826.371043","136593.218615","137359.805557","138126.393427","124310.493336","137369.151751"
"Mixed","both","ball","12","M_jaw.wav","None","725.033328403","331","132776.819524","125077.018135","125826.564583","126593.341046","127359.50659","128126.119503","128893.225231","129660.22306","133543.573418","134310.297941","135059.0996","135826.371043","136593.218615","137359.805557","138126.393427","138892.428192","138135.855868"
"Mixed","both","ball","12","F_jaw.wav","None","727.059625555","331","132776.819524","139660.066929","125826.564583","126593.341046","127359.50659","128126.119503","128893.225231","129660.22306","133543.573418","134310.297941","135059.0996","135826.371043","136593.218615","137359.805557","138126.393427","138892.428192","138901.118637"
"Mixed","both","ball","12","M_knife.wav","None","723.259313963","331","132776.819524","139660.066929","140426.026257","126593.341046","127359.50659","128126.119503","128893.225231","129660.22306","133543.573418","134310.297941","135059.0996","135826.371043","136593.218615","137359.805557","138126.393427","138892.428192","139669.776706"
"Mixed","both","ball","12","F_ball.wav","None","723.098855","331","132776.819524","139660.066929","140426.026257","141193.036762","127359.50659","128126.119503","128893.225231","129660.22306","133543.573418","134310.297941","135059.0996","135826.371043","136593.218615","137359.805557","138126.393427","138892.428192","140435.097599"
"Mixed","both","ball","12","F_jaw.wav","space","450.045942329","331","132776.819524","139660.066929","140426.026257","141193.036762","141942.74707","128126.119503","128893.225231","129660.22306","133543.573418","134310.297941","135059.0996","135826.371043","136593.218615","137359.805557","138126.393427","138892.428192","141202.578968"
"Mixed","both","ball","12","F_reek.wav","None","734.179180115","331","132776.819524","139660.066929","140426.026257","141193.036762","141942.74707","142709.190248","128893.225231","129660.22306","133543.573418","134310.297941","135059.0996","135826.371043","136593.218615","137359.805557","138126.393427","138892.428192","141952.620706"
"Mixed","both","ball","12","M_ball.wav","None","733.310104348","331","132776.819524","139660.066929","140426.026257","141193.036762","141942.74707","142709.190248","143476.144175","129660.22306","133543.573418","134310.297941","135059.0996","135826.371043","136593.218615","137359.805557","138126.393427","138892.428192","142718.0158"
"Mixed","both","ball","12","M_park.wav","space","623.519078363","331","132776.819524","139660.066929","140426.026257","141193.036762","141942.74707","142709.190248","143476.144175","144242.96825","133543.573418","134310.297941","135059.0996","135826.371043","136593.218615","137359.805557","138126.393427","138892.428192","143485.02414"
"Mixed","both","tile","33","F_priest.wav","None","727.644883096","331","147375.857636","139660.066929","140426.026257","141193.036762","141942.74707","142709.190248","143476.144175","144242.96825","133543.573418","134310.297941","135059.0996","135826.371043","136593.218615","137359.805557","138126.393427","138892.428192","144252.068035"
"Mixed","both","tile","33","M_bluff.wav","None","722.530292347","331","147375.857636","139660.066929","140426.026257","141193.036762","141942.74707","142709.190248","143476.144175","144242.96825","148142.55186","134310.297941","135059.0996","135826.371043","136593.218615","137359.805557","138126.393427","138892.428192","147384.658764"
"Mixed","both","tile","33","F_park.wav","None","720.502140932","331","147375.857636","139660.066929","140426.026257","141193.036762","141942.74707","142709.190248","143476.144175","144242.96825","148142.55186","148892.038948","135059.0996","135826.371043","136593.218615","137359.805557","138126.393427","138892.428192","148151.63495"
"Mixed","both","tile","33","M_tile.wav","None","736.114889849","331","147375.857636","139660.066929","140426.026257","141193.036762","141942.74707","142709.190248","143476.144175","144242.96825","148142.55186","148892.038948","149659.399123","135826.371043","136593.218615","137359.805557","138126.393427","138892.428192","148901.062987"
"Mixed","both","tile","33","M_cling.wav","space","424.160110299","331","147375.857636","139660.066929","140426.026257","141193.036762","141942.74707","142709.190248","143476.144175","144242.96825","148142.55186","148892.038948","149659.399123","150425.901044","136593.218615","137359.805557","138126.393427","138892.428192","149668.241679"
"Mixed","both","tile","33","M_park.wav","None","729.923771229","331","147375.857636","139660.066929","140426.026257","141193.036762","141942.74707","142709.190248","143476.144175","144242.96825","148142.55186","148892.038948","149659.399123","150425.901044","151192.786025","137359.805557","138126.393427","138892.428192","150435.340606"
"Mixed","both","tile","33","F_jolt.wav","None","728.014649823","331","147375.857636","139660.066929","140426.026257","141193.036762","141942.74707","142709.190248","143476.144175","144242.96825","148142.55186","148892.038948","149659.399123","150425.901044","151192.786025","151959.284854","138126.393427","138892.428192","151202.194052"
"Mixed","both","tile","33","F_tile.wav","None","726.458290592","331","147375.857636","139660.066929","140426.026257","141193.036762","141942.74707","142709.190248","143476.144175","144242.96825","148142.55186","148892.038948","149659.399123","150425.901044","151192.786025","151959.284854","152725.887873","138892.428192","151968.733382"
"Mixed","both","tile","33","F_jaw.wav","space","445.377483498","331","147375.857636","139660.066929","140426.026257","141193.036762","141942.74707","142709.190248","143476.144175","144242.96825","148142.55186","148892.038948","149659.399123","150425.901044","151192.786025","151959.284854","152725.887873","153492.952173","152734.906347"
"Mixed","both","tile","33","M_tile.wav","None","722.717958037","331","147375.857636","154259.145233","140426.026257","141193.036762","141942.74707","142709.190248","143476.144175","144242.96825","148142.55186","148892.038948","149659.399123","150425.901044","151192.786025","151959.284854","152725.887873","153492.952173","153502.277652"
"Mixed","both","tile","33","M_park.wav","None","721.413572319","331","147375.857636","154259.145233","155025.959724","141193.036762","141942.74707","142709.190248","143476.144175","144242.96825","148142.55186","148892.038948","149659.399123","150425.901044","151192.786025","151959.284854","152725.887873","153492.952173","154268.852227"
"Mixed","both","tile","33","F_tile.wav","space","57.1493585594","331","147375.857636","154259.145233","155025.959724","155775.735576","141942.74707","142709.190248","143476.144175","144242.96825","148142.55186","148892.038948","149659.399123","150425.901044","151192.786025","151959.284854","152725.887873","153492.952173","155035.080842"
"Mixed","both","tile","33","F_reek.wav","space","490.887229796","331","147375.857636","154259.145233","155025.959724","155775.735576","156542.579129","142709.190248","143476.144175","144242.96825","148142.55186","148892.038948","149659.399123","150425.901044","151192.786025","151959.284854","152725.887873","153492.952173","155785.326941"
"Mixed","both","tile","33","M_priest.wav","None","731.337293983","331","147375.857636","154259.145233","155025.959724","155775.735576","156542.579129","157308.752093","143476.144175","144242.96825","148142.55186","148892.038948","149659.399123","150425.901044","151192.786025","151959.284854","152725.887873","153492.952173","156551.632539"
"Mixed","both","tile","33","M_romp.wav","None","729.919442907","331","147375.857636","154259.145233","155025.959724","155775.735576","156542.579129","157308.752093","158075.640476","144242.96825","148142.55186","148892.038948","149659.399123","150425.901044","151192.786025","151959.284854","152725.887873","153492.952173","157317.630204"
"Mixed","both","tile","33","F_knife.wav","None","727.880161256","331","147375.857636","154259.145233","155025.959724","155775.735576","156542.579129","157308.752093","158075.640476","158842.327898","148142.55186","148892.038948","149659.399123","150425.901044","151192.786025","151959.284854","152725.887873","153492.952173","158084.634216"
"Mixed","both","done","44","M_cling.wav","None","725.827275775","331","161975.880762","154259.145233","155025.959724","155775.735576","156542.579129","157308.752093","158075.640476","158842.327898","148142.55186","148892.038948","149659.399123","150425.901044","151192.786025","151959.284854","152725.887873","153492.952173","158851.669763"
"Mixed","both","done","44","M_done.wav","None","720.844082069","331","161975.880762","154259.145233","155025.959724","155775.735576","156542.579129","157308.752093","158075.640476","158842.327898","162742.521191","148892.038948","149659.399123","150425.901044","151192.786025","151959.284854","152725.887873","153492.952173","161985.785315"
"Mixed","both","done","44","M_romp.wav","space","459.989760071","331","161975.880762","154259.145233","155025.959724","155775.735576","156542.579129","157308.752093","158075.640476","158842.327898","162742.521191","163492.103193","149659.399123","150425.901044","151192.786025","151959.284854","152725.887873","153492.952173","162751.976521"
"Mixed","both","done","44","F_done.wav","None","734.278114047","331","161975.880762","154259.145233","155025.959724","155775.735576","156542.579129","157308.752093","158075.640476","158842.327898","162742.521191","163492.103193","164258.391169","150425.901044","151192.786025","151959.284854","152725.887873","153492.952173","163501.431146"
"Mixed","both","done","44","F_gnash.wav","space","448.886557017","331","161975.880762","154259.145233","155025.959724","155775.735576","156542.579129","157308.752093","158075.640476","158842.327898","162742.521191","163492.103193","164258.391169","165025.305522","151192.786025","151959.284854","152725.887873","153492.952173","164267.048533"
"Mixed","both","done","44","F_dime.wav","None","729.695294984","331","161975.880762","154259.145233","155025.959724","155775.735576","156542.579129","157308.752093","158075.640476","158842.327898","162742.521191","163492.103193","164258.391169","165025.305522","165792.133925","151959.284854","152725.887873","153492.952173","165034.757141"
"Mixed","both","done","44","M_cling.wav","None","727.793284226","331","161975.880762","154259.145233","155025.959724","155775.735576","156542.579129","157308.752093","158075.640476","158842.327898","162742.521191","163492.103193","164258.391169","165025.305522","165792.133925","166558.476314","152725.887873","153492.952173","165801.347484"
"Mixed","both","done","44","F_cad.wav","None","726.64812021","331","161975.880762","154259.145233","155025.959724","155775.735576","156542.579129","157308.752093","158075.640476","158842.327898","162742.521191","163492.103193","164258.391169","165025.305522","165792.133925","166558.476314","167325.758269","153492.952173","166567.350097"
"Mixed","both","done","44","F_bluff.wav","None","724.07150222","331","161975.880762","154259.145233","155025.959724","155775.735576","156542.579129","157308.752093","158075.640476","158842.327898","162742.521191","163492.103193","164258.391169","165025.305522","165792.133925","166558.476314","167325.758269","168092.631503","167334.958843"
"Mixed","both","done","44","M_lash.wav","None","721.612059046","331","161975.880762","168859.137751","155025.959724","155775.735576","156542.579129","157308.752093","158075.640476","158842.327898","162742.521191","163492.103193","164258.391169","165025.305522","165792.133925","166558.476314","167325.758269","168092.631503","168102.331385"
"Mixed","both","done","44","M_done.wav","None","719.429322518","331","161975.880762","168859.137751","169608.852079","155775.735576","156542.579129","157308.752093","158075.640476","158842.327898","162742.521191","163492.103193","164258.391169","165025.305522","165792.133925","166558.476314","167325.758269","168092.631503","168869.217913"
"Mixed","both","done","44","M_park.wav","space","330.070873722","331","161975.880762","168859.137751","169608.852079","170375.394191","156542.579129","157308.752093","158075.640476","158842.327898","162742.521191","163492.103193","164258.391169","165025.305522","165792.133925","166558.476314","167325.758269","168092.631503","169617.723697"
"Mixed","both","done","44","M_cling.wav","None","732.743706089","331","161975.880762","168859.137751","169608.852079","170375.394191","171141.672582","157308.752093","158075.640476","158842.327898","162742.521191","163492.103193","164258.391169","165025.305522","165792.133925","166558.476314","167325.758269","168092.631503","170384.77934"
"Mixed","both","done","44","F_done.wav","None","731.447667349","331","161975.880762","168859.137751","169608.852079","170375.394191","171141.672582","171908.364024","158075.640476","158842.327898","162742.521191","163492.103193","164258.391169","165025.305522","165792.133925","166558.476314","167325.758269","168092.631503","171150.526887"
"Mixed","both","done","44","F_dime.wav","space","462.233094033","331","161975.880762","168859.137751","169608.852079","170375.394191","171141.672582","171908.364024","172675.261681","158842.327898","162742.521191","163492.103193","164258.391169","165025.305522","165792.133925","166558.476314","167325.758269","168092.631503","171917.449587"
"Mixed","both","done","44","F_knife.wav","None","726.855573244","331","161975.880762","168859.137751","169608.852079","170375.394191","171141.672582","171908.364024","172675.261681","173441.894071","162742.521191","163492.103193","164258.391169","165025.305522","165792.133925","166558.476314","167325.758269","168092.631503","172684.257586"
"Mixed","both","ball","1","F_romp.wav","None","724.970876239","331","176575.493311","168859.137751","169608.852079","170375.394191","171141.672582","171908.364024","172675.261681","173441.894071","162742.521191","163492.103193","164258.391169","165025.305522","165792.133925","166558.476314","167325.758269","168092.631503","173451.228207"
"Mixed","both","ball","1","M_knife.wav","None","721.340608317","331","176575.493311","168859.137751","169608.852079","170375.394191","171141.672582","171908.364024","172675.261681","173441.894071","177341.616499","163492.103193","164258.391169","165025.305522","165792.133925","166558.476314","167325.758269","168092.631503","176584.833939"
"Mixed","both","ball","1","F_ball.wav","None","720.681149978","331","176575.493311","168859.137751","169608.852079","170375.394191","171141.672582","171908.364024","172675.261681","173441.894071","177341.616499","178091.665966","164258.391169","165025.305522","165792.133925","166558.476314","167325.758269","168092.631503","177350.583959"
"Mixed","both","ball","1","F_knife.wav","space","582.452406641","331","176575.493311","168859.137751","169608.852079","170375.394191","171141.672582","171908.364024","172675.261681","173441.894071","177341.616499","178091.665966","178858.512611","165025.305522","165792.133925","166558.476314","167325.758269","168092.631503","178101.065955"
"Mixed","both","ball","1","F_cad.wav","None","732.421860565","331","176575.493311","168859.137751","169608.852079","170375.394191","171141.672582","171908.364024","172675.261681","173441.894071","177341.616499","178091.665966","178858.512611","179625.016695","165792.133925","166558.476314","167325.758269","168092.631503","178867.688142"
"Mixed","both","ball","1","F_dime.wav","None","731.337603182","331","176575.493311","168859.137751","169608.852079","170375.394191","171141.672582","171908.364024","172675.261681","173441.894071","177341.616499","178091.665966","178858.512611","179625.016695","180391.747402","166558.476314","167325.758269","168092.631503","179634.050009"
"Mixed","both","ball","1","M_cling.wav","None","729.332948104","331","176575.493311","168859.137751","169608.852079","170375.394191","171141.672582","171908.364024","172675.261681","173441.894071","177341.616499","178091.665966","178858.512611","179625.016695","180391.747402","181158.565911","167325.758269","168092.631503","180400.915822"
"Mixed","both","ball","1","M_ball.wav","None","726.589069236","331","176575.493311","168859.137751","169608.852079","170375.394191","171141.672582","171908.364024","172675.261681","173441.894071","177341.616499","178091.665966","178858.512611","179625.016695","180391.747402","181158.565911","181925.051446","168092.631503","181168.071018"
"Mixed","both","ball","1","M_depth.wav","space","332.913378254","331","176575.493311","168859.137751","169608.852079","170375.394191","171141.672582","171908.364024","172675.261681","173441.894071","177341.616499","178091.665966","178858.512611","179625.016695","180391.747402","181158.565911","181925.051446","182692.104307","181934.541712"
"Mixed","both","ball","1","M_cad.wav","None","721.709756646","331","176575.493311","183458.719692","169608.852079","170375.394191","171141.672582","171908.364024","172675.261681","173441.894071","177341.616499","178091.665966","178858.512611","179625.016695","180391.747402","181158.565911","181925.051446","182692.104307","182702.080587"
"Mixed","both","ball","1","M_dime.wav","None","720.595200546","331","176575.493311","183458.719692","184225.384545","170375.394191","171141.672582","171908.364024","172675.261681","173441.894071","177341.616499","178091.665966","178858.512611","179625.016695","180391.747402","181158.565911","181925.051446","182692.104307","183468.353413"
"Mixed","both","ball","1","M_ball.wav","None","719.10407627","331","176575.493311","183458.719692","184225.384545","184974.791249","171141.672582","171908.364024","172675.261681","173441.894071","177341.616499","178091.665966","178858.512611","179625.016695","180391.747402","181158.565911","181925.051446","182692.104307","184234.687455"
"Mixed","both","ball","1","M_romp.wav","space","395.212572534","331","176575.493311","183458.719692","184225.384545","184974.791249","185741.467232","171908.364024","172675.261681","173441.894071","177341.616499","178091.665966","178858.512611","179625.016695","180391.747402","181158.565911","181925.051446","182692.104307","184984.089521"
"Mixed","both","ball","1","F_park.wav","None","737.417111639","331","176575.493311","183458.719692","184225.384545","184974.791249","185741.467232","186508.114771","172675.261681","173441.894071","177341.616499","178091.665966","178858.512611","179625.016695","180391.747402","181158.565911","181925.051446","182692.104307","185745.619687"
"Mixed","both","ball","1","F_ball.wav","None","730.331565719","331","176575.493311","183458.719692","184225.384545","184974.791249","185741.467232","186508.114771","187274.924625","173441.894071","177341.616499","178091.665966","178858.512611","179625.016695","180391.747402","181158.565911","181925.051446","182692.104307","186517.768279"
"Mixed","both","ball","1","F_bluff.wav","space","398.411549162","331","176575.493311","183458.719692","184225.384545","184974.791249","185741.467232","186508.114771","187274.924625","188041.412015","177341.616499","178091.665966","178858.512611","179625.016695","180391.747402","181158.565911","181925.051446","182692.104307","187284.803207"
"Mixed","both","cave","22","F_gnash.wav","None","726.932556368","331","191175.07587","183458.719692","184225.384545","184974.791249","185741.467232","186508.114771","187274.924625","188041.412015","177341.616499","178091.665966","178858.512611","179625.016695","180391.747402","181158.565911","181925.051446","182692.104307","188050.732237"
"Mixed","both","cave","22","M_romp.wav","None","721.116769593","331","191175.07587","183458.719692","184225.384545","184974.791249","185741.467232","186508.114771","187274.924625","188041.412015","191941.674561","178091.665966","178858.512611","179625.016695","180391.747402","181158.565911","181925.051446","182692.104307","191184.604164"
"Mixed","both","cave","22","M_cave.wav","None","718.27983018","331","191175.07587","183458.719692","184225.384545","184974.791249","185741.467232","186508.114771","187274.924625","188041.412015","191941.674561","192690.736232","178858.512611","179625.016695","180391.747402","181158.565911","181925.051446","182692.104307","191952.414799"
"Mixed","both","cave","22","F_park.wav","space","463.197702542","331","191175.07587","183458.719692","184225.384545","184974.791249","185741.467232","186508.114771","187274.924625","188041.412015","191941.674561","192690.736232","193458.079093","179625.016695","180391.747402","181158.565911","181925.051446","182692.104307","192699.90558"
"Mixed","both","cave","22","F_cave.wav","None","731.904619839","331","191175.07587","183458.719692","184225.384545","184974.791249","185741.467232","186508.114771","187274.924625","188041.412015","191941.674561","192690.736232","193458.079093","194224.667581","180391.747402","181158.565911","181925.051446","182692.104307","193467.621609"
"Mixed","both","cave","22","F_cling.wav","space","552.814493421","331","191175.07587","183458.719692","184225.384545","184974.791249","185741.467232","186508.114771","187274.924625","188041.412015","191941.674561","192690.736232","193458.079093","194224.667581","194991.194854","181158.565911","181925.051446","182692.104307","194234.223391"
"Mixed","both","cave","22","F_cling.wav","None","727.496481501","331","191175.07587","183458.719692","184225.384545","184974.791249","185741.467232","186508.114771","187274.924625","188041.412015","191941.674561","192690.736232","193458.079093","194224.667581","194991.194854","195757.995741","181925.051446","182692.104307","195000.751282"
"Mixed","both","cave","22","M_priest.wav","None","727.439594455","331","191175.07587","183458.719692","184225.384545","184974.791249","185741.467232","186508.114771","187274.924625","188041.412015","191941.674561","192690.736232","193458.079093","194224.667581","194991.194854","195757.995741","196524.239196","182692.104307","195767.066464"
"Mixed","both","cave","22","F_cave.wav","None","731.18147254","331","191175.07587","183458.719692","184225.384545","184974.791249","185741.467232","186508.114771","187274.924625","188041.412015","191941.674561","192690.736232","193458.079093","194224.667581","194991.194854","195757.995741","196524.239196","197291.816717","196528.323634"
"Mixed","both","cave","22","M_bluff.wav","space","500.581856817","331","191175.07587","198058.150759","184225.384545","184974.791249","185741.467232","186508.114771","187274.924625","188041.412015","191941.674561","192690.736232","193458.079093","194224.667581","194991.194854","195757.995741","196524.239196","197291.816717","197302.363415"
"Mixed","both","cave","22","M_jolt.wav","None","719.263917301","331","191175.07587","198058.150759","198824.903725","184974.791249","185741.467232","186508.114771","187274.924625","188041.412015","191941.674561","192690.736232","193458.079093","194224.667581","194991.194854","195757.995741","196524.239196","197291.816717","198068.774131"
"Mixed","both","cave","22","M_cave.wav","None","718.404116575","331","191175.07587","198058.150759","198824.903725","199574.359586","185741.467232","186508.114771","187274.924625","188041.412015","191941.674561","192690.736232","193458.079093","194224.667581","194991.194854","195757.995741","196524.239196","197291.816717","198834.955133"
"Mixed","both","cave","22","M_priest.wav","space","610.544163268","331","191175.07587","198058.150759","198824.903725","199574.359586","200341.055975","186508.114771","187274.924625","188041.412015","191941.674561","192690.736232","193458.079093","194224.667581","194991.194854","195757.995741","196524.239196","197291.816717","199584.287327"
"Mixed","both","cave","22","F_gnash.wav","None","731.548456941","331","191175.07587","198058.150759","198824.903725","199574.359586","200341.055975","201107.17638","187274.924625","188041.412015","191941.674561","192690.736232","193458.079093","194224.667581","194991.194854","195757.995741","196524.239196","197291.816717","200350.760186"
"Mixed","both","cave","22","F_gnash.wav","None","731.288445182","331","191175.07587","198058.150759","198824.903725","199574.359586","200341.055975","201107.17638","201874.443804","188041.412015","191941.674561","192690.736232","193458.079093","194224.667581","194991.194854","195757.995741","196524.239196","197291.816717","201116.446827"
"Mixed","both","cave","22","M_park.wav","None","729.30326825","331","191175.07587","198058.150759","198824.903725","199574.359586","200341.055975","201107.17638","201874.443804","202640.426938","191941.674561","192690.736232","193458.079093","194224.667581","194991.194854","195757.995741","196524.239196","197291.816717","201883.638504"
"Mixed","both","tile","35","F_bluff.wav","None","731.538563035","331","205774.706042","198058.150759","198824.903725","199574.359586","200341.055975","201107.17638","201874.443804","202640.426938","191941.674561","192690.736232","193458.079093","194224.667581","194991.194854","195757.995741","196524.239196","197291.816717","202649.54682"
"Mixed","both","tile","35","M_jaw.wav","None","718.597966246","331","205774.706042","198058.150759","198824.903725","199574.359586","200341.055975","201107.17638","201874.443804","202640.426938","206541.264541","192690.736232","193458.079093","194224.667581","194991.194854","195757.995741","196524.239196","197291.816717","205786.806007"
"Mixed","both","tile","35","M_romp.wav","None","719.95429229","331","205774.706042","198058.150759","198824.903725","199574.359586","200341.055975","201107.17638","201874.443804","202640.426938","206541.264541","207291.159732","193458.079093","194224.667581","194991.194854","195757.995741","196524.239196","197291.816717","206550.718634"
"Mixed","both","tile","35","M_lash.wav","None","735.232211184","331","205774.706042","198058.150759","198824.903725","199574.359586","200341.055975","201107.17638","201874.443804","202640.426938","206541.264541","207291.159732","208057.678348","194224.667581","194991.194854","195757.995741","196524.239196","197291.816717","207300.594348"
"Mixed","both","tile","35","M_tile.wav","None","733.371010516","331","205774.706042","198058.150759","198824.903725","199574.359586","200341.055975","201107.17638","201874.443804","202640.426938","206541.264541","207291.159732","208057.678348","208824.149042","194991.194854","195757.995741","196524.239196","197291.816717","208067.460779"
"Mixed","both","tile","35","F_cad.wav","space","480.983912945","331","205774.706042","198058.150759","198824.903725","199574.359586","200341.055975","201107.17638","201874.443804","202640.426938","206541.264541","207291.159732","208057.678348","208824.149042","209590.809876","195757.995741","196524.239196","197291.816717","208833.592315"
"Mixed","both","tile","35","M_greet.wav","None","730.384433642","331","205774.706042","198058.150759","198824.903725","199574.359586","200341.055975","201107.17638","201874.443804","202640.426938","206541.264541","207291.159732","208057.678348","208824.149042","209590.809876","210357.590049","196524.239196","197291.816717","209600.017561"
"Mixed","both","tile","35","F_greet.wav","None","728.964108974","331","205774.706042","198058.150759","198824.903725","199574.359586","200341.055975","201107.17638","201874.443804","202640.426938","206541.264541","207291.159732","208057.678348","208824.149042","209590.809876","210357.590049","211124.406086","197291.816717","210366.861732"
"Mixed","both","tile","35","F_romp.wav","None","726.009994745","331","205774.706042","198058.150759","198824.903725","199574.359586","200341.055975","201107.17638","201874.443804","202640.426938","206541.264541","207291.159732","208057.678348","208824.149042","209590.809876","210357.590049","211124.406086","211890.697462","211134.582399"
"Mixed","both","tile","35","F_tile.wav","None","725.561699364","331","205774.706042","212657.726826","198824.903725","199574.359586","200341.055975","201107.17638","201874.443804","202640.426938","206541.264541","207291.159732","208057.678348","208824.149042","209590.809876","210357.590049","211124.406086","211890.697462","211900.043964"
"Mixed","both","tile","35","F_lash.wav","space","494.87458868","331","205774.706042","212657.726826","213424.268011","199574.359586","200341.055975","201107.17638","201874.443804","202640.426938","206541.264541","207291.159732","208057.678348","208824.149042","209590.809876","210357.590049","211124.406086","211890.697462","212667.597988"
"Mixed","both","tile","35","M_park.wav","None","720.722578466","331","205774.706042","212657.726826","213424.268011","214190.583811","200341.055975","201107.17638","201874.443804","202640.426938","206541.264541","207291.159732","208057.678348","208824.149042","209590.809876","210357.590049","211124.406086","211890.697462","213434.269952"
"Mixed","both","tile","35","F_tile.wav","None","720.871597994","331","205774.706042","212657.726826","213424.268011","214190.583811","214940.697276","201107.17638","201874.443804","202640.426938","206541.264541","207291.159732","208057.678348","208824.149042","209590.809876","210357.590049","211124.406086","211890.697462","214199.720387"
"Mixed","both","tile","35","F_priest.wav","space","459.863001015","331","205774.706042","212657.726826","213424.268011","214190.583811","214940.697276","215706.741008","201874.443804","202640.426938","206541.264541","207291.159732","208057.678348","208824.149042","209590.809876","210357.590049","211124.406086","211890.697462","214950.551744"
"Mixed","both","tile","35","M_tile.wav","None","734.221227001","331","205774.706042","212657.726826","213424.268011","214190.583811","214940.697276","215706.741008","216473.963293","202640.426938","206541.264541","207291.159732","208057.678348","208824.149042","209590.809876","210357.590049","211124.406086","211890.697462","215715.835228"
"Mixed","both","tile","35","M_cling.wav","space","390.85019147","331","205774.706042","212657.726826","213424.268011","214190.583811","214940.697276","215706.741008","216473.963293","217240.547453","206541.264541","207291.159732","208057.678348","208824.149042","209590.809876","210357.590049","211124.406086","211890.697462","216483.53518"
"Mixed","both","tile","28","M_greet.wav","None","733.709242195","331","220373.507948","212657.726826","213424.268011","214190.583811","214940.697276","215706.741008","216473.963293","217240.547453","206541.264541","207291.159732","208057.678348","208824.149042","209590.809876","210357.590049","211124.406086","211890.697462","217245.403578"
"Mixed","both","tile","28","M_tile.wav","None","722.266879864","331","220373.507948","212657.726826","213424.268011","214190.583811","214940.697276","215706.741008","216473.963293","217240.547453","221140.866887","207291.159732","208057.678348","208824.149042","209590.809876","210357.590049","211124.406086","211890.697462","220382.643906"
"Mixed","both","tile","28","M_gnash.wav","space","507.096366957","331","220373.507948","212657.726826","213424.268011","214190.583811","214940.697276","215706.741008","216473.963293","217240.547453","221140.866887","221890.587397","208057.678348","208824.149042","209590.809876","210357.590049","211124.406086","211890.697462","221151.144917"
"Mixed","both","tile","28","F_dime.wav","None","734.340257011","331","220373.507948","212657.726826","213424.268011","214190.583811","214940.697276","215706.741008","216473.963293","217240.547453","221140.866887","221890.587397","222657.010789","208824.149042","209590.809876","210357.590049","211124.406086","211890.697462","221900.140425"
"Mixed","both","tile","28","F_tile.wav","None","734.373028856","331","220373.507948","212657.726826","213424.268011","214190.583811","214940.697276","215706.741008","216473.963293","217240.547453","221140.866887","221890.587397","222657.010789","223423.706868","209590.809876","210357.590049","211124.406086","211890.697462","222666.225894"
"Mixed","both","tile","28","M_gnash.wav","space","456.828811672","331","220373.507948","212657.726826","213424.268011","214190.583811","214940.697276","215706.741008","216473.963293","217240.547453","221140.866887","221890.587397","222657.010789","223423.706868","224190.385943","210357.590049","211124.406086","211890.697462","223433.30658"
"Mixed","both","tile","28","M_cad.wav","None","728.697604965","331","220373.507948","212657.726826","213424.268011","214190.583811","214940.697276","215706.741008","216473.963293","217240.547453","221140.866887","221890.587397","222657.010789","223423.706868","224190.385943","224957.172608","211124.406086","211890.697462","224201.084752"
"Mixed","both","tile","28","M_bluff.wav","None","728.707189206","331","220373.507948","212657.726826","213424.268011","214190.583811","214940.697276","215706.741008","216473.963293","217240.547453","221140.866887","221890.587397","222657.010789","223423.706868","224190.385943","224957.172608","225723.180167","211890.697462","224966.628247"
"Mixed","both","tile","28","F_park.wav","None","728.242198471","331","220373.507948","212657.726826","213424.268011","214190.583811","214940.697276","215706.741008","216473.963293","217240.547453","221140.866887","221890.587397","222657.010789","223423.706868","224190.385943","224957.172608","225723.180167","226490.537868","225732.590049"
"Mixed","both","tile","28","F_tile.wav","None","725.837478414","331","220373.507948","227256.55934","213424.268011","214190.583811","214940.697276","215706.741008","216473.963293","217240.547453","221140.866887","221890.587397","222657.010789","223423.706868","224190.385943","224957.172608","225723.180167","226490.537868","226500.408722"
"Mixed","both","tile","28","F_cling.wav","space","685.126041993","331","220373.507948","227256.55934","228023.425462","214190.583811","214940.697276","215706.741008","216473.963293","217240.547453","221140.866887","221890.587397","222657.010789","223423.706868","224190.385943","224957.172608","225723.180167","226490.537868","227260.909045"
"Mixed","both","tile","28","M_tile.wav","None","722.237817943","331","220373.507948","227256.55934","228023.425462","228790.2483","214940.697276","215706.741008","216473.963293","217240.547453","221140.866887","221890.587397","222657.010789","223423.706868","224190.385943","224957.172608","225723.180167","226490.537868","228033.550762"
"Mixed","both","tile","28","F_bluff.wav","space","481.778787915","331","220373.507948","227256.55934","228023.425462","228790.2483","229557.471204","215706.741008","216473.963293","217240.547453","221140.866887","221890.587397","222657.010789","223423.706868","224190.385943","224957.172608","225723.180167","226490.537868","228800.223035"
"Mixed","both","tile","28","F_jolt.wav","None","718.469969463","331","220373.507948","227256.55934","228023.425462","228790.2483","229557.471204","230306.711884","216473.963293","217240.547453","221140.866887","221890.587397","222657.010789","223423.706868","224190.385943","224957.172608","225723.180167","226490.537868","229567.431099"
"Mixed","both","tile","28","F_bluff.wav","None","734.855642542","331","220373.507948","227256.55934","228023.425462","228790.2483","229557.471204","230306.711884","231073.498549","217240.547453","221140.866887","221890.587397","222657.010789","223423.706868","224190.385943","224957.172608","225723.180167","226490.537868","230316.229357"
"Mixed","both","tile","28","M_gnash.wav","None","733.799828682","331","220373.507948","227256.55934","228023.425462","228790.2483","229557.471204","230306.711884","231073.498549","231839.574744","221140.866887","221890.587397","222657.010789","223423.706868","224190.385943","224957.172608","225723.180167","226490.537868","231082.787546"
"Mixed","both","cave","17","M_greet.wav","None","732.949303929","331","234973.182949","227256.55934","228023.425462","228790.2483","229557.471204","230306.711884","231073.498549","231839.574744","221140.866887","221890.587397","222657.010789","223423.706868","224190.385943","224957.172608","225723.180167","226490.537868","231848.902077"
"Mixed","both","cave","17","F_dime.wav","None","721.670801286","331","234973.182949","227256.55934","228023.425462","228790.2483","229557.471204","230306.711884","231073.498549","231839.574744","235740.384211","221890.587397","222657.010789","223423.706868","224190.385943","224957.172608","225723.180167","226490.537868","234982.45185"
"Mixed","both","cave","17","F_bluff.wav","None","718.650834169","331","234973.182949","227256.55934","228023.425462","228790.2483","229557.471204","230306.711884","231073.498549","231839.574744","235740.384211","236489.578825","222657.010789","223423.706868","224190.385943","224957.172608","225723.180167","226490.537868","235750.75932"
"Mixed","both","cave","17","F_park.wav","None","735.897852574","331","234973.182949","227256.55934","228023.425462","228790.2483","229557.471204","230306.711884","231073.498549","231839.574744","235740.384211","236489.578825","237256.09002","223423.706868","224190.385943","224957.172608","225723.180167","226490.537868","236498.895956"
"Mixed","both","cave","17","F_cave.wav","None","735.290952958","331","234973.182949","227256.55934","228023.425462","228790.2483","229557.471204","230306.711884","231073.498549","231839.574744","235740.384211","236489.578825","237256.09002","238022.660268","224190.385943","224957.172608","225723.180167","226490.537868","237265.128281"
"Mixed","both","cave","17","F_depth.wav","space","530.050036032","331","234973.182949","227256.55934","228023.425462","228790.2483","229557.471204","230306.711884","231073.498549","231839.574744","235740.384211","236489.578825","237256.09002","238022.660268","238789.83154","224957.172608","225723.180167","226490.537868","238031.694509"
"Mixed","both","cave","17","M_cave.wav","None","730.220882688","331","234973.182949","227256.55934","228023.425462","228790.2483","229557.471204","230306.711884","231073.498549","231839.574744","235740.384211","236489.578825","237256.09002","238022.660268","238789.83154","239556.731671","225723.180167","226490.537868","238799.469589"
"Mixed","both","cave","17","M_depth.wav","space","555.324022193","331","234973.182949","227256.55934","228023.425462","228790.2483","229557.471204","230306.711884","231073.498549","231839.574744","235740.384211","236489.578825","237256.09002","238022.660268","238789.83154","239556.731671","240323.294807","226490.537868","239566.33633"
"Mixed","both","cave","17","M_park.wav","None","726.9208082","331","234973.182949","227256.55934","228023.425462","228790.2483","229557.471204","230306.711884","231073.498549","231839.574744","235740.384211","236489.578825","237256.09002","238022.660268","238789.83154","239556.731671","240323.294807","241089.359562","240332.343579"
"Mixed","both","cave","17","M_cave.wav","None","726.355646271","331","234973.182949","241856.450141","228023.425462","228790.2483","229557.471204","230306.711884","231073.498549","231839.574744","235740.384211","236489.578825","237256.09002","238022.660268","238789.83154","239556.731671","240323.294807","241089.359562","241098.397204"
"Mixed","both","cave","17","F_gnash.wav","space","479.370975867","331","234973.182949","241856.450141","242623.022861","228790.2483","229557.471204","230306.711884","231073.498549","231839.574744","235740.384211","236489.578825","237256.09002","238022.660268","238789.83154","239556.731671","240323.294807","241089.359562","241866.235664"
"Mixed","both","cave","17","F_dime.wav","None","721.596910153","331","234973.182949","241856.450141","242623.022861","243389.423065","229557.471204","230306.711884","231073.498549","231839.574744","235740.384211","236489.578825","237256.09002","238022.660268","238789.83154","239556.731671","240323.294807","241089.359562","242632.504471"
"Mixed","both","cave","17","M_depth.wav","None","720.88612942","331","234973.182949","241856.450141","242623.022861","243389.423065","244156.643805","230306.711884","231073.498549","231839.574744","235740.384211","236489.578825","237256.09002","238022.660268","238789.83154","239556.731671","240323.294807","241089.359562","243398.655484"
"Mixed","both","cave","17","M_gnash.wav","None","719.841445796","331","234973.182949","241856.450141","242623.022861","243389.423065","244156.643805","244923.494468","231073.498549","231839.574744","235740.384211","236489.578825","237256.09002","238022.660268","238789.83154","239556.731671","240323.294807","241089.359562","244167.186175"
"Mixed","both","cave","17","F_cave.wav","None","724.589052144","331","234973.182949","241856.450141","242623.022861","243389.423065","244156.643805","244923.494468","245672.978774","231839.574744","235740.384211","236489.578825","237256.09002","238022.660268","238789.83154","239556.731671","240323.294807","241089.359562","244927.9125"
"Mixed","both","cave","17","M_lash.wav","space","487.320032436","331","234973.182949","241856.450141","242623.022861","243389.423065","244156.643805","244923.494468","245672.978774","246439.154211","235740.384211","236489.578825","237256.09002","238022.660268","238789.83154","239556.731671","240323.294807","241089.359562","245682.161416"
"Mixed","both","done","39","M_gnash.wav","None","734.277804848","331","249573.357877","241856.450141","242623.022861","243389.423065","244156.643805","244923.494468","245672.978774","246439.154211","235740.384211","236489.578825","237256.09002","238022.660268","238789.83154","239556.731671","240323.294807","241089.359562","246448.446609"
"Mixed","both","done","39","M_done.wav","None","720.761533827","331","249573.357877","241856.450141","242623.022861","243389.423065","244156.643805","244923.494468","245672.978774","246439.154211","250339.760554","236489.578825","237256.09002","238022.660268","238789.83154","239556.731671","240323.294807","241089.359562","249583.231205"
"Mixed","both","done","39","F_gnash.wav","space","539.123850875","331","249573.357877","241856.450141","242623.022861","243389.423065","244156.643805","244923.494468","245672.978774","246439.154211","250339.760554","251089.469935","237256.09002","238022.660268","238789.83154","239556.731671","240323.294807","241089.359562","250350.249747"
"Mixed","both","done","39","F_done.wav","None","734.432389494","331","249573.357877","241856.450141","242623.022861","243389.423065","244156.643805","244923.494468","245672.978774","246439.154211","250339.760554","251089.469935","251856.306377","238022.660268","238789.83154","239556.731671","240323.294807","241089.359562","251098.992974"
"Mixed","both","done","39","M_reek.wav","space","479.161050171","331","249573.357877","241856.450141","242623.022861","243389.423065","244156.643805","244923.494468","245672.978774","246439.154211","250339.760554","251089.469935","251856.306377","252622.89672","238789.83154","239556.731671","240323.294807","241089.359562","251866.164864"
"Mixed","both","done","39","F_romp.wav","None","730.912804138","331","249573.357877","241856.450141","242623.022861","243389.423065","244156.643805","244923.494468","245672.978774","246439.154211","250339.760554","251089.469935","251856.306377","252622.89672","253389.010633","239556.731671","240323.294807","241089.359562","252631.807603"
"Mixed","both","done","39","M_jolt.wav","None","730.843859725","331","249573.357877","241856.450141","242623.022861","243389.423065","244156.643805","244923.494468","245672.978774","246439.154211","250339.760554","251089.469935","251856.306377","252622.89672","253389.010633","254156.24714","240323.294807","241089.359562","253398.046111"
"Mixed","both","done","39","F_greet.wav","None","728.103999514","331","249573.357877","241856.450141","242623.022861","243389.423065","244156.643805","244923.494468","245672.978774","246439.154211","250339.760554","251089.469935","251856.306377","252622.89672","253389.010633","254156.24714","254922.381149","241089.359562","254166.361929"
"Mixed","both","done","39","M_done.wav","None","728.592796717","331","249573.357877","241856.450141","242623.022861","243389.423065","244156.643805","244923.494468","245672.978774","246439.154211","250339.760554","251089.469935","251856.306377","252622.89672","253389.010633","254156.24714","254922.381149","255689.342805","254931.645412"
"Mixed","both","done","39","M_knife.wav","space","566.237085965","331","249573.357877","256456.550559","242623.022861","243389.423065","244156.643805","244923.494468","245672.978774","246439.154211","250339.760554","251089.469935","251856.306377","252622.89672","253389.010633","254156.24714","254922.381149","255689.342805","255698.93757"
"Mixed","both","done","39","M_bluff.wav","None","723.29332307","331","249573.357877","256456.550559","257222.424247","243389.423065","244156.643805","244923.494468","245672.978774","246439.154211","250339.760554","251089.469935","251856.306377","252622.89672","253389.010633","254156.24714","254922.381149","255689.342805","256466.446765"
"Mixed","both","done","39","F_park.wav","None","728.943085764","331","249573.357877","256456.550559","257222.424247","257989.332726","244156.643805","244923.494468","245672.978774","246439.154211","250339.760554","251089.469935","251856.306377","252622.89672","253389.010633","254156.24714","254922.381149","255689.342805","257226.444069"
"Mixed","both","done","39","F_done.wav","None","722.230707295","331","249573.357877","256456.550559","257222.424247","257989.332726","258756.422687","244923.494468","245672.978774","246439.154211","250339.760554","251089.469935","251856.306377","252622.89672","253389.010633","254156.24714","254922.381149","255689.342805","257998.670262"
"Mixed","both","done","39","F_cling.wav","space","610.668139998","331","249573.357877","256456.550559","257222.424247","257989.332726","258756.422687","259505.687482","245672.978774","246439.154211","250339.760554","251089.469935","251856.306377","252622.89672","253389.010633","254156.24714","254922.381149","255689.342805","258766.402677"
"Mixed","both","done","39","F_lash.wav","None","735.300537664","331","249573.357877","256456.550559","257222.424247","257989.332726","258756.422687","259505.687482","260272.482495","246439.154211","250339.760554","251089.469935","251856.306377","252622.89672","253389.010633","254156.24714","254922.381149","255689.342805","259514.981116"
"Mixed","both","done","39","M_bluff.wav","None","732.983621303","331","249573.357877","256456.550559","257222.424247","257989.332726","258756.422687","259505.687482","260272.482495","261039.316773","250339.760554","251089.469935","251856.306377","252622.89672","253389.010633","254156.24714","254922.381149","255689.342805","260283.203256"
"Mixed","both","tile","26","M_cling.wav","None","732.169269118","331","264172.865618","256456.550559","257222.424247","257989.332726","258756.422687","259505.687482","260272.482495","261039.316773","250339.760554","251089.469935","251856.306377","252622.89672","253389.010633","254156.24714","254922.381149","255689.342805","261049.388587"
"Mixed","both","tile","26","F_priest.wav","None","721.100074239","331","264172.865618","256456.550559","257222.424247","257989.332726","258756.422687","259505.687482","260272.482495","261039.316773","264938.940266","251089.469935","251856.306377","252622.89672","253389.010633","254156.24714","254922.381149","255689.342805","264182.488518"
"Mixed","both","tile","26","M_tile.wav","None","720.976097509","331","264172.865618","256456.550559","257222.424247","257989.332726","258756.422687","259505.687482","260272.482495","261039.316773","264938.940266","265706.294567","251856.306377","252622.89672","253389.010633","254156.24714","254922.381149","255689.342805","264948.324796"
"Mixed","both","tile","26","M_cling.wav","space","372.506238986","331","264172.865618","256456.550559","257222.424247","257989.332726","258756.422687","259505.687482","260272.482495","261039.316773","264938.940266","265706.294567","266472.006559","252622.89672","253389.010633","254156.24714","254922.381149","255689.342805","265716.402245"
"Mixed","both","tile","26","F_jaw.wav","None","722.073031124","331","264172.865618","256456.550559","257222.424247","257989.332726","258756.422687","259505.687482","260272.482495","261039.316773","264938.940266","265706.294567","266472.006559","267238.713769","253389.010633","254156.24714","254922.381149","255689.342805","266480.851589"
"Mixed","both","tile","26","M_dime.wav","None","720.750713255","331","264172.865618","256456.550559","257222.424247","257989.332726","258756.422687","259505.687482","260272.482495","261039.316773","264938.940266","265706.294567","266472.006559","267238.713769","267988.877319","254156.24714","254922.381149","255689.342805","267247.910942"
"Mixed","both","tile","26","F_park.wav","None","735.372264404","331","264172.865618","256456.550559","257222.424247","257989.332726","258756.422687","259505.687482","260272.482495","261039.316773","264938.940266","265706.294567","266472.006559","267238.713769","267988.877319","268755.233621","254922.381149","255689.342805","267998.4591"
"Mixed","both","tile","26","F_bluff.wav","None","734.518029727","331","264172.865618","256456.550559","257222.424247","257989.332726","258756.422687","259505.687482","260272.482495","261039.316773","264938.940266","265706.294567","266472.006559","267238.713769","267988.877319","268755.233621","269522.317708","255689.342805","268764.857757"
"Mixed","both","tile","26","F_tile.wav","None","733.752835542","331","264172.865618","256456.550559","257222.424247","257989.332726","258756.422687","259505.687482","260272.482495","261039.316773","264938.940266","265706.294567","266472.006559","267238.713769","267988.877319","268755.233621","269522.317708","270288.948243","269531.332471"
"Mixed","both","tile","26","M_jaw.wav","space","286.325248424","331","264172.865618","271055.770772","257222.424247","257989.332726","258756.422687","259505.687482","260272.482495","261039.316773","264938.940266","265706.294567","266472.006559","267238.713769","267988.877319","268755.233621","269522.317708","270288.948243","270298.424596"
"Mixed","both","tile","26","F_tile.wav","None","729.259984102","331","264172.865618","271055.770772","271821.809557","257989.332726","258756.422687","259505.687482","260272.482495","261039.316773","264938.940266","265706.294567","266472.006559","267238.713769","267988.877319","268755.233621","269522.317708","270288.948243","271064.86932"
"Mixed","both","tile","26","M_reek.wav","space","481.579064857","331","264172.865618","271055.770772","271821.809557","272588.419687","258756.422687","259505.687482","260272.482495","261039.316773","264938.940266","265706.294567","266472.006559","267238.713769","267988.877319","268755.233621","269522.317708","270288.948243","271831.138745"
"Mixed","both","tile","26","M_tile.wav","None","726.68089252","331","264172.865618","271055.770772","271821.809557","272588.419687","273355.547057","259505.687482","260272.482495","261039.316773","264938.940266","265706.294567","266472.006559","267238.713769","267988.877319","268755.233621","269522.317708","270288.948243","272597.218032"
"Mixed","both","tile","26","F_romp.wav","space","387.987590861","331","264172.865618","271055.770772","271821.809557","272588.419687","273355.547057","274122.64382","260272.482495","261039.316773","264938.940266","265706.294567","266472.006559","267238.713769","267988.877319","268755.233621","269522.317708","270288.948243","273364.680542"
"Mixed","both","tile","26","F_jolt.wav","None","720.554389991","331","264172.865618","271055.770772","271821.809557","272588.419687","273355.547057","274122.64382","274889.135228","261039.316773","264938.940266","265706.294567","266472.006559","267238.713769","267988.877319","268755.233621","269522.317708","270288.948243","274132.731092"
"Mixed","both","tile","26","M_cad.wav","None","719.956765883","331","264172.865618","271055.770772","271821.809557","272588.419687","273355.547057","274122.64382","274889.135228","275655.767","264938.940266","265706.294567","266472.006559","267238.713769","267988.877319","268755.233621","269522.317708","270288.948243","274899.205497"
"Mixed","both","done","38","F_romp.wav","None","719.346465077","331","278772.501355","271055.770772","271821.809557","272588.419687","273355.547057","274122.64382","274889.135228","275655.767","264938.940266","265706.294567","266472.006559","267238.713769","267988.877319","268755.233621","269522.317708","270288.948243","275665.456062"
"Mixed","both","done","38","F_done.wav","None","720.156798605","331","278772.501355","271055.770772","271821.809557","272588.419687","273355.547057","274122.64382","274889.135228","275655.767","279539.122305","265706.294567","266472.006559","267238.713769","267988.877319","268755.233621","269522.317708","270288.948243","278782.781239"
"Mixed","both","done","38","M_priest.wav","space","539.418798406","331","278772.501355","271055.770772","271821.809557","272588.419687","273355.547057","274122.64382","274889.135228","275655.767","279539.122305","280288.080095","266472.006559","267238.713769","267988.877319","268755.233621","269522.317708","270288.948243","279549.063649"
"Mixed","both","done","38","M_done.wav","None","735.723172314","331","278772.501355","271055.770772","271821.809557","272588.419687","273355.547057","274122.64382","274889.135228","275655.767","279539.122305","280288.080095","281054.776483","267238.713769","267988.877319","268755.233621","269522.317708","270288.948243","280296.804548"
"Mixed","both","done","38","F_park.wav","space","512.610095553","331","278772.501355","271055.770772","271821.809557","272588.419687","273355.547057","274122.64382","274889.135228","275655.767","279539.122305","280288.080095","281054.776483","281821.526976","267988.877319","268755.233621","269522.317708","270288.948243","281063.837313"
"Mixed","both","done","38","F_gnash.wav","None","731.044510379","331","278772.501355","271055.770772","271821.809557","272588.419687","273355.547057","274122.64382","274889.135228","275655.767","279539.122305","280288.080095","281054.776483","281821.526976","282588.506872","268755.233621","269522.317708","270288.948243","281831.424418"
"Mixed","both","done","38","M_cad.wav","None","730.074336287","331","278772.501355","271055.770772","271821.809557","272588.419687","273355.547057","274122.64382","274889.135228","275655.767","279539.122305","280288.080095","281054.776483","281821.526976","282588.506872","283355.431737","269522.317708","270288.948243","282597.943962"
"Mixed","both","done","38","M_bluff.wav","None","728.772424161","331","278772.501355","271055.770772","271821.809557","272588.419687","273355.547057","274122.64382","274889.135228","275655.767","279539.122305","280288.080095","281054.776483","281821.526976","282588.506872","283355.431737","284121.840598","270288.948243","283364.876864"
"Mixed","both","done","38","M_depth.wav","None","728.238179348","331","278772.501355","271055.770772","271821.809557","272588.419687","273355.547057","274122.64382","274889.135228","275655.767","279539.122305","280288.080095","281054.776483","281821.526976","282588.506872","283355.431737","284121.840598","284888.565429","284130.992632"
"Mixed","both","done","38","F_reek.wav","None","726.272789296","331","278772.501355","285654.722317","271821.809557","272588.419687","273355.547057","274122.64382","274889.135228","275655.767","279539.122305","280288.080095","281054.776483","281821.526976","282588.506872","283355.431737","284121.840598","284888.565429","284898.74607"
"Mixed","both","done","38","M_done.wav","None","727.378997486","331","278772.501355","285654.722317","286421.756318","272588.419687","273355.547057","274122.64382","274889.135228","275655.767","279539.122305","280288.080095","281054.776483","281821.526976","282588.506872","283355.431737","284121.840598","284888.565429","285663.80788"
"Mixed","both","done","38","F_gnash.wav","space","465.079308487","331","278772.501355","285654.722317","286421.756318","287189.979694","273355.547057","274122.64382","274889.135228","275655.767","279539.122305","280288.080095","281054.776483","281821.526976","282588.506872","283355.431737","284121.840598","284888.565429","286431.187532"
"Mixed","both","done","38","F_done.wav","None","720.905606635","331","278772.501355","285654.722317","286421.756318","287189.979694","287955.754448","274122.64382","274889.135228","275655.767","279539.122305","280288.080095","281054.776483","281821.526976","282588.506872","283355.431737","284121.840598","284888.565429","287199.676794"
"Mixed","both","done","38","M_bluff.wav","space","530.222552363","331","278772.501355","285654.722317","286421.756318","287189.979694","287955.754448","288705.343253","274889.135228","275655.767","279539.122305","280288.080095","281054.776483","281821.526976","282588.506872","283355.431737","284121.840598","284888.565429","287965.993523"
"Mixed","both","done","38","F_park.wav","None","735.507681035","331","278772.501355","285654.722317","286421.756318","287189.979694","287955.754448","288705.343253","289471.63432","275655.767","279539.122305","280288.080095","281054.776483","281821.526976","282588.506872","283355.431737","284121.840598","284888.565429","288714.719744"
"Mixed","both","done","38","M_depth.wav","None","734.663339332","331","278772.501355","285654.722317","286421.756318","287189.979694","287955.754448","288705.343253","289471.63432","290238.282168","279539.122305","280288.080095","281054.776483","281821.526976","282588.506872","283355.431737","284121.840598","284888.565429","289481.221046"
"Mixed","both","ball","7","F_depth.wav","None","732.703204732","331","293372.127198","285654.722317","286421.756318","287189.979694","287955.754448","288705.343253","289471.63432","290238.282168","279539.122305","280288.080095","281054.776483","281821.526976","282588.506872","283355.431737","284121.840598","284888.565429","290248.712928"
"Mixed","both","ball","7","F_ball.wav","None","720.671874937","331","293372.127198","285654.722317","286421.756318","287189.979694","287955.754448","288705.343253","289471.63432","290238.282168","294139.046806","280288.080095","281054.776483","281821.526976","282588.506872","283355.431737","284121.840598","284888.565429","293381.965898"
"Mixed","both","ball","7","M_cling.wav","space","450.810518581","331","293372.127198","285654.722317","286421.756318","287189.979694","287955.754448","288705.343253","289471.63432","290238.282168","294139.046806","294888.227507","281054.776483","281821.526976","282588.506872","283355.431737","284121.840598","284888.565429","294149.216936"
"Mixed","both","ball","7","F_knife.wav","None","734.402091242","331","293372.127198","285654.722317","286421.756318","287189.979694","287955.754448","288705.343253","289471.63432","290238.282168","294139.046806","294888.227507","295654.75818","281821.526976","282588.506872","283355.431737","284121.840598","284888.565429","294897.887198"
"Mixed","both","ball","7","M_lash.wav","None","734.415076207","331","293372.127198","285654.722317","286421.756318","287189.979694","287955.754448","288705.343253","289471.63432","290238.282168","294139.046806","294888.227507","295654.75818","296421.153437","282588.506872","283355.431737","284121.840598","284888.565429","295663.745737"
"Mixed","both","ball","7","M_ball.wav","None","733.560531866","331","293372.127198","285654.722317","286421.756318","287189.979694","287955.754448","288705.343253","289471.63432","290238.282168","294139.046806","294888.227507","295654.75818","296421.153437","297188.095924","283355.431737","284121.840598","284888.565429","296430.498703"
"Mixed","both","ball","7","M_jaw.wav","space","282.164136879","331","293372.127198","285654.722317","286421.756318","287189.979694","287955.754448","288705.343253","289471.63432","290238.282168","294139.046806","294888.227507","295654.75818","296421.153437","297188.095924","297954.769743","284121.840598","284888.565429","297197.797353"
"Mixed","both","ball","7","F_depth.wav","None","728.691112716","331","293372.127198","285654.722317","286421.756318","287189.979694","287955.754448","288705.343253","289471.63432","290238.282168","294139.046806","294888.227507","295654.75818","296421.153437","297188.095924","297954.769743","298721.088635","284888.565429","297964.85887"
