"Condition","Talker","Target","Trial","current_stimulus","response_response","response_time_response","subject_nr","time_Audio1","time_Audio10","time_Audio11","time_Audio12","time_Audio13","time_Audio14","time_Audio15","time_Audio16","time_Audio2","time_Audio3","time_Audio4","time_Audio5","time_Audio6","time_Audio7","time_Audio8","time_Audio9","time_response"
"Mixed","both","done","44","M_knife.wav","NA","NA","327","335930.979771","NA","NA","NA","NA","NA","NA","NA","NA","NA","NA","NA","NA","NA","NA","NA","NA"
"Mixed","both","done","44","M_done.wav","None","720.854903106","327","335930.979771","NA","NA","NA","NA","NA","NA","NA","336697.967706","NA","NA","NA","NA","NA","NA","NA","335944.482438"
"Mixed","both","done","44","F_cling.wav","space","601.898547728","327","335930.979771","NA","NA","NA","NA","NA","NA","NA","336697.967706","337464.058122","NA","NA","NA","NA","NA","NA","336707.896065"
"Mixed","both","done","44","M_done.wav","None","726.319473237","327","335930.979771","NA","NA","NA","NA","NA","NA","NA","336697.967706","337464.058122","338231.805686","NA","NA","NA","NA","NA","337473.258078"
"Mixed","both","done","44","F_priest.wav","space","492.381755263","327","335930.979771","NA","NA","NA","NA","NA","NA","NA","336697.967706","337464.058122","338231.805686","338998.016678","NA","NA","NA","NA","338241.360878"
"Mixed","both","done","44","F_jaw.wav","None","721.764788497","327","335930.979771","NA","NA","NA","NA","NA","NA","NA","336697.967706","337464.058122","338231.805686","338998.016678","339764.612277","NA","NA","NA","339008.246478"
"Mixed","both","done","44","M_greet.wav","None","721.952763852","327","335930.979771","NA","NA","NA","NA","NA","NA","NA","336697.967706","337464.058122","338231.805686","338998.016678","339764.612277","340531.094102","NA","NA","339774.877322"
"Mixed","both","done","44","F_done.wav","None","722.672201227","327","335930.979771","NA","NA","NA","NA","NA","NA","NA","336697.967706","337464.058122","338231.805686","338998.016678","339764.612277","340531.094102","341297.76792","NA","340541.120776"
"Mixed","both","done","44","F_reek.wav","space","426.525565796","327","335930.979771","NA","NA","NA","NA","NA","NA","NA","336697.967706","337464.058122","338231.805686","338998.016678","339764.612277","340531.094102","341297.76792","342064.778734","341307.143485"
"Mixed","both","done","44","M_park.wav","None","722.690442577","327","335930.979771","342831.485015","NA","NA","NA","NA","NA","NA","336697.967706","337464.058122","338231.805686","338998.016678","339764.612277","340531.094102","341297.76792","342064.778734","342074.509843"
"Mixed","both","done","44","M_dime.wav","None","722.302434966","327","335930.979771","342831.485015","343598.190988","NA","NA","NA","NA","NA","336697.967706","337464.058122","338231.805686","338998.016678","339764.612277","340531.094102","341297.76792","342064.778734","342841.757171"
"Mixed","both","done","44","F_done.wav","None","722.406315617","327","335930.979771","342831.485015","343598.190988","344364.99002","NA","NA","NA","NA","336697.967706","337464.058122","338231.805686","338998.016678","339764.612277","340531.094102","341297.76792","342064.778734","343608.142535"
"Mixed","both","done","44","M_dime.wav","space","478.935047053","327","335930.979771","342831.485015","343598.190988","344364.99002","345114.167629","NA","NA","NA","336697.967706","337464.058122","338231.805686","338998.016678","339764.612277","340531.094102","341297.76792","342064.778734","344374.644765"
"Mixed","both","done","44","F_jaw.wav","None","734.753307421","327","335930.979771","342831.485015","343598.190988","344364.99002","345114.167629","345881.01582","NA","NA","336697.967706","337464.058122","338231.805686","338998.016678","339764.612277","340531.094102","341297.76792","342064.778734","345123.018224"
"Mixed","both","done","44","M_reek.wav","None","731.368210632","327","335930.979771","342831.485015","343598.190988","344364.99002","345114.167629","345881.01582","346647.960471","NA","336697.967706","337464.058122","338231.805686","338998.016678","339764.612277","340531.094102","341297.76792","342064.778734","345890.075104"
"Mixed","both","done","44","F_park.wav","None","730.088249315","327","335930.979771","342831.485015","343598.190988","344364.99002","345114.167629","345881.01582","346647.960471","347414.529791","336697.967706","337464.058122","338231.805686","338998.016678","339764.612277","340531.094102","341297.76792","342064.778734","346657.719715"
"Mixed","both","ball","1","M_priest.wav","None","731.580919586","327","350597.650869","342831.485015","343598.190988","344364.99002","345114.167629","345881.01582","346647.960471","347414.529791","336697.967706","337464.058122","338231.805686","338998.016678","339764.612277","340531.094102","341297.76792","342064.778734","347423.35998"
"Mixed","both","ball","1","M_lash.wav","None","724.92511943","327","350597.650869","342831.485015","343598.190988","344364.99002","345114.167629","345881.01582","346647.960471","347414.529791","351364.067459","337464.058122","338231.805686","338998.016678","339764.612277","340531.094102","341297.76792","342064.778734","350606.760547"
"Mixed","both","ball","1","M_jaw.wav","None","725.510376971","327","350597.650869","342831.485015","343598.190988","344364.99002","345114.167629","345881.01582","346647.960471","347414.529791","351364.067459","352131.416194","338231.805686","338998.016678","339764.612277","340531.094102","341297.76792","342064.778734","351372.976486"
"Mixed","both","ball","1","M_romp.wav","None","724.990971852","327","350597.650869","342831.485015","343598.190988","344364.99002","345114.167629","345881.01582","346647.960471","347414.529791","351364.067459","352131.416194","352897.28308","338998.016678","339764.612277","340531.094102","341297.76792","342064.778734","352140.726524"
"Mixed","both","ball","1","F_ball.wav","None","731.227229349","327","350597.650869","342831.485015","343598.190988","344364.99002","345114.167629","345881.01582","346647.960471","347414.529791","351364.067459","352131.416194","352897.28308","353664.395302","339764.612277","340531.094102","341297.76792","342064.778734","352906.205403"
"Mixed","both","ball","1","F_bluff.wav","space","419.603879564","327","350597.650869","342831.485015","343598.190988","344364.99002","345114.167629","345881.01582","346647.960471","347414.529791","351364.067459","352131.416194","352897.28308","353664.395302","354430.954728","340531.094102","341297.76792","342064.778734","353673.681207"
"Mixed","both","ball","1","M_bluff.wav","None","730.797174852","327","350597.650869","342831.485015","343598.190988","344364.99002","345114.167629","345881.01582","346647.960471","347414.529791","351364.067459","352131.416194","352897.28308","353664.395302","354430.954728","355197.743249","341297.76792","342064.778734","354440.543928"
"Mixed","both","ball","1","F_bluff.wav","None","731.494043022","327","350597.650869","342831.485015","343598.190988","344364.99002","345114.167629","345881.01582","346647.960471","347414.529791","351364.067459","352131.416194","352897.28308","353664.395302","354430.954728","355197.743249","355964.362035","342064.778734","355206.981542"
"Mixed","both","ball","1","F_ball.wav","None","728.326601442","327","350597.650869","342831.485015","343598.190988","344364.99002","345114.167629","345881.01582","346647.960471","347414.529791","351364.067459","352131.416194","352897.28308","353664.395302","354430.954728","355197.743249","355964.362035","356730.890235","355973.772845"
"Mixed","both","ball","1","F_romp.wav","space","505.038226023","327","350597.650869","357497.703799","343598.190988","344364.99002","345114.167629","345881.01582","346647.960471","347414.529791","351364.067459","352131.416194","352897.28308","353664.395302","354430.954728","355197.743249","355964.362035","356730.890235","356740.164392"
"Mixed","both","ball","1","F_reek.wav","None","725.357028656","327","350597.650869","357497.703799","358264.668236","344364.99002","345114.167629","345881.01582","346647.960471","347414.529791","351364.067459","352131.416194","352897.28308","353664.395302","354430.954728","355197.743249","355964.362035","356730.890235","357507.000834"
"Mixed","both","ball","1","M_ball.wav","None","721.815801691","327","350597.650869","357497.703799","358264.668236","359031.167066","345114.167629","345881.01582","346647.960471","347414.529791","351364.067459","352131.416194","352897.28308","353664.395302","354430.954728","355197.743249","355964.362035","356730.890235","358274.229303"
"Mixed","both","ball","1","M_park.wav","space","484.355715569","327","350597.650869","357497.703799","358264.668236","359031.167066","359797.883241","345881.01582","346647.960471","347414.529791","351364.067459","352131.416194","352897.28308","353664.395302","354430.954728","355197.743249","355964.362035","356730.890235","359040.766777"
"Mixed","both","ball","1","F_dime.wav","None","719.050590415","327","350597.650869","357497.703799","358264.668236","359031.167066","359797.883241","360564.756474","346647.960471","347414.529791","351364.067459","352131.416194","352897.28308","353664.395302","354430.954728","355197.743249","355964.362035","356730.890235","359807.664744"
"Mixed","both","ball","1","M_ball.wav","None","719.351720996","327","350597.650869","357497.703799","358264.668236","359031.167066","359797.883241","360564.756474","361314.079392","347414.529791","351364.067459","352131.416194","352897.28308","353664.395302","354430.954728","355197.743249","355964.362035","356730.890235","360574.34722"
"Mixed","both","ball","1","F_depth.wav","space","609.839565586","327","350597.650869","357497.703799","358264.668236","359031.167066","359797.883241","360564.756474","361314.079392","362080.227314","351364.067459","352131.416194","352897.28308","353664.395302","354430.954728","355197.743249","355964.362035","356730.890235","361323.2305"
"Mixed","both","done","43","F_cad.wav","None","734.772785101","327","365214.335756","357497.703799","358264.668236","359031.167066","359797.883241","360564.756474","361314.079392","362080.227314","351364.067459","352131.416194","352897.28308","353664.395302","354430.954728","355197.743249","355964.362035","356730.890235","362089.287835"
"Mixed","both","done","43","F_lash.wav","None","722.405697219","327","365214.335756","357497.703799","358264.668236","359031.167066","359797.883241","360564.756474","361314.079392","362080.227314","365980.905693","352131.416194","352897.28308","353664.395302","354430.954728","355197.743249","355964.362035","356730.890235","365224.227014"
"Mixed","both","done","43","M_jaw.wav","None","722.481134348","327","365214.335756","357497.703799","358264.668236","359031.167066","359797.883241","360564.756474","361314.079392","362080.227314","365980.905693","366748.163843","352897.28308","353664.395302","354430.954728","355197.743249","355964.362035","356730.890235","365991.083862"
"Mixed","both","done","43","F_park.wav","None","719.599056989","327","365214.335756","357497.703799","358264.668236","359031.167066","359797.883241","360564.756474","361314.079392","362080.227314","365980.905693","366748.163843","367497.330322","353664.395302","354430.954728","355197.743249","355964.362035","356730.890235","366757.674823"
"Mixed","both","done","43","F_done.wav","None","734.185363166","327","365214.335756","357497.703799","358264.668236","359031.167066","359797.883241","360564.756474","361314.079392","362080.227314","365980.905693","366748.163843","367497.330322","368263.553372","354430.954728","355197.743249","355964.362035","356730.890235","367506.733711"
"Mixed","both","done","43","M_cad.wav","space","452.448807657","327","365214.335756","357497.703799","358264.668236","359031.167066","359797.883241","360564.756474","361314.079392","362080.227314","365980.905693","366748.163843","367497.330322","368263.553372","369030.447628","355197.743249","355964.362035","356730.890235","368272.405512"
"Mixed","both","done","43","M_greet.wav","None","731.56978935","327","365214.335756","357497.703799","358264.668236","359031.167066","359797.883241","360564.756474","361314.079392","362080.227314","365980.905693","366748.163843","367497.330322","368263.553372","369030.447628","369796.867","355964.362035","356730.890235","369039.923982"
"Mixed","both","done","43","M_depth.wav","None","729.584611952","327","365214.335756","357497.703799","358264.668236","359031.167066","359797.883241","360564.756474","361314.079392","362080.227314","365980.905693","366748.163843","367497.330322","368263.553372","369030.447628","369796.867","370563.338313","356730.890235","369805.806327"
"Mixed","both","done","43","F_knife.wav","None","729.993952438","327","365214.335756","357497.703799","358264.668236","359031.167066","359797.883241","360564.756474","361314.079392","362080.227314","365980.905693","366748.163843","367497.330322","368263.553372","369030.447628","369796.867","370563.338313","371330.481451","370572.223535"
"Mixed","both","done","43","M_done.wav","None","729.298321065","327","365214.335756","372097.539877","358264.668236","359031.167066","359797.883241","360564.756474","361314.079392","362080.227314","365980.905693","366748.163843","367497.330322","368263.553372","369030.447628","369796.867","370563.338313","371330.481451","371339.963679"
"Mixed","both","done","43","F_priest.wav","space","497.290438972","327","365214.335756","372097.539877","372864.135167","359031.167066","359797.883241","360564.756474","361314.079392","362080.227314","365980.905693","366748.163843","367497.330322","368263.553372","369030.447628","369796.867","370563.338313","371330.481451","372107.460198"
"Mixed","both","done","43","F_done.wav","None","722.489481792","327","365214.335756","372097.539877","372864.135167","373630.727365","359797.883241","360564.756474","361314.079392","362080.227314","365980.905693","366748.163843","367497.330322","368263.553372","369030.447628","369796.867","370563.338313","371330.481451","372873.886372"
"Mixed","both","done","43","M_romp.wav","space","492.273855023","327","365214.335756","372097.539877","372864.135167","373630.727365","374380.254026","360564.756474","361314.079392","362080.227314","365980.905693","366748.163843","367497.330322","368263.553372","369030.447628","369796.867","370563.338313","371330.481451","373640.397877"
"Mixed","both","done","43","M_romp.wav","None","734.378593974","327","365214.335756","372097.539877","372864.135167","373630.727365","374380.254026","375146.920425","361314.079392","362080.227314","365980.905693","366748.163843","367497.330322","368263.553372","369030.447628","369796.867","370563.338313","371330.481451","374389.355357"
"Mixed","both","done","43","M_done.wav","None","731.392635498","327","365214.335756","372097.539877","372864.135167","373630.727365","374380.254026","375146.920425","375913.720385","362080.227314","365980.905693","366748.163843","367497.330322","368263.553372","369030.447628","369796.867","370563.338313","371330.481451","375156.213132"
"Mixed","both","done","43","F_bluff.wav","space","585.620774888","327","365214.335756","372097.539877","372864.135167","373630.727365","374380.254026","375146.920425","375913.720385","376680.261261","365980.905693","366748.163843","367497.330322","368263.553372","369030.447628","369796.867","370563.338313","371330.481451","375922.996706"
"Mixed","both","cave","13","M_reek.wav","None","725.945068989","327","379814.011066","372097.539877","372864.135167","373630.727365","374380.254026","375146.920425","375913.720385","376680.261261","365980.905693","366748.163843","367497.330322","368263.553372","369030.447628","369796.867","370563.338313","371330.481451","376689.097634"
"Mixed","both","cave","13","F_knife.wav","None","719.78301229","327","379814.011066","372097.539877","372864.135167","373630.727365","374380.254026","375146.920425","375913.720385","376680.261261","380563.399529","366748.163843","367497.330322","368263.553372","369030.447628","369796.867","370563.338313","371330.481451","379823.734137"
"Mixed","both","cave","13","F_dime.wav","None","734.888414852","327","379814.011066","372097.539877","372864.135167","373630.727365","374380.254026","375146.920425","375913.720385","376680.261261","380563.399529","381330.018315","367497.330322","368263.553372","369030.447628","369796.867","370563.338313","371330.481451","380573.037269"
"Mixed","both","cave","13","M_cave.wav","None","733.156756498","327","379814.011066","372097.539877","372864.135167","373630.727365","374380.254026","375146.920425","375913.720385","376680.261261","380563.399529","381330.018315","382096.405534","368263.553372","369030.447628","369796.867","370563.338313","371330.481451","381338.770594"
"Mixed","both","cave","13","M_dime.wav","space","386.674548034","327","379814.011066","372097.539877","372864.135167","373630.727365","374380.254026","375146.920425","375913.720385","376680.261261","380563.399529","381330.018315","382096.405534","382863.540943","369030.447628","369796.867","370563.338313","371330.481451","382105.753892"
"Mixed","both","cave","13","M_cave.wav","None","729.759292677","327","379814.011066","372097.539877","372864.135167","373630.727365","374380.254026","375146.920425","375913.720385","376680.261261","380563.399529","381330.018315","382096.405534","382863.540943","383630.081201","369796.867","370563.338313","371330.481451","382872.695451"
"Mixed","both","cave","13","F_cling.wav","space","492.884464562","327","379814.011066","372097.539877","372864.135167","373630.727365","374380.254026","375146.920425","375913.720385","376680.261261","380563.399529","381330.018315","382096.405534","382863.540943","383630.081201","384397.083357","370563.338313","371330.481451","383639.511797"
"Mixed","both","cave","13","F_depth.wav","None","723.206136841","327","379814.011066","372097.539877","372864.135167","373630.727365","374380.254026","375146.920425","375913.720385","376680.261261","380563.399529","381330.018315","382096.405534","382863.540943","383630.081201","384397.083357","385163.199125","371330.481451","384406.7684"
"Mixed","both","cave","13","M_bluff.wav","None","721.801889129","327","379814.011066","372097.539877","372864.135167","373630.727365","374380.254026","375146.920425","375913.720385","376680.261261","380563.399529","381330.018315","382096.405534","382863.540943","383630.081201","384397.083357","385163.199125","385913.286311","385172.002726"
"Mixed","both","cave","13","F_cave.wav","None","735.464397352","327","379814.011066","386680.345355","372864.135167","373630.727365","374380.254026","375146.920425","375913.720385","376680.261261","380563.399529","381330.018315","382096.405534","382863.540943","383630.081201","384397.083357","385163.199125","385913.286311","385922.454422"
"Mixed","both","cave","13","F_jolt.wav","space","475.276026875","327","379814.011066","386680.345355","387446.413201","373630.727365","374380.254026","375146.920425","375913.720385","376680.261261","380563.399529","381330.018315","382096.405534","382863.540943","383630.081201","384397.083357","385163.199125","385913.286311","386688.982931"
"Mixed","both","cave","13","M_reek.wav","None","735.292189755","327","379814.011066","386680.345355","387446.413201","388213.705359","374380.254026","375146.920425","375913.720385","376680.261261","380563.399529","381330.018315","382096.405534","382863.540943","383630.081201","384397.083357","385163.199125","385913.286311","387455.838851"
"Mixed","both","cave","13","M_romp.wav","None","732.542127371","327","379814.011066","386680.345355","387446.413201","388213.705359","388979.964891","375146.920425","375913.720385","376680.261261","380563.399529","381330.018315","382096.405534","382863.540943","383630.081201","384397.083357","385163.199125","385913.286311","388222.737436"
"Mixed","both","cave","13","M_jolt.wav","None","729.646136984","327","379814.011066","386680.345355","387446.413201","388213.705359","388979.964891","389746.695288","375913.720385","376680.261261","380563.399529","381330.018315","382096.405534","382863.540943","383630.081201","384397.083357","385163.199125","385913.286311","388989.516373"
"Mixed","both","cave","13","F_cave.wav","None","730.315179564","327","379814.011066","386680.345355","387446.413201","388213.705359","388979.964891","389746.695288","390512.857431","376680.261261","380563.399529","381330.018315","382096.405534","382863.540943","383630.081201","384397.083357","385163.199125","385913.286311","389756.0455"
"Mixed","both","cave","13","F_cling.wav","space","394.40904092","327","379814.011066","386680.345355","387446.413201","388213.705359","388979.964891","389746.695288","390512.857431","391279.62431","380563.399529","381330.018315","382096.405534","382863.540943","383630.081201","384397.083357","385163.199125","385913.286311","390521.782226"
"Mixed","both","cave","21","F_cad.wav","None","725.38670944","327","394396.911768","386680.345355","387446.413201","388213.705359","388979.964891","389746.695288","390512.857431","391279.62431","380563.399529","381330.018315","382096.405534","382863.540943","383630.081201","384397.083357","385163.199125","385913.286311","391288.437804"
"Mixed","both","cave","21","M_reek.wav","None","720.250785816","327","394396.911768","386680.345355","387446.413201","388213.705359","388979.964891","389746.695288","390512.857431","391279.62431","395146.140391","381330.018315","382096.405534","382863.540943","383630.081201","384397.083357","385163.199125","385913.286311","394406.475926"
"Mixed","both","cave","21","M_cad.wav","None","734.763819259","327","394396.911768","386680.345355","387446.413201","388213.705359","388979.964891","389746.695288","390512.857431","391279.62431","395146.140391","395913.094317","382096.405534","382863.540943","383630.081201","384397.083357","385163.199125","385913.286311","395155.78184"
"Mixed","both","cave","21","F_cave.wav","None","732.037872076","327","394396.911768","386680.345355","387446.413201","388213.705359","388979.964891","389746.695288","390512.857431","391279.62431","395146.140391","395913.094317","396679.640449","382863.540943","383630.081201","384397.083357","385163.199125","385913.286311","395922.555211"
"Mixed","both","cave","21","F_depth.wav","space","403.464924078","327","394396.911768","386680.345355","387446.413201","388213.705359","388979.964891","389746.695288","390512.857431","391279.62431","395146.140391","395913.094317","396679.640449","397446.059821","383630.081201","384397.083357","385163.199125","385913.286311","396688.520105"
"Mixed","both","cave","21","M_reek.wav","None","726.977077313","327","394396.911768","386680.345355","387446.413201","388213.705359","388979.964891","389746.695288","390512.857431","391279.62431","395146.140391","395913.094317","396679.640449","397446.059821","398212.944493","384397.083357","385163.199125","385913.286311","397454.9571"
"Mixed","both","cave","21","F_dime.wav","None","723.817056045","327","394396.911768","386680.345355","387446.413201","388213.705359","388979.964891","389746.695288","390512.857431","391279.62431","395146.140391","395913.094317","396679.640449","397446.059821","398212.944493","398979.512885","385163.199125","385913.286311","398222.007178"
"Mixed","both","cave","21","M_cave.wav","None","721.036694944","327","394396.911768","386680.345355","387446.413201","388213.705359","388979.964891","389746.695288","390512.857431","391279.62431","395146.140391","395913.094317","396679.640449","397446.059821","398212.944493","398979.512885","399729.423226","385913.286311","398988.658427"
"Mixed","both","cave","21","F_bluff.wav","space","344.909153879","327","394396.911768","386680.345355","387446.413201","388213.705359","388979.964891","389746.695288","390512.857431","391279.62431","395146.140391","395913.094317","396679.640449","397446.059821","398212.944493","398979.512885","399729.423226","400496.252248","399739.017991"
"Mixed","both","cave","21","F_cave.wav","None","730.853752699","327","394396.911768","401262.907517","387446.413201","388213.705359","388979.964891","389746.695288","390512.857431","391279.62431","395146.140391","395913.094317","396679.640449","397446.059821","398212.944493","398979.512885","399729.423226","400496.252248","400505.776832"
"Mixed","both","cave","21","M_depth.wav","space","620.073693339","327","394396.911768","401262.907517","402029.518883","388213.705359","388979.964891","389746.695288","390512.857431","391279.62431","395146.140391","395913.094317","396679.640449","397446.059821","398212.944493","398979.512885","399729.423226","400496.252248","401271.776352"
"Mixed","both","cave","21","M_cave.wav","None","724.933776073","327","394396.911768","401262.907517","402029.518883","402796.516711","388979.964891","389746.695288","390512.857431","391279.62431","395146.140391","395913.094317","396679.640449","397446.059821","398212.944493","398979.512885","399729.423226","400496.252248","402038.938349"
"Mixed","both","cave","21","M_gnash.wav","space","605.618784204","327","394396.911768","401262.907517","402029.518883","402796.516711","403563.292865","389746.695288","390512.857431","391279.62431","395146.140391","395913.094317","396679.640449","397446.059821","398212.944493","398979.512885","399729.423226","400496.252248","402806.211338"
"Mixed","both","cave","21","F_depth.wav","None","721.112132072","327","394396.911768","401262.907517","402029.518883","402796.516711","403563.292865","404329.54745","390512.857431","391279.62431","395146.140391","395913.094317","396679.640449","397446.059821","398212.944493","398979.512885","399729.423226","400496.252248","403573.36066"
"Mixed","both","cave","21","F_dime.wav","None","719.72736204","327","394396.911768","401262.907517","402029.518883","402796.516711","403563.292865","404329.54745","405079.319902","391279.62431","395146.140391","395913.094317","396679.640449","397446.059821","398212.944493","398979.512885","399729.423226","400496.252248","404338.834901"
"Mixed","both","cave","21","M_knife.wav","None","734.500097577","327","394396.911768","401262.907517","402029.518883","402796.516711","403563.292865","404329.54745","405079.319902","405845.732472","395146.140391","395913.094317","396679.640449","397446.059821","398212.944493","398979.512885","399729.423226","400496.252248","405088.257682"
"Mixed","both","cave","19","F_reek.wav","None","732.277478091","327","408979.70457","401262.907517","402029.518883","402796.516711","403563.292865","404329.54745","405079.319902","405845.732472","395146.140391","395913.094317","396679.640449","397446.059821","398212.944493","398979.512885","399729.423226","400496.252248","405854.513194"
"Mixed","both","cave","19","M_jolt.wav","None","719.961094204","327","408979.70457","401262.907517","402029.518883","402796.516711","403563.292865","404329.54745","405079.319902","405845.732472","409729.08685","395913.094317","396679.640449","397446.059821","398212.944493","398979.512885","399729.423226","400496.252248","408989.595211"
"Mixed","both","cave","19","F_romp.wav","None","735.261891503","327","408979.70457","401262.907517","402029.518883","402796.516711","403563.292865","404329.54745","405079.319902","405845.732472","409729.08685","410496.131362","396679.640449","397446.059821","398212.944493","398979.512885","399729.423226","400496.252248","409738.342765"
"Mixed","both","cave","19","M_lash.wav","None","731.930899434","327","408979.70457","401262.907517","402029.518883","402796.516711","403563.292865","404329.54745","405079.319902","405845.732472","409729.08685","410496.131362","411262.225489","397446.059821","398212.944493","398979.512885","399729.423226","400496.252248","410505.673878"
"Mixed","both","cave","19","M_reek.wav","None","730.673816055","327","408979.70457","401262.907517","402029.518883","402796.516711","403563.292865","404329.54745","405079.319902","405845.732472","409729.08685","410496.131362","411262.225489","412029.212496","398212.944493","398979.512885","399729.423226","400496.252248","411271.075774"
"Mixed","both","cave","19","F_jaw.wav","None","727.465255652","327","408979.70457","401262.907517","402029.518883","402796.516711","403563.292865","404329.54745","405079.319902","405845.732472","409729.08685","410496.131362","411262.225489","412029.212496","412796.233512","398979.512885","399729.423226","400496.252248","412038.239008"
"Mixed","both","cave","19","M_cave.wav","None","723.661852535","327","408979.70457","401262.907517","402029.518883","402796.516711","403563.292865","404329.54745","405079.319902","405845.732472","409729.08685","410496.131362","411262.225489","412029.212496","412796.233512","413562.874868","399729.423226","400496.252248","412805.875272"
"Mixed","both","cave","19","F_lash.wav","space","318.465579301","327","408979.70457","401262.907517","402029.518883","402796.516711","403563.292865","404329.54745","405079.319902","405845.732472","409729.08685","410496.131362","411262.225489","412029.212496","412796.233512","413562.874868","414312.152339","400496.252248","413573.02954"
"Mixed","both","cave","19","M_lash.wav","None","735.64773472","327","408979.70457","401262.907517","402029.518883","402796.516711","403563.292865","404329.54745","405079.319902","405845.732472","409729.08685","410496.131362","411262.225489","412029.212496","412796.233512","413562.874868","414312.152339","415079.202417","414321.518628"
"Mixed","both","cave","19","M_cave.wav","None","732.428971678","327","408979.70457","415845.883965","402029.518883","402796.516711","403563.292865","404329.54745","405079.319902","405845.732472","409729.08685","410496.131362","411262.225489","412029.212496","412796.233512","413562.874868","414312.152339","415079.202417","415088.920232"
"Mixed","both","cave","19","M_romp.wav","space","452.491472941","327","408979.70457","415845.883965","416611.920277","402796.516711","403563.292865","404329.54745","405079.319902","405845.732472","409729.08685","410496.131362","411262.225489","412029.212496","412796.233512","413562.874868","414312.152339","415079.202417","415854.931192"
"Mixed","both","cave","19","F_cave.wav","None","730.98082142","327","408979.70457","415845.883965","416611.920277","417379.098969","403563.292865","404329.54745","405079.319902","405845.732472","409729.08685","410496.131362","411262.225489","412029.212496","412796.233512","413562.874868","414312.152339","415079.202417","416620.697907"
"Mixed","both","cave","19","F_reek.wav","space","638.683531899","327","408979.70457","415845.883965","416611.920277","417379.098969","418145.445378","404329.54745","405079.319902","405845.732472","409729.08685","410496.131362","411262.225489","412029.212496","412796.233512","413562.874868","414312.152339","415079.202417","417388.711666"
"Mixed","both","cave","19","F_cave.wav","None","725.103200879","327","408979.70457","415845.883965","416611.920277","417379.098969","418145.445378","418912.867696","405079.319902","405845.732472","409729.08685","410496.131362","411262.225489","412029.212496","412796.233512","413562.874868","414312.152339","415079.202417","418154.278349"
"Mixed","both","cave","19","M_jolt.wav","space","504.710506182","327","408979.70457","415845.883965","416611.920277","417379.098969","418145.445378","418912.867696","419661.928748","405845.732472","409729.08685","410496.131362","411262.225489","412029.212496","412796.233512","413562.874868","414312.152339","415079.202417","418922.638069"
"Mixed","both","cave","19","F_dime.wav","None","735.461305827","327","408979.70457","415845.883965","416611.920277","417379.098969","418145.445378","418912.867696","419661.928748","420428.908026","409729.08685","410496.131362","411262.225489","412029.212496","412796.233512","413562.874868","414312.152339","415079.202417","419671.292873"
"Mixed","both","cave","16","M_cad.wav","None","732.241614722","327","423562.434302","415845.883965","416611.920277","417379.098969","418145.445378","418912.867696","419661.928748","420428.908026","409729.08685","410496.131362","411262.225489","412029.212496","412796.233512","413562.874868","414312.152339","415079.202417","420438.398601"
"Mixed","both","cave","16","M_jaw.wav","None","720.032203011","327","423562.434302","415845.883965","416611.920277","417379.098969","418145.445378","418912.867696","419661.928748","420428.908026","424311.784737","410496.131362","411262.225489","412029.212496","412796.233512","413562.874868","414312.152339","415079.202417","423572.327725"
"Mixed","both","cave","16","F_lash.wav","None","735.653299838","327","423562.434302","415845.883965","416611.920277","417379.098969","418145.445378","418912.867696","419661.928748","420428.908026","424311.784737","425078.85862","411262.225489","412029.212496","412796.233512","413562.874868","414312.152339","415079.202417","424320.768583"
"Mixed","both","cave","16","F_cave.wav","None","732.36620985","327","423562.434302","415845.883965","416611.920277","417379.098969","418145.445378","418912.867696","419661.928748","420428.908026","424311.784737","425078.85862","425845.579742","412029.212496","412796.233512","413562.874868","414312.152339","415079.202417","425088.238204"
"Mixed","both","cave","16","M_lash.wav","space","508.226381615","327","423562.434302","415845.883965","416611.920277","417379.098969","418145.445378","418912.867696","419661.928748","420428.908026","424311.784737","425078.85862","425845.579742","426612.169158","412796.233512","413562.874868","414312.152339","415079.202417","425854.855136"
"Mixed","both","cave","16","F_cave.wav","None","726.500028279","327","423562.434302","415845.883965","416611.920277","417379.098969","418145.445378","418912.867696","419661.928748","420428.908026","424311.784737","425078.85862","425845.579742","426612.169158","427379.138543","413562.874868","414312.152339","415079.202417","426621.747847"
"Mixed","both","cave","16","F_knife.wav","space","614.373845048","327","423562.434302","415845.883965","416611.920277","417379.098969","418145.445378","418912.867696","419661.928748","420428.908026","424311.784737","425078.85862","425845.579742","426612.169158","427379.138543","428145.849153","414312.152339","415079.202417","427388.71785"
"Mixed","both","cave","16","F_gnash.wav","None","720.090945251","327","423562.434302","415845.883965","416611.920277","417379.098969","418145.445378","418912.867696","419661.928748","420428.908026","424311.784737","425078.85862","425845.579742","426612.169158","427379.138543","428145.849153","428912.427129","415079.202417","428155.713823"
"Mixed","both","cave","16","F_reek.wav","None","720.976715907","327","423562.434302","415845.883965","416611.920277","417379.098969","418145.445378","418912.867696","419661.928748","420428.908026","424311.784737","425078.85862","425845.579742","426612.169158","427379.138543","428145.849153","428912.427129","429662.236681","428922.497706"
"Mixed","both","cave","16","M_cave.wav","None","735.265910625","327","423562.434302","430428.605349","416611.920277","417379.098969","418145.445378","418912.867696","419661.928748","420428.908026","424311.784737","425078.85862","425845.579742","426612.169158","427379.138543","428145.849153","428912.427129","429662.236681","429672.14247"
"Mixed","both","cave","16","M_romp.wav","space","420.789544936","327","423562.434302","430428.605349","431195.456631","417379.098969","418145.445378","418912.867696","419661.928748","420428.908026","424311.784737","425078.85862","425845.579742","426612.169158","427379.138543","428145.849153","428912.427129","429662.236681","430438.175381"
"Mixed","both","cave","16","M_cave.wav","None","730.442866683","327","423562.434302","430428.605349","431195.456631","431962.006473","418145.445378","418912.867696","419661.928748","420428.908026","424311.784737","425078.85862","425845.579742","426612.169158","427379.138543","428145.849153","428912.427129","429662.236681","431204.510659"
"Mixed","both","cave","16","F_jolt.wav","space","688.034090213","327","423562.434302","430428.605349","431195.456631","431962.006473","432728.390909","418912.867696","419661.928748","420428.908026","424311.784737","425078.85862","425845.579742","426612.169158","427379.138543","428145.849153","428912.427129","429662.236681","431970.908389"
"Mixed","both","cave","16","M_lash.wav","None","725.27571721","327","423562.434302","430428.605349","431195.456631","431962.006473","432728.390909","433495.620924","419661.928748","420428.908026","424311.784737","425078.85862","425845.579742","426612.169158","427379.138543","428145.849153","428912.427129","429662.236681","432737.469362"
"Mixed","both","cave","16","F_depth.wav","None","721.135938074","327","423562.434302","430428.605349","431195.456631","431962.006473","432728.390909","433495.620924","434262.152834","420428.908026","424311.784737","425078.85862","425845.579742","426612.169158","427379.138543","428145.849153","428912.427129","429662.236681","433505.650382"
"Mixed","both","cave","16","M_knife.wav","None","719.202392269","327","423562.434302","430428.605349","431195.456631","431962.006473","432728.390909","433495.620924","434262.152834","435011.839954","424311.784737","425078.85862","425845.579742","426612.169158","427379.138543","428145.849153","428912.427129","429662.236681","434271.915478"
"Mixed","both","cave","17","M_depth.wav","None","734.210096765","327","438145.548949","430428.605349","431195.456631","431962.006473","432728.390909","433495.620924","434262.152834","435011.839954","424311.784737","425078.85862","425845.579742","426612.169158","427379.138543","428145.849153","428912.427129","429662.236681","435020.96942"
"Mixed","both","cave","17","M_lash.wav","None","720.43566918","327","438145.548949","430428.605349","431195.456631","431962.006473","432728.390909","433495.620924","434262.152834","435011.839954","438894.890727","425078.85862","425845.579742","426612.169158","427379.138543","428145.849153","428912.427129","429662.236681","438155.261817"
"Mixed","both","cave","17","F_depth.wav","None","736.030486412","327","438145.548949","430428.605349","431195.456631","431962.006473","432728.390909","433495.620924","434262.152834","435011.839954","438894.890727","439661.656369","425845.579742","426612.169158","427379.138543","428145.849153","428912.427129","429662.236681","438904.223008"
"Mixed","both","cave","17","M_dime.wav","None","733.587429393","327","438145.548949","430428.605349","431195.456631","431962.006473","432728.390909","433495.620924","434262.152834","435011.839954","438894.890727","439661.656369","440428.32957","426612.169158","427379.138543","428145.849153","428912.427129","429662.236681","439670.828191"
"Mixed","both","cave","17","F_cave.wav","None","730.884361081","327","438145.548949","430428.605349","431195.456631","431962.006473","432728.390909","433495.620924","434262.152834","435011.839954","438894.890727","439661.656369","440428.32957","441194.750797","427379.138543","428145.849153","428912.427129","429662.236681","440437.694622"
"Mixed","both","cave","17","F_gnash.wav","space","318.914184347","327","438145.548949","430428.605349","431195.456631","431962.006473","432728.390909","433495.620924","434262.152834","435011.839954","438894.890727","439661.656369","440428.32957","441194.750797","441961.688337","428145.849153","428912.427129","429662.236681","441203.752885"
"Mixed","both","cave","17","F_cave.wav","None","725.492445286","327","438145.548949","430428.605349","431195.456631","431962.006473","432728.390909","433495.620924","434262.152834","435011.839954","438894.890727","439661.656369","440428.32957","441194.750797","441961.688337","442728.333095","428912.427129","429662.236681","441970.787813"
"Mixed","both","cave","17","F_cling.wav","space","592.847920954","327","438145.548949","430428.605349","431195.456631","431962.006473","432728.390909","433495.620924","434262.152834","435011.839954","438894.890727","439661.656369","440428.32957","441194.750797","441961.688337","442728.333095","443494.832851","429662.236681","442737.777294"
"Mixed","both","cave","17","M_priest.wav","None","720.439069904","327","438145.548949","430428.605349","431195.456631","431962.006473","432728.390909","433495.620924","434262.152834","435011.839954","438894.890727","439661.656369","440428.32957","441194.750797","441961.688337","442728.333095","443494.832851","444244.729279","443503.950259"
"Mixed","both","cave","17","M_cave.wav","None","734.203913249","327","438145.548949","445011.354558","431195.456631","431962.006473","432728.390909","433495.620924","434262.152834","435011.839954","438894.890727","439661.656369","440428.32957","441194.750797","441961.688337","442728.333095","443494.832851","444244.729279","444254.511401"
"Mixed","both","cave","17","F_romp.wav","space","574.031557888","327","438145.548949","445011.354558","445778.052801","431962.006473","432728.390909","433495.620924","434262.152834","435011.839954","438894.890727","439661.656369","440428.32957","441194.750797","441961.688337","442728.333095","443494.832851","444244.729279","445020.534109"
"Mixed","both","cave","17","M_cad.wav","None","729.836585466","327","438145.548949","445011.354558","445778.052801","446544.993124","432728.390909","433495.620924","434262.152834","435011.839954","438894.890727","439661.656369","440428.32957","441194.750797","441961.688337","442728.333095","443494.832851","444244.729279","445786.893193"
"Mixed","both","cave","17","F_reek.wav","None","727.388272528","327","438145.548949","445011.354558","445778.052801","446544.993124","447311.578521","433495.620924","434262.152834","435011.839954","438894.890727","439661.656369","440428.32957","441194.750797","441961.688337","442728.333095","443494.832851","444244.729279","446554.27872"
"Mixed","both","cave","17","M_depth.wav","None","724.62275112","327","438145.548949","445011.354558","445778.052801","446544.993124","447311.578521","448078.364568","434262.152834","435011.839954","438894.890727","439661.656369","440428.32957","441194.750797","441961.688337","442728.333095","443494.832851","444244.729279","447321.168339"
"Mixed","both","cave","17","M_cave.wav","None","721.569702961","327","438145.548949","445011.354558","445778.052801","446544.993124","447311.578521","448078.364568","448845.252641","435011.839954","438894.890727","439661.656369","440428.32957","441194.750797","441961.688337","442728.333095","443494.832851","444244.729279","448088.331264"
"Mixed","both","cave","17","F_gnash.wav","space","531.229826622","327","438145.548949","445011.354558","445778.052801","446544.993124","447311.578521","448078.364568","448845.252641","449594.411082","438894.890727","439661.656369","440428.32957","441194.750797","441961.688337","442728.333095","443494.832851","444244.729279","448855.19615"
"Mixed","both","done","40","M_reek.wav","None","734.603051096","327","452728.505302","445011.354558","445778.052801","446544.993124","447311.578521","448078.364568","448845.252641","449594.411082","438894.890727","439661.656369","440428.32957","441194.750797","441961.688337","442728.333095","443494.832851","444244.729279","449603.575793"
"Mixed","both","done","40","M_done.wav","None","720.021073241","327","452728.505302","445011.354558","445778.052801","446544.993124","447311.578521","448078.364568","448845.252641","449594.411082","453477.785555","439661.656369","440428.32957","441194.750797","441961.688337","442728.333095","443494.832851","444244.729279","452738.284332"
"Mixed","both","done","40","F_bluff.wav","space","579.096371774","327","452728.505302","445011.354558","445778.052801","446544.993124","447311.578521","448078.364568","448845.252641","449594.411082","453477.785555","454244.406506","440428.32957","441194.750797","441961.688337","442728.333095","443494.832851","444244.729279","453487.175032"
"Mixed","both","done","40","F_done.wav","None","732.923951931","327","452728.505302","445011.354558","445778.052801","446544.993124","447311.578521","448078.364568","448845.252641","449594.411082","453477.785555","454244.406506","455011.323023","441194.750797","441961.688337","442728.333095","443494.832851","444244.729279","454253.573072"
"Mixed","both","done","40","F_lash.wav","space","509.707921185","327","452728.505302","445011.354558","445778.052801","446544.993124","447311.578521","448078.364568","448845.252641","449594.411082","453477.785555","454244.406506","455011.323023","455777.891724","441961.688337","442728.333095","443494.832851","444244.729279","455020.526689"
"Mixed","both","done","40","M_park.wav","None","726.617821958","327","452728.505302","445011.354558","445778.052801","446544.993124","447311.578521","448078.364568","448845.252641","449594.411082","453477.785555","454244.406506","455011.323023","455777.891724","456545.069798","442728.333095","443494.832851","444244.729279","455787.327886"
"Mixed","both","done","40","F_knife.wav","None","723.249111325","327","452728.505302","445011.354558","445778.052801","446544.993124","447311.578521","448078.364568","448845.252641","449594.411082","453477.785555","454244.406506","455011.323023","455777.891724","456545.069798","457311.484842","443494.832851","444244.729279","456554.866142"
"Mixed","both","done","40","F_lash.wav","None","721.265789121","327","452728.505302","445011.354558","445778.052801","446544.993124","447311.578521","448078.364568","448845.252641","449594.411082","453477.785555","454244.406506","455011.323023","455777.891724","456545.069798","457311.484842","458077.761687","444244.729279","457321.315813"
"Mixed","both","done","40","F_gnash.wav","None","719.806509558","327","452728.505302","445011.354558","445778.052801","446544.993124","447311.578521","448078.364568","448845.252641","449594.411082","453477.785555","454244.406506","455011.323023","455777.891724","456545.069798","457311.484842","458077.761687","458827.484671","458087.210216"
"Mixed","both","done","40","F_done.wav","None","732.653428335","327","452728.505302","459594.544334","445778.052801","446544.993124","447311.578521","448078.364568","448845.252641","449594.411082","453477.785555","454244.406506","455011.323023","455777.891724","456545.069798","457311.484842","458077.761687","458827.484671","458838.755135"
"Mixed","both","done","40","M_gnash.wav","space","422.423814423","327","452728.505302","459594.544334","460361.151372","446544.993124","447311.578521","448078.364568","448845.252641","449594.411082","453477.785555","454244.406506","455011.323023","455777.891724","456545.069798","457311.484842","458077.761687","458827.484671","459603.702861"
"Mixed","both","done","40","M_cling.wav","None","729.47114706","327","452728.505302","459594.544334","460361.151372","461127.744498","447311.578521","448078.364568","448845.252641","449594.411082","453477.785555","454244.406506","455011.323023","455777.891724","456545.069798","457311.484842","458077.761687","458827.484671","460370.005367"
"Mixed","both","done","40","F_romp.wav","None","729.642735794","327","452728.505302","459594.544334","460361.151372","461127.744498","461894.062153","448078.364568","448845.252641","449594.411082","453477.785555","454244.406506","455011.323023","455777.891724","456545.069798","457311.484842","458077.761687","458827.484671","461137.416865"
"Mixed","both","done","40","M_reek.wav","None","734.054584522","327","452728.505302","459594.544334","460361.151372","461127.744498","461894.062153","462661.090898","448845.252641","449594.411082","453477.785555","454244.406506","455011.323023","455777.891724","456545.069798","457311.484842","458077.761687","458827.484671","461897.529798"
"Mixed","both","done","40","M_done.wav","None","725.706081372","327","452728.505302","459594.544334","460361.151372","461127.744498","461894.062153","462661.090898","463428.070177","449594.411082","453477.785555","454244.406506","455011.323023","455777.891724","456545.069798","457311.484842","458077.761687","458827.484671","462670.305694"
"Mixed","both","done","40","M_reek.wav","space","531.911236234","327","452728.505302","459594.544334","460361.151372","461127.744498","461894.062153","462661.090898","463428.070177","464194.220572","453477.785555","454244.406506","455011.323023","455777.891724","456545.069798","457311.484842","458077.761687","458827.484671","463438.103344"
"Mixed","both","tile","29","F_lash.wav","None","720.459475648","327","467311.293157","459594.544334","460361.151372","461127.744498","461894.062153","462661.090898","463428.070177","464194.220572","453477.785555","454244.406506","455011.323023","455777.891724","456545.069798","457311.484842","458077.761687","458827.484671","464203.751957"
"Mixed","both","tile","29","F_tile.wav","None","720.125263091","327","467311.293157","459594.544334","460361.151372","461127.744498","461894.062153","462661.090898","463428.070177","464194.220572","468077.808063","454244.406506","455011.323023","455777.891724","456545.069798","457311.484842","458077.761687","458827.484671","467321.05271"
"Mixed","both","tile","29","M_knife.wav","space","434.504302219","327","467311.293157","459594.544334","460361.151372","461127.744498","461894.062153","462661.090898","463428.070177","464194.220572","468077.808063","468827.369351","455011.323023","455777.891724","456545.069798","457311.484842","458077.761687","458827.484671","468087.331719"
"Mixed","both","tile","29","M_cling.wav","None","736.040071119","327","467311.293157","459594.544334","460361.151372","461127.744498","461894.062153","462661.090898","463428.070177","464194.220572","468077.808063","468827.369351","469593.769555","455777.891724","456545.069798","457311.484842","458077.761687","458827.484671","468836.391844"
"Mixed","both","tile","29","M_reek.wav","None","734.014392365","327","467311.293157","459594.544334","460361.151372","461127.744498","461894.062153","462661.090898","463428.070177","464194.220572","468077.808063","468827.369351","469593.769555","470361.056148","456545.069798","457311.484842","458077.761687","458827.484671","469602.90273"
"Mixed","both","tile","29","M_tile.wav","None","731.251345016","327","467311.293157","459594.544334","460361.151372","461127.744498","461894.062153","462661.090898","463428.070177","464194.220572","468077.808063","468827.369351","469593.769555","470361.056148","471127.472738","457311.484842","458077.761687","458827.484671","470370.342362"
"Mixed","both","tile","29","F_jaw.wav","space","392.554642633","327","467311.293157","459594.544334","460361.151372","461127.744498","461894.062153","462661.090898","463428.070177","464194.220572","468077.808063","468827.369351","469593.769555","470361.056148","471127.472738","471893.825948","458077.761687","458827.484671","471137.226725"
"Mixed","both","tile","29","M_greet.wav","None","730.571790133","327","467311.293157","459594.544334","460361.151372","461127.744498","461894.062153","462661.090898","463428.070177","464194.220572","468077.808063","468827.369351","469593.769555","470361.056148","471127.472738","471893.825948","472660.778328","458827.484671","471902.734666"
"Mixed","both","tile","29","M_priest.wav","None","727.582121734","327","467311.293157","459594.544334","460361.151372","461127.744498","461894.062153","462661.090898","463428.070177","464194.220572","468077.808063","468827.369351","469593.769555","470361.056148","471127.472738","471893.825948","472660.778328","473427.471315","472670.228402"
"Mixed","both","tile","29","M_tile.wav","None","725.726486649","327","467311.293157","474194.552619","460361.151372","461127.744498","461894.062153","462661.090898","463428.070177","464194.220572","468077.808063","468827.369351","469593.769555","470361.056148","471127.472738","471893.825948","472660.778328","473427.471315","473436.850899"
"Mixed","both","tile","29","M_cling.wav","space","413.094625808","327","467311.293157","474194.552619","474961.057632","461127.744498","461894.062153","462661.090898","463428.070177","464194.220572","468077.808063","468827.369351","469593.769555","470361.056148","471127.472738","471893.825948","472660.778328","473427.471315","474204.624434"
"Mixed","both","tile","29","F_jolt.wav","None","719.942234457","327","467311.293157","474194.552619","474961.057632","475710.474538","461894.062153","462661.090898","463428.070177","464194.220572","468077.808063","468827.369351","469593.769555","470361.056148","471127.472738","471893.825948","472660.778328","473427.471315","474970.600766"
"Mixed","both","tile","29","F_knife.wav","None","735.296209343","327","467311.293157","474194.552619","474961.057632","475710.474538","476477.291503","462661.090898","463428.070177","464194.220572","468077.808063","468827.369351","469593.769555","470361.056148","471127.472738","471893.825948","472660.778328","473427.471315","475719.732"
"Mixed","both","tile","29","F_tile.wav","None","732.740305364","327","467311.293157","474194.552619","474961.057632","475710.474538","476477.291503","477243.659553","463428.070177","464194.220572","468077.808063","468827.369351","469593.769555","470361.056148","471127.472738","471893.825948","472660.778328","473427.471315","476486.800319"
"Mixed","both","tile","29","F_depth.wav","space","476.713046432","327","467311.293157","474194.552619","474961.057632","475710.474538","476477.291503","477243.659553","478010.194245","464194.220572","468077.808063","468827.369351","469593.769555","470361.056148","471127.472738","471893.825948","472660.778328","473427.471315","477252.892899"
"Mixed","both","tile","29","F_cad.wav","None","728.844769765","327","467311.293157","474194.552619","474961.057632","475710.474538","476477.291503","477243.659553","478010.194245","478777.055421","468077.808063","468827.369351","469593.769555","470361.056148","471127.472738","471893.825948","472660.778328","473427.471315","478019.202825"
"Mixed","both","cave","14","M_bluff.wav","None","726.831148844","327","481910.834597","474194.552619","474961.057632","475710.474538","476477.291503","477243.659553","478010.194245","478777.055421","468077.808063","468827.369351","469593.769555","470361.056148","471127.472738","471893.825948","472660.778328","473427.471315","478785.907252"
"Mixed","both","cave","14","F_lash.wav","None","719.936978538","327","481910.834597","474194.552619","474961.057632","475710.474538","476477.291503","477243.659553","478010.194245","478777.055421","482660.406397","468827.369351","469593.769555","470361.056148","471127.472738","471893.825948","472660.778328","473427.471315","481920.58673"
"Mixed","both","cave","14","F_gnash.wav","None","735.066805501","327","481910.834597","474194.552619","474961.057632","475710.474538","476477.291503","477243.659553","478010.194245","478777.055421","482660.406397","483426.963968","469593.769555","470361.056148","471127.472738","471893.825948","472660.778328","473427.471315","482669.904702"
"Mixed","both","cave","14","M_jolt.wav","None","733.763037715","327","481910.834597","474194.552619","474961.057632","475710.474538","476477.291503","477243.659553","478010.194245","478777.055421","482660.406397","483426.963968","484193.851114","470361.056148","471127.472738","471893.825948","472660.778328","473427.471315","483435.776226"
"Mixed","both","cave","14","M_cad.wav","None","731.236814056","327","481910.834597","474194.552619","474961.057632","475710.474538","476477.291503","477243.659553","478010.194245","478777.055421","482660.406397","483426.963968","484193.851114","484960.443312","471127.472738","471893.825948","472660.778328","473427.471315","484202.815792"
"Mixed","both","cave","14","F_knife.wav","None","728.939684574","327","481910.834597","474194.552619","474961.057632","475710.474538","476477.291503","477243.659553","478010.194245","478777.055421","482660.406397","483426.963968","484193.851114","484960.443312","485726.580103","471893.825948","472660.778328","473427.471315","484970.095583"
"Mixed","both","cave","14","F_cave.wav","None","728.406058159","327","481910.834597","474194.552619","474961.057632","475710.474538","476477.291503","477243.659553","478010.194245","478777.055421","482660.406397","483426.963968","484193.851114","484960.443312","485726.580103","486493.774564","472660.778328","473427.471315","485735.387723"
"Mixed","both","cave","14","M_greet.wav","space","538.177483249","327","481910.834597","474194.552619","474961.057632","475710.474538","476477.291503","477243.659553","478010.194245","478777.055421","482660.406397","483426.963968","484193.851114","484960.443312","485726.580103","486493.774564","487260.966551","473427.471315","486503.093241"
"Mixed","both","cave","14","F_jolt.wav","None","721.129754558","327","481910.834597","474194.552619","474961.057632","475710.474538","476477.291503","477243.659553","478010.194245","478777.055421","482660.406397","483426.963968","484193.851114","484960.443312","485726.580103","486493.774564","487260.966551","488027.336147","487270.696423"
"Mixed","both","cave","14","M_cave.wav","None","719.33904523","327","481910.834597","488776.474491","474961.057632","475710.474538","476477.291503","477243.659553","478010.194245","478777.055421","482660.406397","483426.963968","484193.851114","484960.443312","485726.580103","486493.774564","487260.966551","488027.336147","488037.068492"
"Mixed","both","cave","14","F_gnash.wav","space","503.820407204","327","481910.834597","488776.474491","489543.613919","475710.474538","476477.291503","477243.659553","478010.194245","478777.055421","482660.406397","483426.963968","484193.851114","484960.443312","485726.580103","486493.774564","487260.966551","488027.336147","488785.434532"
"Mixed","both","cave","14","M_depth.wav","None","731.474565342","327","481910.834597","488776.474491","489543.613919","490310.274753","476477.291503","477243.659553","478010.194245","478777.055421","482660.406397","483426.963968","484193.851114","484960.443312","485726.580103","486493.774564","487260.966551","488027.336147","489552.935997"
"Mixed","both","cave","14","M_cave.wav","None","729.348406661","327","481910.834597","488776.474491","489543.613919","490310.274753","491076.616833","477243.659553","478010.194245","478777.055421","482660.406397","483426.963968","484193.851114","484960.443312","485726.580103","486493.774564","487260.966551","488027.336147","490319.637332"
"Mixed","both","cave","14","M_dime.wav","space","523.439683486","327","481910.834597","488776.474491","489543.613919","490310.274753","491076.616833","491843.911464","478010.194245","478777.055421","482660.406397","483426.963968","484193.851114","484960.443312","485726.580103","486493.774564","487260.966551","488027.336147","491085.742588"
"Mixed","both","cave","14","F_cave.wav","None","723.020326346","327","481910.834597","488776.474491","489543.613919","490310.274753","491076.616833","491843.911464","492610.534888","478777.055421","482660.406397","483426.963968","484193.851114","484960.443312","485726.580103","486493.774564","487260.966551","488027.336147","491853.519524"
"Mixed","both","cave","14","F_reek.wav","space","644.562389236","327","481910.834597","488776.474491","489543.613919","490310.274753","491076.616833","491843.911464","492610.534888","493359.580482","482660.406397","483426.963968","484193.851114","484960.443312","485726.580103","486493.774564","487260.966551","488027.336147","492620.548578"
"Mixed","both","tile","34","M_romp.wav","None","736.048109364","327","496493.854948","488776.474491","489543.613919","490310.274753","491076.616833","491843.911464","492610.534888","493359.580482","482660.406397","483426.963968","484193.851114","484960.443312","485726.580103","486493.774564","487260.966551","488027.336147","493368.513006"
"Mixed","both","tile","34","M_tile.wav","None","720.575722866","327","496493.854948","488776.474491","489543.613919","490310.274753","491076.616833","491843.911464","492610.534888","493359.580482","497260.402625","483426.963968","484193.851114","484960.443312","485726.580103","486493.774564","487260.966551","488027.336147","496503.595641"
"Mixed","both","tile","34","F_jolt.wav","space","410.804606974","327","496493.854948","488776.474491","489543.613919","490310.274753","491076.616833","491843.911464","492610.534888","493359.580482","497260.402625","498010.036878","484193.851114","484960.443312","485726.580103","486493.774564","487260.966551","488027.336147","497270.120131"
"Mixed","both","tile","34","F_knife.wav","None","733.287225943","327","496493.854948","488776.474491","489543.613919","490310.274753","491076.616833","491843.911464","492610.534888","493359.580482","497260.402625","498010.036878","498776.423478","484960.443312","485726.580103","486493.774564","487260.966551","488027.336147","498019.551877"
"Mixed","both","tile","34","F_bluff.wav","None","731.673361268","327","496493.854948","488776.474491","489543.613919","490310.274753","491076.616833","491843.911464","492610.534888","493359.580482","497260.402625","498010.036878","498776.423478","499542.875622","485726.580103","486493.774564","487260.966551","488027.336147","498785.46854"
"Mixed","both","tile","34","M_tile.wav","None","729.749399703","327","496493.854948","488776.474491","489543.613919","490310.274753","491076.616833","491843.911464","492610.534888","493359.580482","497260.402625","498010.036878","498776.423478","499542.875622","500309.968057","486493.774564","487260.966551","488027.336147","499551.730236"
"Mixed","both","tile","34","F_cad.wav","space","513.693424873","327","496493.854948","488776.474491","489543.613919","490310.274753","491076.616833","491843.911464","492610.534888","493359.580482","497260.402625","498010.036878","498776.423478","499542.875622","500309.968057","501076.890139","487260.966551","488027.336147","500319.195838"
"Mixed","both","tile","34","F_reek.wav","None","722.902223468","327","496493.854948","488776.474491","489543.613919","490310.274753","491076.616833","491843.911464","492610.534888","493359.580482","497260.402625","498010.036878","498776.423478","499542.875622","500309.968057","501076.890139","501843.230673","488027.336147","501086.977411"
"Mixed","both","tile","34","M_romp.wav","None","722.098691855","327","496493.854948","488776.474491","489543.613919","490310.274753","491076.616833","491843.911464","492610.534888","493359.580482","497260.402625","498010.036878","498776.423478","499542.875622","500309.968057","501076.890139","501843.230673","502610.127403","501852.707335"
"Mixed","both","tile","34","M_jaw.wav","None","719.298234675","327","496493.854948","503359.356643","489543.613919","490310.274753","491076.616833","491843.911464","492610.534888","493359.580482","497260.402625","498010.036878","498776.423478","499542.875622","500309.968057","501076.890139","501843.230673","502610.127403","502620.333396"
"Mixed","both","tile","34","F_tile.wav","None","736.066041049","327","496493.854948","503359.356643","504126.528534","490310.274753","491076.616833","491843.911464","492610.534888","493359.580482","497260.402625","498010.036878","498776.423478","499542.875622","500309.968057","501076.890139","501843.230673","502610.127403","503368.421183"
"Mixed","both","tile","34","M_priest.wav","space","392.82794809","327","496493.854948","503359.356643","504126.528534","504893.048696","491076.616833","491843.911464","492610.534888","493359.580482","497260.402625","498010.036878","498776.423478","499542.875622","500309.968057","501076.890139","501843.230673","502610.127403","504135.973662"
"Mixed","both","tile","34","F_tile.wav","None","730.532216839","327","496493.854948","503359.356643","504126.528534","504893.048696","505659.831651","491843.911464","492610.534888","493359.580482","497260.402625","498010.036878","498776.423478","499542.875622","500309.968057","501076.890139","501843.230673","502610.127403","504902.829272"
"Mixed","both","tile","34","F_bluff.wav","space","459.340504371","327","496493.854948","503359.356643","504126.528534","504893.048696","505659.831651","506426.386749","492610.534888","493359.580482","497260.402625","498010.036878","498776.423478","499542.875622","500309.968057","501076.890139","501843.230673","502610.127403","505669.355617"
"Mixed","both","tile","34","M_depth.wav","None","725.998864509","327","496493.854948","503359.356643","504126.528534","504893.048696","505659.831651","506426.386749","507193.441774","493359.580482","497260.402625","498010.036878","498776.423478","499542.875622","500309.968057","501076.890139","501843.230673","502610.127403","506435.929883"
"Mixed","both","tile","34","M_jaw.wav","None","723.591052927","327","496493.854948","503359.356643","504126.528534","504893.048696","505659.831651","506426.386749","507193.441774","507960.154857","497260.402625","498010.036878","498776.423478","499542.875622","500309.968057","501076.890139","501843.230673","502610.127403","507203.182467"
"Mixed","both","done","37","M_lash.wav","None","721.295469441","327","511076.820576","503359.356643","504126.528534","504893.048696","505659.831651","506426.386749","507193.441774","507960.154857","497260.402625","498010.036878","498776.423478","499542.875622","500309.968057","501076.890139","501843.230673","502610.127403","507969.903898"
"Mixed","both","done","37","M_jolt.wav","None","719.587926287","327","511076.820576","503359.356643","504126.528534","504893.048696","505659.831651","506426.386749","507193.441774","507960.154857","511825.814229","498010.036878","498776.423478","499542.875622","500309.968057","501076.890139","501843.230673","502610.127403","511086.87755"
"Mixed","both","done","37","M_cling.wav","None","736.517119687","327","511076.820576","503359.356643","504126.528534","504893.048696","505659.831651","506426.386749","507193.441774","507960.154857","511825.814229","512592.46857","498776.423478","499542.875622","500309.968057","501076.890139","501843.230673","502610.127403","511834.671316"
"Mixed","both","done","37","F_romp.wav","None","734.573679976","327","511076.820576","503359.356643","504126.528534","504893.048696","505659.831651","506426.386749","507193.441774","507960.154857","511825.814229","512592.46857","513359.566569","499542.875622","500309.968057","501076.890139","501843.230673","502610.127403","512601.250529"
"Mixed","both","done","37","M_jaw.wav","None","732.384142","327","511076.820576","503359.356643","504126.528534","504893.048696","505659.831651","506426.386749","507193.441774","507960.154857","511825.814229","512592.46857","513359.566569","514126.155676","500309.968057","501076.890139","501843.230673","502610.127403","513368.406343"
"Mixed","both","done","37","M_done.wav","None","729.771041777","327","511076.820576","503359.356643","504126.528534","504893.048696","505659.831651","506426.386749","507193.441774","507960.154857","511825.814229","512592.46857","513359.566569","514126.155676","514892.809089","501076.890139","501843.230673","502610.127403","514135.770846"
"Mixed","both","done","37","F_lash.wav","space","434.605400544","327","511076.820576","503359.356643","504126.528534","504893.048696","505659.831651","506426.386749","507193.441774","507960.154857","511825.814229","512592.46857","513359.566569","514126.155676","514892.809089","515659.456629","501843.230673","502610.127403","514901.850132"
"Mixed","both","done","37","M_done.wav","None","725.306634326","327","511076.820576","503359.356643","504126.528534","504893.048696","505659.831651","506426.386749","507193.441774","507960.154857","511825.814229","512592.46857","513359.566569","514126.155676","514892.809089","515659.456629","516426.269264","502610.127403","515668.954624"
"Mixed","both","done","37","F_cling.wav","space","540.29189283","327","511076.820576","503359.356643","504126.528534","504893.048696","505659.831651","506426.386749","507193.441774","507960.154857","511825.814229","512592.46857","513359.566569","514126.155676","514892.809089","515659.456629","516426.269264","517193.189492","516436.137954"
"Mixed","both","done","37","F_gnash.wav","None","719.229598995","327","511076.820576","517942.526323","504126.528534","504893.048696","505659.831651","506426.386749","507193.441774","507960.154857","511825.814229","512592.46857","513359.566569","514126.155676","514892.809089","515659.456629","516426.269264","517193.189492","517203.390847"
"Mixed","both","done","37","F_done.wav","None","735.938972328","327","511076.820576","517942.526323","518709.379769","504893.048696","505659.831651","506426.386749","507193.441774","507960.154857","511825.814229","512592.46857","513359.566569","514126.155676","514892.809089","515659.456629","516426.269264","517193.189492","517951.585916"
"Mixed","both","done","37","M_greet.wav","space","442.027632147","327","511076.820576","517942.526323","518709.379769","519475.999174","505659.831651","506426.386749","507193.441774","507960.154857","511825.814229","512592.46857","513359.566569","514126.155676","514892.809089","515659.456629","516426.269264","517193.189492","518718.315694"
"Mixed","both","done","37","F_done.wav","None","730.214081239","327","511076.820576","517942.526323","518709.379769","519475.999174","520242.788313","506426.386749","507193.441774","507960.154857","511825.814229","512592.46857","513359.566569","514126.155676","514892.809089","515659.456629","516426.269264","517193.189492","519485.536125"
"Mixed","both","done","37","F_dime.wav","space","476.475295145","327","511076.820576","517942.526323","518709.379769","519475.999174","520242.788313","521009.334445","507193.441774","507960.154857","511825.814229","512592.46857","513359.566569","514126.155676","514892.809089","515659.456629","516426.269264","517193.189492","520251.760411"
"Mixed","both","done","37","M_reek.wav","None","726.200752426","327","511076.820576","517942.526323","518709.379769","519475.999174","520242.788313","521009.334445","521775.80143","507960.154857","511825.814229","512592.46857","513359.566569","514126.155676","514892.809089","515659.456629","516426.269264","517193.189492","521018.253675"
"Mixed","both","done","37","F_reek.wav","None","724.683966953","327","511076.820576","517942.526323","518709.379769","519475.999174","520242.788313","521009.334445","521775.80143","522542.977958","511825.814229","512592.46857","513359.566569","514126.155676","514892.809089","515659.456629","516426.269264","517193.189492","521785.101865"
"Mixed","both","tile","32","M_dime.wav","None","721.849501133","327","525659.55309","517942.526323","518709.379769","519475.999174","520242.788313","521009.334445","521775.80143","522542.977958","511825.814229","512592.46857","513359.566569","514126.155676","514892.809089","515659.456629","516426.269264","517193.189492","522552.889622"
"Mixed","both","tile","32","F_depth.wav","None","720.076105092","327","525659.55309","517942.526323","518709.379769","519475.999174","520242.788313","521009.334445","521775.80143","522542.977958","526409.213622","512592.46857","513359.566569","514126.155676","514892.809089","515659.456629","516426.269264","517193.189492","525669.274615"
"Mixed","both","tile","32","M_tile.wav","None","735.605687369","327","525659.55309","517942.526323","518709.379769","519475.999174","520242.788313","521009.334445","521775.80143","522542.977958","526409.213622","527175.584454","513359.566569","514126.155676","514892.809089","515659.456629","516426.269264","517193.189492","526418.554559"
"Mixed","both","tile","32","M_knife.wav","space","462.809076998","327","525659.55309","517942.526323","518709.379769","519475.999174","520242.788313","521009.334445","521775.80143","522542.977958","526409.213622","527175.584454","527942.067516","514126.155676","514892.809089","515659.456629","516426.269264","517193.189492","527185.240744"
"Mixed","both","tile","32","M_reek.wav","None","731.309778057","327","525659.55309","517942.526323","518709.379769","519475.999174","520242.788313","521009.334445","521775.80143","522542.977958","526409.213622","527175.584454","527942.067516","528709.139854","514892.809089","515659.456629","516426.269264","517193.189492","527951.346"
"Mixed","both","tile","32","F_lash.wav","None","728.753564879","327","525659.55309","517942.526323","518709.379769","519475.999174","520242.788313","521009.334445","521775.80143","522542.977958","526409.213622","527175.584454","527942.067516","528709.139854","529475.712883","515659.456629","516426.269264","517193.189492","528718.537987"
"Mixed","both","tile","32","F_tile.wav","None","726.97460372","327","525659.55309","517942.526323","518709.379769","519475.999174","520242.788313","521009.334445","521775.80143","522542.977958","526409.213622","527175.584454","527942.067516","528709.139854","529475.712883","530242.444207","516426.269264","517193.189492","529485.23283"
"Mixed","both","tile","32","M_greet.wav","space","516.550459899","327","525659.55309","517942.526323","518709.379769","519475.999174","520242.788313","521009.334445","521775.80143","522542.977958","526409.213622","527175.584454","527942.067516","528709.139854","529475.712883","530242.444207","531009.006725","517193.189492","530251.433001"
"Mixed","both","tile","32","F_tile.wav","None","722.554407548","327","525659.55309","517942.526323","518709.379769","519475.999174","520242.788313","521009.334445","521775.80143","522542.977958","526409.213622","527175.584454","527942.067516","528709.139854","529475.712883","530242.444207","531009.006725","531775.782261","531018.639209"
"Mixed","both","tile","32","F_priest.wav","space","558.0777945","327","525659.55309","532525.416823","518709.379769","519475.999174","520242.788313","521009.334445","521775.80143","522542.977958","526409.213622","527175.584454","527942.067516","528709.139854","529475.712883","530242.444207","531009.006725","531775.782261","531785.876026"
"Mixed","both","tile","32","F_bluff.wav","None","735.000334214","327","525659.55309","532525.416823","533292.203797","519475.999174","520242.788313","521009.334445","521775.80143","522542.977958","526409.213622","527175.584454","527942.067516","528709.139854","529475.712883","530242.444207","531009.006725","531775.782261","532534.866278"
"Mixed","both","tile","32","M_dime.wav","None","733.285061549","327","525659.55309","532525.416823","533292.203797","534058.941924","520242.788313","521009.334445","521775.80143","522542.977958","526409.213622","527175.584454","527942.067516","528709.139854","529475.712883","530242.444207","531009.006725","531775.782261","533301.554628"
"Mixed","both","tile","32","F_romp.wav","None","731.256600935","327","525659.55309","532525.416823","533292.203797","534058.941924","534825.528866","521009.334445","521775.80143","522542.977958","526409.213622","527175.584454","527942.067516","528709.139854","529475.712883","530242.444207","531009.006725","531775.782261","534068.522467"
"Mixed","both","tile","32","M_jolt.wav","None","729.727139231","327","525659.55309","532525.416823","533292.203797","534058.941924","534825.528866","535592.292343","521775.80143","522542.977958","526409.213622","527175.584454","527942.067516","528709.139854","529475.712883","530242.444207","531009.006725","531775.782261","534835.054377"
"Mixed","both","tile","32","M_tile.wav","None","728.146664798","327","525659.55309","532525.416823","533292.203797","534058.941924","534825.528866","535592.292343","536358.879904","522542.977958","526409.213622","527175.584454","527942.067516","528709.139854","529475.712883","530242.444207","531009.006725","531775.782261","535601.665744"
"Mixed","both","tile","32","F_lash.wav","space","439.736068249","327","525659.55309","532525.416823","533292.203797","534058.941924","534825.528866","535592.292343","536358.879904","537125.862892","526409.213622","527175.584454","527942.067516","528709.139854","529475.712883","530242.444207","531009.006725","531775.782261","536368.077077"
"Mixed","both","ball","9","F_jolt.wav","None","723.044441547","327","540242.599101","532525.416823","533292.203797","534058.941924","534825.528866","535592.292343","536358.879904","537125.862892","526409.213622","527175.584454","527942.067516","528709.139854","529475.712883","530242.444207","531009.006725","531775.782261","537135.402007"
"Mixed","both","ball","9","M_park.wav","None","719.279066194","327","540242.599101","532525.416823","533292.203797","534058.941924","534825.528866","535592.292343","536358.879904","537125.862892","540991.560601","527175.584454","527942.067516","528709.139854","529475.712883","530242.444207","531009.006725","531775.782261","540252.422652"
"Mixed","both","ball","9","F_cling.wav","None","735.876829363","327","540242.599101","532525.416823","533292.203797","534058.941924","534825.528866","535592.292343","536358.879904","537125.862892","540991.560601","541758.410028","527942.067516","528709.139854","529475.712883","530242.444207","531009.006725","531775.782261","541000.398519"
"Mixed","both","ball","9","F_priest.wav","None","733.957814518","327","540242.599101","532525.416823","533292.203797","534058.941924","534825.528866","535592.292343","536358.879904","537125.862892","540991.560601","541758.410028","542525.343549","528709.139854","529475.712883","530242.444207","531009.006725","531775.782261","541767.277627"
"Mixed","both","ball","9","M_cling.wav","None","731.281643733","327","540242.599101","532525.416823","533292.203797","534058.941924","534825.528866","535592.292343","536358.879904","537125.862892","540991.560601","541758.410028","542525.343549","543292.042411","529475.712883","530242.444207","531009.006725","531775.782261","542534.853293"
"Mixed","both","ball","9","M_ball.wav","None","729.305741843","327","540242.599101","532525.416823","533292.203797","534058.941924","534825.528866","535592.292343","536358.879904","537125.862892","540991.560601","541758.410028","542525.343549","543292.042411","544058.008232","530242.444207","531009.006725","531775.782261","543301.695918"
"Mixed","both","ball","9","M_knife.wav","space","388.858212158","327","540242.599101","532525.416823","533292.203797","534058.941924","534825.528866","535592.292343","536358.879904","537125.862892","540991.560601","541758.410028","542525.343549","543292.042411","544058.008232","544825.206402","531009.006725","531775.782261","544066.746598"
"Mixed","both","ball","9","F_ball.wav","None","728.805196006","327","540242.599101","532525.416823","533292.203797","534058.941924","534825.528866","535592.292343","536358.879904","537125.862892","540991.560601","541758.410028","542525.343549","543292.042411","544058.008232","544825.206402","545592.017801","531775.782261","544834.597734"
"Mixed","both","ball","9","M_knife.wav","space","525.911184493","327","540242.599101","532525.416823","533292.203797","534058.941924","534825.528866","535592.292343","536358.879904","537125.862892","540991.560601","541758.410028","542525.343549","543292.042411","544058.008232","544825.206402","545592.017801","546358.577536","545601.69666"
"Mixed","both","ball","9","F_gnash.wav","None","724.759713747","327","540242.599101","547125.669352","533292.203797","534058.941924","534825.528866","535592.292343","536358.879904","537125.862892","540991.560601","541758.410028","542525.343549","543292.042411","544058.008232","544825.206402","545592.017801","546358.577536","546367.807791"
"Mixed","both","ball","9","F_greet.wav","None","721.410789527","327","540242.599101","547125.669352","547891.919609","534058.941924","534825.528866","535592.292343","536358.879904","537125.862892","540991.560601","541758.410028","542525.343549","543292.042411","544058.008232","544825.206402","545592.017801","546358.577536","547136.002724"
"Mixed","both","ball","9","M_ball.wav","None","724.921099842","327","540242.599101","547125.669352","547891.919609","548658.816957","534825.528866","535592.292343","536358.879904","537125.862892","540991.560601","541758.410028","542525.343549","543292.042411","544058.008232","544825.206402","545592.017801","546358.577536","547900.92015"
"Mixed","both","ball","9","M_greet.wav","space","434.92971966","327","540242.599101","547125.669352","547891.919609","548658.816957","549425.436671","535592.292343","536358.879904","537125.862892","540991.560601","541758.410028","542525.343549","543292.042411","544058.008232","544825.206402","545592.017801","546358.577536","548668.501073"
"Mixed","both","ball","9","M_park.wav","None","719.257733785","327","540242.599101","547125.669352","547891.919609","548658.816957","549425.436671","550174.863471","536358.879904","537125.862892","540991.560601","541758.410028","542525.343549","543292.042411","544058.008232","544825.206402","545592.017801","546358.577536","549435.032055"
"Mixed","both","ball","9","F_ball.wav","None","734.996933024","327","540242.599101","547125.669352","547891.919609","548658.816957","549425.436671","550174.863471","550941.458761","537125.862892","540991.560601","541758.410028","542525.343549","543292.042411","544058.008232","544825.206402","545592.017801","546358.577536","550184.329004"
"Mixed","both","ball","9","F_lash.wav","space","424.957148731","327","540242.599101","547125.669352","547891.919609","548658.816957","549425.436671","550174.863471","550941.458761","551708.272633","540991.560601","541758.410028","542525.343549","543292.042411","544058.008232","544825.206402","545592.017801","546358.577536","550950.417256"
"Mixed","both","tile","36","F_jaw.wav","None","730.533762369","327","554842.041298","547125.669352","547891.919609","548658.816957","549425.436671","550174.863471","550941.458761","551708.272633","540991.560601","541758.410028","542525.343549","543292.042411","544058.008232","544825.206402","545592.017801","546358.577536","551717.466097"
"Mixed","both","tile","36","F_greet.wav","None","720.532439183","327","554842.041298","547125.669352","547891.919609","548658.816957","549425.436671","550174.863471","550941.458761","551708.272633","555608.077609","541758.410028","542525.343549","543292.042411","544058.008232","544825.206402","545592.017801","546358.577536","554851.902567"
"Mixed","both","tile","36","M_greet.wav","None","720.244911965","327","554842.041298","547125.669352","547891.919609","548658.816957","549425.436671","550174.863471","550941.458761","551708.272633","555608.077609","556358.074827","542525.343549","543292.042411","544058.008232","544825.206402","545592.017801","546358.577536","555617.267672"
"Mixed","both","tile","36","M_tile.wav","None","735.245196149","327","554842.041298","547125.669352","547891.919609","548658.816957","549425.436671","550174.863471","550941.458761","551708.272633","555608.077609","556358.074827","557124.396502","543292.042411","544058.008232","544825.206402","545592.017801","546358.577536","556367.638366"
"Mixed","both","tile","36","M_gnash.wav","space","417.356217746","327","554842.041298","547125.669352","547891.919609","548658.816957","549425.436671","550174.863471","550941.458761","551708.272633","555608.077609","556358.074827","557124.396502","557891.72545","544058.008232","544825.206402","545592.017801","546358.577536","557133.830808"
"Mixed","both","tile","36","M_cling.wav","None","736.955212429","327","554842.041298","547125.669352","547891.919609","548658.816957","549425.436671","550174.863471","550941.458761","551708.272633","555608.077609","556358.074827","557124.396502","557891.72545","558658.233554","544825.206402","545592.017801","546358.577536","557895.394674"
"Mixed","both","tile","36","M_reek.wav","None","721.991719212","327","554842.041298","547125.669352","547891.919609","548658.816957","549425.436671","550174.863471","550941.458761","551708.272633","555608.077609","556358.074827","557124.396502","557891.72545","558658.233554","559424.398789","545592.017801","546358.577536","558675.746768"
"Mixed","both","tile","36","F_cling.wav","None","729.092105292","327","554842.041298","547125.669352","547891.919609","548658.816957","549425.436671","550174.863471","550941.458761","551708.272633","555608.077609","556358.074827","557124.396502","557891.72545","558658.233554","559424.398789","560191.58552","546358.577536","559433.763223"
"Mixed","both","tile","36","F_tile.wav","None","727.096725255","327","554842.041298","547125.669352","547891.919609","548658.816957","549425.436671","550174.863471","550941.458761","551708.272633","555608.077609","556358.074827","557124.396502","557891.72545","558658.233554","559424.398789","560191.58552","560958.148966","560201.038686"
"Mixed","both","tile","36","M_gnash.wav","space","375.082857441","327","554842.041298","561725.151122","547891.919609","548658.816957","549425.436671","550174.863471","550941.458761","551708.272633","555608.077609","556358.074827","557124.396502","557891.72545","558658.233554","559424.398789","560191.58552","560958.148966","560967.97128"
"Mixed","both","tile","36","F_priest.wav","None","722.172583453","327","554842.041298","561725.151122","562491.828033","548658.816957","549425.436671","550174.863471","550941.458761","551708.272633","555608.077609","556358.074827","557124.396502","557891.72545","558658.233554","559424.398789","560191.58552","560958.148966","561734.732593"
"Mixed","both","tile","36","F_gnash.wav","None","720.024473965","327","554842.041298","561725.151122","562491.828033","563258.393642","549425.436671","550174.863471","550941.458761","551708.272633","555608.077609","556358.074827","557124.396502","557891.72545","558658.233554","559424.398789","560191.58552","560958.148966","562501.940348"
"Mixed","both","tile","36","M_tile.wav","None","718.947945628","327","554842.041298","561725.151122","562491.828033","563258.393642","564007.902681","550174.863471","550941.458761","551708.272633","555608.077609","556358.074827","557124.396502","557891.72545","558658.233554","559424.398789","560191.58552","560958.148966","563268.194005"
"Mixed","both","tile","36","F_depth.wav","space","420.198103413","327","554842.041298","561725.151122","562491.828033","563258.393642","564007.902681","564774.599688","550941.458761","551708.272633","555608.077609","556358.074827","557124.396502","557891.72545","558658.233554","559424.398789","560191.58552","560958.148966","564018.805233"
"Mixed","both","tile","36","F_tile.wav","None","731.540109497","327","554842.041298","561725.151122","562491.828033","563258.393642","564007.902681","564774.599688","565541.423763","551708.272633","555608.077609","556358.074827","557124.396502","557891.72545","558658.233554","559424.398789","560191.58552","560958.148966","564784.453537"
"Mixed","both","tile","36","M_jolt.wav","space","655.920038931","327","554842.041298","561725.151122","562491.828033","563258.393642","564007.902681","564774.599688","565541.423763","566307.978551","555608.077609","556358.074827","557124.396502","557891.72545","558658.233554","559424.398789","560191.58552","560958.148966","565550.982355"
"Mixed","both","done","38","F_romp.wav","None","727.104454767","327","569441.763911","561725.151122","562491.828033","563258.393642","564007.902681","564774.599688","565541.423763","566307.978551","555608.077609","556358.074827","557124.396502","557891.72545","558658.233554","559424.398789","560191.58552","560958.148966","566317.360917"
"Mixed","both","done","38","F_done.wav","None","720.300871413","327","569441.763911","561725.151122","562491.828033","563258.393642","564007.902681","564774.599688","565541.423763","566307.978551","570208.225021","556358.074827","557124.396502","557891.72545","558658.233554","559424.398789","560191.58552","560958.148966","569451.451737"
"Mixed","both","done","38","F_jolt.wav","None","718.635993544","327","569441.763911","561725.151122","562491.828033","563258.393642","564007.902681","564774.599688","565541.423763","566307.978551","570208.225021","570957.650275","557124.396502","557891.72545","558658.233554","559424.398789","560191.58552","560958.148966","570218.310129"
"Mixed","both","done","38","F_done.wav","None","733.655446675","327","569441.763911","561725.151122","562491.828033","563258.393642","564007.902681","564774.599688","565541.423763","566307.978551","570208.225021","570957.650275","571724.364286","557891.72545","558658.233554","559424.398789","560191.58552","560958.148966","570968.346302"
"Mixed","both","done","38","F_jolt.wav","space","400.68363538","327","569441.763911","561725.151122","562491.828033","563258.393642","564007.902681","564774.599688","565541.423763","566307.978551","570208.225021","570957.650275","571724.364286","572491.337999","558658.233554","559424.398789","560191.58552","560958.148966","571734.048401"
"Mixed","both","done","38","M_dime.wav","None","729.526178911","327","569441.763911","561725.151122","562491.828033","563258.393642","564007.902681","564774.599688","565541.423763","566307.978551","570208.225021","570957.650275","571724.364286","572491.337999","573257.727382","559424.398789","560191.58552","560958.148966","572501.044375"
"Mixed","both","done","38","M_done.wav","None","728.81354345","327","569441.763911","561725.151122","562491.828033","563258.393642","564007.902681","564774.599688","565541.423763","566307.978551","570208.225021","570957.650275","571724.364286","572491.337999","573257.727382","574024.001135","560191.58552","560958.148966","573266.900131"
"Mixed","both","done","38","M_jaw.wav","space","516.914971173","327","569441.763911","561725.151122","562491.828033","563258.393642","564007.902681","564774.599688","565541.423763","566307.978551","570208.225021","570957.650275","571724.364286","572491.337999","573257.727382","574024.001135","574790.698451","560958.148966","574033.745539"
"Mixed","both","done","38","M_done.wav","None","724.511141423","327","569441.763911","561725.151122","562491.828033","563258.393642","564007.902681","564774.599688","565541.423763","566307.978551","570208.225021","570957.650275","571724.364286","572491.337999","573257.727382","574024.001135","574790.698451","575558.030801","574800.390296"
"Mixed","both","done","38","F_jolt.wav","space","638.494011015","327","569441.763911","576324.349384","562491.828033","563258.393642","564007.902681","564774.599688","565541.423763","566307.978551","570208.225021","570957.650275","571724.364286","572491.337999","573257.727382","574024.001135","574790.698451","575558.030801","575568.157956"
"Mixed","both","done","38","M_jolt.wav","None","719.509397633","327","569441.763911","576324.349384","577073.987656","563258.393642","564007.902681","564774.599688","565541.423763","566307.978551","570208.225021","570957.650275","571724.364286","572491.337999","573257.727382","574024.001135","574790.698451","575558.030801","576334.256411"
"Mixed","both","done","38","M_reek.wav","None","735.30208366","327","569441.763911","576324.349384","577073.987656","577841.155218","564007.902681","564774.599688","565541.423763","566307.978551","570208.225021","570957.650275","571724.364286","572491.337999","573257.727382","574024.001135","574790.698451","575558.030801","577083.490907"
"Mixed","both","done","38","M_priest.wav","None","732.659920584","327","569441.763911","576324.349384","577073.987656","577841.155218","578607.599942","564774.599688","565541.423763","566307.978551","570208.225021","570957.650275","571724.364286","572491.337999","573257.727382","574024.001135","574790.698451","575558.030801","577851.088215"
"Mixed","both","done","38","M_bluff.wav","None","732.542127371","327","569441.763911","576324.349384","577073.987656","577841.155218","578607.599942","579373.773216","565541.423763","566307.978551","570208.225021","570957.650275","571724.364286","572491.337999","573257.727382","574024.001135","574790.698451","575558.030801","578616.847201"
"Mixed","both","done","38","F_knife.wav","None","731.395727023","327","569441.763911","576324.349384","577073.987656","577841.155218","578607.599942","579373.773216","580140.798251","566307.978551","570208.225021","570957.650275","571724.364286","572491.337999","573257.727382","574024.001135","574790.698451","575558.030801","579383.146925"
"Mixed","both","done","38","F_jaw.wav","None","729.060878977","327","569441.763911","576324.349384","577073.987656","577841.155218","578607.599942","579373.773216","580140.798251","580907.033667","570208.225021","570957.650275","571724.364286","572491.337999","573257.727382","574024.001135","574790.698451","575558.030801","580150.606034"
"Mixed","both","tile","27","F_romp.wav","None","728.698223364","327","584041.126651","576324.349384","577073.987656","577841.155218","578607.599942","579373.773216","580140.798251","580907.033667","570208.225021","570957.650275","571724.364286","572491.337999","573257.727382","574024.001135","574790.698451","575558.030801","580916.066054"
"Mixed","both","tile","27","M_romp.wav","None","720.516981091","327","584041.126651","576324.349384","577073.987656","577841.155218","578607.599942","579373.773216","580140.798251","580907.033667","584807.632591","570957.650275","571724.364286","572491.337999","573257.727382","574024.001135","574790.698451","575558.030801","584050.986374"
"Mixed","both","tile","27","M_cad.wav","None","719.363160431","327","584041.126651","576324.349384","577073.987656","577841.155218","578607.599942","579373.773216","580140.798251","580907.033667","584807.632591","585556.797524","571724.364286","572491.337999","573257.727382","574024.001135","574790.698451","575558.030801","584817.502208"
"Mixed","both","tile","27","F_cling.wav","None","736.018429045","327","584041.126651","576324.349384","577073.987656","577841.155218","578607.599942","579373.773216","580140.798251","580907.033667","584807.632591","585556.797524","586323.869244","572491.337999","573257.727382","574024.001135","574790.698451","575558.030801","585566.190092"
"Mixed","both","tile","27","M_lash.wav","None","734.598104376","327","584041.126651","576324.349384","577073.987656","577841.155218","578607.599942","579373.773216","580140.798251","580907.033667","584807.632591","585556.797524","586323.869244","587090.479064","573257.727382","574024.001135","574790.698451","575558.030801","586333.024988"
"Mixed","both","tile","27","M_tile.wav","None","733.482311945","327","584041.126651","576324.349384","577073.987656","577841.155218","578607.599942","579373.773216","580140.798251","580907.033667","584807.632591","585556.797524","586323.869244","587090.479064","587856.849897","574024.001135","574790.698451","575558.030801","587100.073521"
"Mixed","both","tile","27","M_gnash.wav","space","364.203493111","327","584041.126651","576324.349384","577073.987656","577841.155218","578607.599942","579373.773216","580140.798251","580907.033667","584807.632591","585556.797524","586323.869244","587090.479064","587856.849897","588623.891628","574790.698451","575558.030801","587866.07706"
"Mixed","both","tile","27","F_tile.wav","None","728.752018884","327","584041.126651","576324.349384","577073.987656","577841.155218","578607.599942","579373.773216","580140.798251","580907.033667","584807.632591","585556.797524","586323.869244","587090.479064","587856.849897","588623.891628","589390.295541","575558.030801","588633.681479"
"Mixed","both","tile","27","F_jaw.wav","space","470.110422932","327","584041.126651","576324.349384","577073.987656","577841.155218","578607.599942","579373.773216","580140.798251","580907.033667","584807.632591","585556.797524","586323.869244","587090.479064","587856.849897","588623.891628","589390.295541","590157.286877","589400.130532"
"Mixed","both","tile","27","F_bluff.wav","None","724.565246142","327","584041.126651","590923.904737","577073.987656","577841.155218","578607.599942","579373.773216","580140.798251","580907.033667","584807.632591","585556.797524","586323.869244","587090.479064","587856.849897","588623.891628","589390.295541","590157.286877","590166.865257"
"Mixed","both","tile","27","M_tile.wav","None","723.028364591","327","584041.126651","590923.904737","591690.340495","577841.155218","578607.599942","579373.773216","580140.798251","580907.033667","584807.632591","585556.797524","586323.869244","587090.479064","587856.849897","588623.891628","589390.295541","590157.286877","590934.054461"
"Mixed","both","tile","27","M_cling.wav","space","482.122584712","327","584041.126651","590923.904737","591690.340495","592440.57299","578607.599942","579373.773216","580140.798251","580907.033667","584807.632591","585556.797524","586323.869244","587090.479064","587856.849897","588623.891628","589390.295541","590157.286877","591700.044088"
"Mixed","both","tile","27","M_knife.wav","None","735.560548957","327","584041.126651","590923.904737","591690.340495","592440.57299","593207.032864","579373.773216","580140.798251","580907.033667","584807.632591","585556.797524","586323.869244","587090.479064","587856.849897","588623.891628","589390.295541","590157.286877","592450.182905"
"Mixed","both","tile","27","F_knife.wav","None","734.602123499","327","584041.126651","590923.904737","591690.340495","592440.57299","593207.032864","593973.261478","580140.798251","580907.033667","584807.632591","585556.797524","586323.869244","587090.479064","587856.849897","588623.891628","589390.295541","590157.286877","593216.55281"
"Mixed","both","tile","27","F_tile.wav","None","733.945447486","327","584041.126651","590923.904737","591690.340495","592440.57299","593207.032864","593973.261478","594740.364424","580907.033667","584807.632591","585556.797524","586323.869244","587090.479064","587856.849897","588623.891628","589390.295541","590157.286877","593982.638898"
"Mixed","both","tile","27","F_greet.wav","space","471.79168649","327","584041.126651","590923.904737","591690.340495","592440.57299","593207.032864","593973.261478","594740.364424","595507.126666","584807.632591","585556.797524","586323.869244","587090.479064","587856.849897","588623.891628","589390.295541","590157.286877","594750.285055"
"Mixed","both","cave","22","F_knife.wav","None","728.536836803","327","598640.774754","590923.904737","591690.340495","592440.57299","593207.032864","593973.261478","594740.364424","595507.126666","584807.632591","585556.797524","586323.869244","587090.479064","587856.849897","588623.891628","589390.295541","590157.286877","595517.040494"
"Mixed","both","cave","22","F_cave.wav","None","719.313693233","327","598640.774754","590923.904737","591690.340495","592440.57299","593207.032864","593973.261478","594740.364424","595507.126666","599407.391068","585556.797524","586323.869244","587090.479064","587856.849897","588623.891628","589390.295541","590157.286877","598650.756909"
"Mixed","both","cave","22","F_greet.wav","space","404.709949624","327","598640.774754","590923.904737","591690.340495","592440.57299","593207.032864","593973.261478","594740.364424","595507.126666","599407.391068","600156.955757","586323.869244","587090.479064","587856.849897","588623.891628","589390.295541","590157.286877","599417.19143"
"Mixed","both","cave","22","M_reek.wav","None","732.94064682","327","598640.774754","590923.904737","591690.340495","592440.57299","593207.032864","593973.261478","594740.364424","595507.126666","599407.391068","600156.955757","600923.476537","587090.479064","587856.849897","588623.891628","589390.295541","590157.286877","600166.190958"
"Mixed","both","cave","22","M_gnash.wav","None","730.867047329","327","598640.774754","590923.904737","591690.340495","592440.57299","593207.032864","593973.261478","594740.364424","595507.126666","599407.391068","600156.955757","600923.476537","601689.811815","587856.849897","588623.891628","589390.295541","590157.286877","600933.039148"
"Mixed","both","cave","22","M_cad.wav","None","730.649082921","327","598640.774754","590923.904737","591690.340495","592440.57299","593207.032864","593973.261478","594740.364424","595507.126666","599407.391068","600156.955757","600923.476537","601689.811815","602456.436476","588623.891628","589390.295541","590157.286877","601699.015481"
"Mixed","both","cave","22","F_lash.wav","None","728.814471047","327","598640.774754","590923.904737","591690.340495","592440.57299","593207.032864","593973.261478","594740.364424","595507.126666","599407.391068","600156.955757","600923.476537","601689.811815","602456.436476","603223.443889","589390.295541","590157.286877","602465.931998"
