"Condition","Talker","Target","Trial","current_stimulus","response_response","response_time_response","subject_nr","time_Audio1","time_Audio10","time_Audio11","time_Audio12","time_Audio13","time_Audio14","time_Audio15","time_Audio16","time_Audio2","time_Audio3","time_Audio4","time_Audio5","time_Audio6","time_Audio7","time_Audio8","time_Audio9","time_response"
"Mixed","both","tile","36","M_knife.wav","NA","NA","315","204820.66903","NA","NA","NA","NA","NA","NA","NA","NA","NA","NA","NA","NA","NA","NA","NA","NA"
"Mixed","both","tile","36","F_tile.wav","None","660.40145047","315","204820.66903","NA","NA","NA","NA","NA","NA","NA","205587.466517","NA","NA","NA","NA","NA","NA","NA","204895.736615"
"Mixed","both","tile","36","F_greet.wav","None","729.884815868","315","204820.66903","NA","NA","NA","NA","NA","NA","NA","205587.466517","206354.015431","NA","NA","NA","NA","NA","NA","205593.095875"
"Mixed","both","tile","36","M_tile.wav","None","725.600654259","315","204820.66903","NA","NA","NA","NA","NA","NA","NA","205587.466517","206354.015431","207120.475614","NA","NA","NA","NA","NA","206363.863098"
"Mixed","both","tile","36","M_romp.wav","None","726.229195949","315","204820.66903","NA","NA","NA","NA","NA","NA","NA","205587.466517","206354.015431","207120.475614","207887.269082","NA","NA","NA","NA","207130.060177"
"Mixed","both","tile","36","M_lash.wav","None","726.610710844","315","204820.66903","NA","NA","NA","NA","NA","NA","NA","205587.466517","206354.015431","207120.475614","207887.269082","208653.988658","NA","NA","NA","207896.630424"
"Mixed","both","tile","36","M_tile.wav","None","727.033345494","315","204820.66903","NA","NA","NA","NA","NA","NA","NA","205587.466517","206354.015431","207120.475614","207887.269082","208653.988658","209421.076145","NA","NA","208663.212729"
"Mixed","both","tile","36","F_jaw.wav","space","682.43472185","315","204820.66903","NA","NA","NA","NA","NA","NA","NA","205587.466517","206354.015431","207120.475614","207887.269082","208653.988658","209421.076145","210188.006265","NA","209431.029238"
"Mixed","both","tile","36","M_priest.wav","None","722.486699466","315","204820.66903","NA","NA","NA","NA","NA","NA","NA","205587.466517","206354.015431","207120.475614","207887.269082","208653.988658","209421.076145","210188.006265","210954.265797","210198.009443"
"Mixed","both","tile","36","F_tile.wav","None","723.164708354","315","204820.66903","211721.28063","NA","NA","NA","NA","NA","NA","205587.466517","206354.015431","207120.475614","207887.269082","208653.988658","209421.076145","210188.006265","210954.265797","210963.98794"
"Mixed","both","tile","36","F_park.wav","space","422.294272576","315","204820.66903","211721.28063","212488.186635","NA","NA","NA","NA","NA","205587.466517","206354.015431","207120.475614","207887.269082","208653.988658","209421.076145","210188.006265","210954.265797","211731.125204"
"Mixed","both","tile","36","F_depth.wav","None","719.610495958","315","204820.66903","211721.28063","212488.186635","213254.568288","NA","NA","NA","NA","205587.466517","206354.015431","207120.475614","207887.269082","208653.988658","209421.076145","210188.006265","210954.265797","212497.928564"
"Mixed","both","tile","36","M_greet.wav","None","720.304891001","315","204820.66903","211721.28063","212488.186635","213254.568288","214021.209953","NA","NA","NA","205587.466517","206354.015431","207120.475614","207887.269082","208653.988658","209421.076145","210188.006265","210954.265797","213264.325986"
"Mixed","both","tile","36","M_jaw.wav","None","720.118461177","315","204820.66903","211721.28063","212488.186635","213254.568288","214021.209953","214787.602737","NA","NA","205587.466517","206354.015431","207120.475614","207887.269082","208653.988658","209421.076145","210188.006265","210954.265797","214031.190253"
"Mixed","both","tile","36","F_lash.wav","None","721.120479517","315","204820.66903","211721.28063","212488.186635","213254.568288","214021.209953","214787.602737","215554.31242","NA","205587.466517","206354.015431","207120.475614","207887.269082","208653.988658","209421.076145","210188.006265","210954.265797","214796.787544"
"Mixed","both","tile","36","F_depth.wav","None","720.12093477","315","204820.66903","211721.28063","212488.186635","213254.568288","214021.209953","214787.602737","215554.31242","216303.992429","205587.466517","206354.015431","207120.475614","207887.269082","208653.988658","209421.076145","210188.006265","210954.265797","215564.307868"
"Mixed","both","ball","5","M_park.wav","None","734.248124529","315","219504.248607","211721.28063","212488.186635","213254.568288","214021.209953","214787.602737","215554.31242","216303.992429","205587.466517","206354.015431","207120.475614","207887.269082","208653.988658","209421.076145","210188.006265","210954.265797","216313.697568"
"Mixed","both","ball","5","M_ball.wav","None","723.367214203","315","219504.248607","211721.28063","212488.186635","213254.568288","214021.209953","214787.602737","215554.31242","216303.992429","220271.340423","206354.015431","207120.475614","207887.269082","208653.988658","209421.076145","210188.006265","210954.265797","219514.227979"
"Mixed","both","ball","5","F_park.wav","space","424.045099411","315","219504.248607","211721.28063","212488.186635","213254.568288","214021.209953","214787.602737","215554.31242","216303.992429","220271.340423","221037.457427","207120.475614","207887.269082","208653.988658","209421.076145","210188.006265","210954.265797","220281.119144"
"Mixed","both","ball","5","F_priest.wav","None","721.163454","315","219504.248607","211721.28063","212488.186635","213254.568288","214021.209953","214787.602737","215554.31242","216303.992429","220271.340423","221037.457427","221804.70692","207887.269082","208653.988658","209421.076145","210188.006265","210954.265797","221046.571744"
"Mixed","both","ball","5","F_romp.wav","None","720.632610377","315","219504.248607","211721.28063","212488.186635","213254.568288","214021.209953","214787.602737","215554.31242","216303.992429","220271.340423","221037.457427","221804.70692","222570.576898","208653.988658","209421.076145","210188.006265","210954.265797","221814.05404"
"Mixed","both","ball","5","M_cling.wav","None","721.530129202","315","219504.248607","211721.28063","212488.186635","213254.568288","214021.209953","214787.602737","215554.31242","216303.992429","220271.340423","221037.457427","221804.70692","222570.576898","223337.59946","209421.076145","210188.006265","210954.265797","222579.768816"
"Mixed","both","ball","5","F_ball.wav","None","720.772973262","315","219504.248607","211721.28063","212488.186635","213254.568288","214021.209953","214787.602737","215554.31242","216303.992429","220271.340423","221037.457427","221804.70692","222570.576898","223337.59946","224104.290901","210188.006265","210954.265797","223347.564919"
"Mixed","both","ball","5","M_knife.wav","space","382.964205462","315","219504.248607","211721.28063","212488.186635","213254.568288","214021.209953","214787.602737","215554.31242","216303.992429","220271.340423","221037.457427","221804.70692","222570.576898","223337.59946","224104.290901","224870.356275","210954.265797","224114.036232"
"Mixed","both","ball","5","M_park.wav","None","721.193443518","315","219504.248607","211721.28063","212488.186635","213254.568288","214021.209953","214787.602737","215554.31242","216303.992429","220271.340423","221037.457427","221804.70692","222570.576898","223337.59946","224104.290901","224870.356275","225620.433258","224879.166368"
"Mixed","both","ball","5","F_greet.wav","None","734.18258084","315","219504.248607","226386.618898","212488.186635","213254.568288","214021.209953","214787.602737","215554.31242","216303.992429","220271.340423","221037.457427","221804.70692","222570.576898","223337.59946","224104.290901","224870.356275","225620.433258","225629.46719"
"Mixed","both","ball","5","F_park.wav","None","730.645372998","315","219504.248607","226386.618898","227153.812122","213254.568288","214021.209953","214787.602737","215554.31242","216303.992429","220271.340423","221037.457427","221804.70692","222570.576898","223337.59946","224104.290901","224870.356275","225620.433258","226396.40844"
"Mixed","both","ball","5","F_ball.wav","None","727.183911484","315","219504.248607","226386.618898","227153.812122","227920.4711","214021.209953","214787.602737","215554.31242","216303.992429","220271.340423","221037.457427","221804.70692","222570.576898","223337.59946","224104.290901","224870.356275","225620.433258","227163.432548"
"Mixed","both","ball","5","M_bluff.wav","space","447.330506984","315","219504.248607","226386.618898","227153.812122","227920.4711","228687.541584","214787.602737","215554.31242","216303.992429","220271.340423","221037.457427","221804.70692","222570.576898","223337.59946","224104.290901","224870.356275","225620.433258","227929.600566"
"Mixed","both","ball","5","F_lash.wav","None","724.602655508","315","219504.248607","226386.618898","227153.812122","227920.4711","228687.541584","229453.949517","215554.31242","216303.992429","220271.340423","221037.457427","221804.70692","222570.576898","223337.59946","224104.290901","224870.356275","225620.433258","228697.017628"
"Mixed","both","ball","5","M_ball.wav","None","721.262388397","315","219504.248607","226386.618898","227153.812122","227920.4711","228687.541584","229453.949517","230220.599839","216303.992429","220271.340423","221037.457427","221804.70692","222570.576898","223337.59946","224104.290901","224870.356275","225620.433258","229464.010509"
"Mixed","both","ball","5","M_bluff.wav","None","718.303945381","315","219504.248607","226386.618898","227153.812122","227920.4711","228687.541584","229453.949517","230220.599839","230970.293761","220271.340423","221037.457427","221804.70692","222570.576898","223337.59946","224104.290901","224870.356275","225620.433258","230230.936611"
"Mixed","both","done","41","M_cling.wav","space","21.2108809501","315","234104.211136","226386.618898","227153.812122","227920.4711","228687.541584","229453.949517","230220.599839","230970.293761","220271.340423","221037.457427","221804.70692","222570.576898","223337.59946","224104.290901","224870.356275","225620.433258","230979.622949"
"Mixed","both","done","41","F_depth.wav","None","719.669856597","315","234104.211136","226386.618898","227153.812122","227920.4711","228687.541584","229453.949517","230220.599839","230970.293761","234853.29383","221037.457427","221804.70692","222570.576898","223337.59946","224104.290901","224870.356275","225620.433258","234113.695218"
"Mixed","both","done","41","F_done.wav","None","735.0915391","315","234104.211136","226386.618898","227153.812122","227920.4711","228687.541584","229453.949517","230220.599839","230970.293761","234853.29383","235619.983107","221804.70692","222570.576898","223337.59946","224104.290901","224870.356275","225620.433258","234862.407837"
"Mixed","both","done","41","M_priest.wav","space","440.469108988","315","234104.211136","226386.618898","227153.812122","227920.4711","228687.541584","229453.949517","230220.599839","230970.293761","234853.29383","235619.983107","236386.519655","222570.576898","223337.59946","224104.290901","224870.356275","225620.433258","235624.253356"
"Mixed","both","done","41","F_cling.wav","None","731.679853983","315","234104.211136","226386.618898","227153.812122","227920.4711","228687.541584","229453.949517","230220.599839","230970.293761","234853.29383","235619.983107","236386.519655","237153.1202","223337.59946","224104.290901","224870.356275","225620.433258","236396.096179"
"Mixed","both","done","41","M_priest.wav","None","733.235594351","315","234104.211136","226386.618898","227153.812122","227920.4711","228687.541584","229453.949517","230220.599839","230970.293761","234853.29383","235619.983107","236386.519655","237153.1202","237920.134105","224104.290901","224870.356275","225620.433258","237162.253685"
"Mixed","both","done","41","F_jaw.wav","None","729.764549062","315","234104.211136","226386.618898","227153.812122","227920.4711","228687.541584","229453.949517","230220.599839","230970.293761","234853.29383","235619.983107","236386.519655","237153.1202","237920.134105","238686.764332","224870.356275","225620.433258","237929.190298"
"Mixed","both","done","41","F_cling.wav","None","726.69387795","315","234104.211136","226386.618898","227153.812122","227920.4711","228687.541584","229453.949517","230220.599839","230970.293761","234853.29383","235619.983107","236386.519655","237153.1202","237920.134105","238686.764332","239453.875625","225620.433258","238696.135567"
"Mixed","both","done","41","M_done.wav","None","722.319129854","315","234104.211136","226386.618898","227153.812122","227920.4711","228687.541584","229453.949517","230220.599839","230970.293761","234853.29383","235619.983107","236386.519655","237153.1202","237920.134105","238686.764332","239453.875625","240220.359614","239464.000616"
"Mixed","both","done","41","M_jaw.wav","space","466.330207884","315","234104.211136","240987.025085","227153.812122","227920.4711","228687.541584","229453.949517","230220.599839","230970.293761","234853.29383","235619.983107","236386.519655","237153.1202","237920.134105","238686.764332","239453.875625","240220.359614","240230.208825"
"Mixed","both","done","41","M_gnash.wav","None","720.439069904","315","234104.211136","240987.025085","241753.74497","227920.4711","228687.541584","229453.949517","230220.599839","230970.293761","234853.29383","235619.983107","236386.519655","237153.1202","237920.134105","238686.764332","239453.875625","240220.359614","240996.667772"
"Mixed","both","done","41","F_cling.wav","None","720.447417814","315","234104.211136","240987.025085","241753.74497","242503.044083","228687.541584","229453.949517","230220.599839","230970.293761","234853.29383","235619.983107","236386.519655","237153.1202","237920.134105","238686.764332","239453.875625","240220.359614","241763.443616"
"Mixed","both","done","41","M_done.wav","None","734.840802383","315","234104.211136","240987.025085","241753.74497","242503.044083","243269.957508","229453.949517","230220.599839","230970.293761","234853.29383","235619.983107","236386.519655","237153.1202","237920.134105","238686.764332","239453.875625","240220.359614","242512.671311"
"Mixed","both","done","41","M_greet.wav","space","473.139974754","315","234104.211136","240987.025085","241753.74497","242503.044083","243269.957508","244036.226933","230220.599839","230970.293761","234853.29383","235619.983107","236386.519655","237153.1202","237920.134105","238686.764332","239453.875625","240220.359614","243279.345439"
"Mixed","both","done","41","F_done.wav","None","728.897019289","315","234104.211136","240987.025085","241753.74497","242503.044083","243269.957508","244036.226933","244803.1991","230970.293761","234853.29383","235619.983107","236386.519655","237153.1202","237920.134105","238686.764332","239453.875625","240220.359614","244045.257464"
"Mixed","both","done","41","F_priest.wav","None","725.493372884","315","234104.211136","240987.025085","241753.74497","242503.044083","243269.957508","244036.226933","244803.1991","245570.286279","234853.29383","235619.983107","236386.519655","237153.1202","237920.134105","238686.764332","239453.875625","240220.359614","244812.631552"
"Mixed","both","cave","17","F_depth.wav","space","331.980922725","315","248686.99559","240987.025085","241753.74497","242503.044083","243269.957508","244036.226933","244803.1991","245570.286279","234853.29383","235619.983107","236386.519655","237153.1202","237920.134105","238686.764332","239453.875625","240220.359614","245580.426728"
"Mixed","both","cave","17","F_cave.wav","None","719.38820323","315","248686.99559","240987.025085","241753.74497","242503.044083","243269.957508","244036.226933","244803.1991","245570.286279","249453.319738","235619.983107","236386.519655","237153.1202","237920.134105","238686.764332","239453.875625","240220.359614","248697.005879"
"Mixed","both","cave","17","M_cad.wav","space","465.092293452","315","248686.99559","240987.025085","241753.74497","242503.044083","243269.957508","244036.226933","244803.1991","245570.286279","249453.319738","250220.194826","236386.519655","237153.1202","237920.134105","238686.764332","239453.875625","240220.359614","249463.17637"
"Mixed","both","cave","17","M_cave.wav","None","719.718705397","315","248686.99559","240987.025085","241753.74497","242503.044083","243269.957508","244036.226933","244803.1991","245570.286279","249453.319738","250220.194826","250986.753016","237153.1202","237920.134105","238686.764332","239453.875625","240220.359614","250230.112365"
"Mixed","both","cave","17","F_lash.wav","None","720.159580931","315","248686.99559","240987.025085","241753.74497","242503.044083","243269.957508","244036.226933","244803.1991","245570.286279","249453.319738","250220.194826","250986.753016","251736.186308","237920.134105","238686.764332","239453.875625","240220.359614","250996.662825"
"Mixed","both","cave","17","F_jaw.wav","space","0.0547231175005","315","248686.99559","240987.025085","241753.74497","242503.044083","243269.957508","244036.226933","244803.1991","245570.286279","249453.319738","250220.194826","250986.753016","251736.186308","252503.043155","238686.764332","239453.875625","240220.359614","251745.515497"
"Mixed","both","cave","17","M_priest.wav","None","731.006791815","315","248686.99559","240987.025085","241753.74497","242503.044083","243269.957508","244036.226933","244803.1991","245570.286279","249453.319738","250220.194826","250986.753016","251736.186308","252503.043155","253269.673381","239453.875625","240220.359614","252512.40728"
"Mixed","both","cave","17","M_cling.wav","None","728.137389757","315","248686.99559","240987.025085","241753.74497","242503.044083","243269.957508","244036.226933","244803.1991","245570.286279","249453.319738","250220.194826","250986.753016","251736.186308","252503.043155","253269.673381","254035.914362","240220.359614","253278.855714"
"Mixed","both","cave","17","M_cave.wav","None","726.114803459","315","248686.99559","240987.025085","241753.74497","242503.044083","243269.957508","244036.226933","244803.1991","245570.286279","249453.319738","250220.194826","250986.753016","251736.186308","252503.043155","253269.673381","254035.914362","254803.178386","254044.93129"
"Mixed","both","cave","17","M_cad.wav","space","650.770821609","315","248686.99559","255553.16942","241753.74497","242503.044083","243269.957508","244036.226933","244803.1991","245570.286279","249453.319738","250220.194826","250986.753016","251736.186308","252503.043155","253269.673381","254035.914362","254803.178386","254813.292247"
"Mixed","both","cave","17","F_cave.wav","None","734.991368372","315","248686.99559","255553.16942","256319.64908","242503.044083","243269.957508","244036.226933","244803.1991","245570.286279","249453.319738","250220.194826","250986.753016","251736.186308","252503.043155","253269.673381","254035.914362","254803.178386","255562.834676"
"Mixed","both","cave","17","M_depth.wav","None","732.178234961","315","248686.99559","255553.16942","256319.64908","257085.789582","243269.957508","244036.226933","244803.1991","245570.286279","249453.319738","250220.194826","250986.753016","251736.186308","252503.043155","253269.673381","254035.914362","254803.178386","256329.164389"
"Mixed","both","cave","17","M_depth.wav","None","734.926133417","315","248686.99559","255553.16942","256319.64908","257085.789582","257852.434648","244036.226933","244803.1991","245570.286279","249453.319738","250220.194826","250986.753016","251736.186308","252503.043155","253269.673381","254035.914362","254803.178386","257094.582052"
"Mixed","both","cave","17","F_park.wav","None","732.124439441","315","248686.99559","255553.16942","256319.64908","257085.789582","257852.434648","258619.516261","244803.1991","245570.286279","249453.319738","250220.194826","250986.753016","251736.186308","252503.043155","253269.673381","254035.914362","254803.178386","257861.173941"
"Mixed","both","cave","17","F_romp.wav","None","728.145428468","315","248686.99559","255553.16942","256319.64908","257085.789582","257852.434648","258619.516261","259385.53866","245570.286279","249453.319738","250220.194826","250986.753016","251736.186308","252503.043155","253269.673381","254035.914362","254803.178386","258629.125867"
"Mixed","both","cave","17","F_reek.wav","None","726.281754673","315","248686.99559","255553.16942","256319.64908","257085.789582","257852.434648","258619.516261","259385.53866","260152.814432","249453.319738","250220.194826","250986.753016","251736.186308","252503.043155","253269.673381","254035.914362","254803.178386","259394.751292"
"Mixed","both","done","38","F_jaw.wav","None","725.34775408","315","263286.76396","255553.16942","256319.64908","257085.789582","257852.434648","258619.516261","259385.53866","260152.814432","249453.319738","250220.194826","250986.753016","251736.186308","252503.043155","253269.673381","254035.914362","254803.178386","260162.421254"
"Mixed","both","done","38","F_gnash.wav","None","719.499504194","315","263286.76396","255553.16942","256319.64908","257085.789582","257852.434648","258619.516261","259385.53866","260152.814432","264053.00556","250220.194826","250986.753016","251736.186308","252503.043155","253269.673381","254035.914362","254803.178386","263296.544536"
"Mixed","both","done","38","F_done.wav","None","720.019218046","315","263286.76396","255553.16942","256319.64908","257085.789582","257852.434648","258619.516261","259385.53866","260152.814432","264053.00556","264802.393405","250986.753016","251736.186308","252503.043155","253269.673381","254035.914362","254803.178386","264062.988024"
"Mixed","both","done","38","M_dime.wav","space","412.086115219","315","263286.76396","255553.16942","256319.64908","257085.789582","257852.434648","258619.516261","259385.53866","260152.814432","264053.00556","264802.393405","265568.966125","251736.186308","252503.043155","253269.673381","254035.914362","254803.178386","264811.711772"
"Mixed","both","done","38","F_done.wav","None","735.190163832","315","263286.76396","255553.16942","256319.64908","257085.789582","257852.434648","258619.516261","259385.53866","260152.814432","264053.00556","264802.393405","265568.966125","266335.939838","252503.043155","253269.673381","254035.914362","254803.178386","265578.346327"
"Mixed","both","done","38","F_gnash.wav","space","550.350721925","315","263286.76396","255553.16942","256319.64908","257085.789582","257852.434648","258619.516261","259385.53866","260152.814432","264053.00556","264802.393405","265568.966125","266335.939838","267102.347462","253269.673381","254035.914362","254803.178386","266345.433814"
"Mixed","both","done","38","M_lash.wav","None","734.988894314","315","263286.76396","255553.16942","256319.64908","257085.789582","257852.434648","258619.516261","259385.53866","260152.814432","264053.00556","264802.393405","265568.966125","266335.939838","267102.347462","267869.186377","254035.914362","254803.178386","267105.859627"
"Mixed","both","done","38","M_reek.wav","None","726.272170432","315","263286.76396","255553.16942","256319.64908","257085.789582","257852.434648","258619.516261","259385.53866","260152.814432","264053.00556","264802.393405","265568.966125","266335.939838","267102.347462","267869.186377","268635.832062","254803.178386","267878.888424"
"Mixed","both","done","38","M_done.wav","None","727.008303162","315","263286.76396","255553.16942","256319.64908","257085.789582","257852.434648","258619.516261","259385.53866","260152.814432","264053.00556","264802.393405","265568.966125","266335.939838","267102.347462","267869.186377","268635.832062","269402.538034","268645.239471"
"Mixed","both","done","38","F_jaw.wav","space","475.834386423","315","263286.76396","270169.538954","256319.64908","257085.789582","257852.434648","258619.516261","259385.53866","260152.814432","264053.00556","264802.393405","265568.966125","266335.939838","267102.347462","267869.186377","268635.832062","269402.538034","269411.844654"
"Mixed","both","done","38","M_done.wav","None","720.581597183","315","263286.76396","270169.538954","270918.924016","257085.789582","257852.434648","258619.516261","259385.53866","260152.814432","264053.00556","264802.393405","265568.966125","266335.939838","267102.347462","267869.186377","268635.832062","269402.538034","270179.315202"
"Mixed","both","done","38","M_park.wav","None","735.343820881","315","263286.76396","270169.538954","270918.924016","271685.773752","257852.434648","258619.516261","259385.53866","260152.814432","264053.00556","264802.393405","265568.966125","266335.939838","267102.347462","267869.186377","268635.832062","269402.538034","270928.312256"
"Mixed","both","done","38","M_jolt.wav","space","24.4519044645","315","263286.76396","270169.538954","270918.924016","271685.773752","272452.26547","258619.516261","259385.53866","260152.814432","264053.00556","264802.393405","265568.966125","266335.939838","267102.347462","267869.186377","268635.832062","269402.538034","271695.150553"
"Mixed","both","done","38","F_priest.wav","None","732.234812807","315","263286.76396","270169.538954","270918.924016","271685.773752","272452.26547","273219.09913","259385.53866","260152.814432","264053.00556","264802.393405","265568.966125","266335.939838","267102.347462","267869.186377","268635.832062","269402.538034","272461.764084"
"Mixed","both","done","38","F_jaw.wav","None","729.766095057","315","263286.76396","270169.538954","270918.924016","271685.773752","272452.26547","273219.09913","273985.832927","260152.814432","264053.00556","264802.393405","265568.966125","266335.939838","267102.347462","267869.186377","268635.832062","269402.538034","273228.416261"
"Mixed","both","done","38","M_knife.wav","None","726.763440762","315","263286.76396","270169.538954","270918.924016","271685.773752","272452.26547","273219.09913","273985.832927","274752.217982","264053.00556","264802.393405","265568.966125","266335.939838","267102.347462","267869.186377","268635.832062","269402.538034","273995.601755"
"Mixed","both","cave","24","F_cad.wav","None","724.863285664","315","277869.26367","270169.538954","270918.924016","271685.773752","272452.26547","273219.09913","273985.832927","274752.217982","264053.00556","264802.393405","265568.966125","266335.939838","267102.347462","267869.186377","268635.832062","269402.538034","274761.731126"
"Mixed","both","cave","24","M_cave.wav","None","723.190678749","315","277869.26367","270169.538954","270918.924016","271685.773752","272452.26547","273219.09913","273985.832927","274752.217982","278635.932542","264802.393405","265568.966125","266335.939838","267102.347462","267869.186377","268635.832062","269402.538034","277879.013947"
"Mixed","both","cave","24","F_romp.wav","space","441.476074047","315","277869.26367","270169.538954","270918.924016","271685.773752","272452.26547","273219.09913","273985.832927","274752.217982","278635.932542","279385.227636","265568.966125","266335.939838","267102.347462","267869.186377","268635.832062","269402.538034","278645.929228"
"Mixed","both","cave","24","F_cave.wav","None","735.370409675","315","277869.26367","270169.538954","270918.924016","271685.773752","272452.26547","273219.09913","273985.832927","274752.217982","278635.932542","279385.227636","280152.037798","266335.939838","267102.347462","267869.186377","268635.832062","269402.538034","279394.454798"
"Mixed","both","cave","24","M_knife.wav","space","389.776754659","315","277869.26367","270169.538954","270918.924016","271685.773752","272452.26547","273219.09913","273985.832927","274752.217982","278635.932542","279385.227636","280152.037798","280918.854453","267102.347462","267869.186377","268635.832062","269402.538034","280161.583405"
"Mixed","both","cave","24","M_reek.wav","None","728.915879037","315","277869.26367","270169.538954","270918.924016","271685.773752","272452.26547","273219.09913","273985.832927","274752.217982","278635.932542","279385.227636","280152.037798","280918.854453","281685.431502","267869.186377","268635.832062","269402.538034","280928.153343"
"Mixed","both","cave","24","F_lash.wav","None","726.466328837","315","277869.26367","270169.538954","270918.924016","271685.773752","272452.26547","273219.09913","273985.832927","274752.217982","278635.932542","279385.227636","280152.037798","280918.854453","281685.431502","282452.225897","268635.832062","269402.538034","281695.015446"
"Mixed","both","cave","24","M_bluff.wav","None","723.908260465","315","277869.26367","270169.538954","270918.924016","271685.773752","272452.26547","273219.09913","273985.832927","274752.217982","278635.932542","279385.227636","280152.037798","280918.854453","281685.431502","282452.225897","283219.211049","269402.538034","282461.565288"
"Mixed","both","cave","24","M_cave.wav","None","720.303654205","315","277869.26367","270169.538954","270918.924016","271685.773752","272452.26547","273219.09913","273985.832927","274752.217982","278635.932542","279385.227636","280152.037798","280918.854453","281685.431502","282452.225897","283219.211049","283968.745749","283228.892691"
"Mixed","both","cave","24","F_priest.wav","space","389.10245616","315","277869.26367","284735.754089","270918.924016","271685.773752","272452.26547","273219.09913","273985.832927","274752.217982","278635.932542","279385.227636","280152.037798","280918.854453","281685.431502","282452.225897","283219.211049","283968.745749","283978.15625"
"Mixed","both","cave","24","F_bluff.wav","None","731.397582218","315","277869.26367","284735.754089","285501.93942","271685.773752","272452.26547","273219.09913","273985.832927","274752.217982","278635.932542","279385.227636","280152.037798","280918.854453","281685.431502","282452.225897","283219.211049","283968.745749","284745.314846"
"Mixed","both","cave","24","M_jaw.wav","None","732.819143217","315","277869.26367","284735.754089","285501.93942","286268.682802","272452.26547","273219.09913","273985.832927","274752.217982","278635.932542","279385.227636","280152.037798","280918.854453","281685.431502","282452.225897","283219.211049","283968.745749","285511.415774"
"Mixed","both","cave","24","M_knife.wav","None","730.114528909","315","277869.26367","284735.754089","285501.93942","286268.682802","287035.268198","273219.09913","273985.832927","274752.217982","278635.932542","279385.227636","280152.037798","280918.854453","281685.431502","282452.225897","283219.211049","283968.745749","286277.819688"
"Mixed","both","cave","24","F_dime.wav","None","726.732832845","315","277869.26367","284735.754089","285501.93942","286268.682802","287035.268198","287801.9077","273985.832927","274752.217982","278635.932542","279385.227636","280152.037798","280918.854453","281685.431502","282452.225897","283219.211049","283968.745749","287044.957261"
"Mixed","both","cave","24","F_cave.wav","None","727.278826293","315","277869.26367","284735.754089","285501.93942","286268.682802","287035.268198","287801.9077","288567.978019","274752.217982","278635.932542","279385.227636","280152.037798","280918.854453","281685.431502","282452.225897","283219.211049","283968.745749","287811.304287"
"Mixed","both","cave","24","M_gnash.wav","space","430.294032674","315","277869.26367","284735.754089","285501.93942","286268.682802","287035.268198","287801.9077","288567.978019","289335.550594","278635.932542","279385.227636","280152.037798","280918.854453","281685.431502","282452.225897","283219.211049","283968.745749","288576.817793"
"Mixed","both","ball","8","F_reek.wav","None","725.013541989","315","292468.865089","284735.754089","285501.93942","286268.682802","287035.268198","287801.9077","288567.978019","289335.550594","278635.932542","279385.227636","280152.037798","280918.854453","281685.431502","282452.225897","283219.211049","283968.745749","289344.492393"
"Mixed","both","ball","8","M_cling.wav","None","720.320658293","315","292468.865089","284735.754089","285501.93942","286268.682802","287035.268198","287801.9077","288567.978019","289335.550594","293218.13854","279385.227636","280152.037798","280918.854453","281685.431502","282452.225897","283219.211049","283968.745749","292478.567754"
"Mixed","both","ball","8","M_priest.wav","None","735.194801353","315","292468.865089","284735.754089","285501.93942","286268.682802","287035.268198","287801.9077","288567.978019","289335.550594","293218.13854","293985.512009","280152.037798","280918.854453","281685.431502","282452.225897","283219.211049","283968.745749","293228.044021"
"Mixed","both","ball","8","F_reek.wav","None","732.523886487","315","292468.865089","284735.754089","285501.93942","286268.682802","287035.268198","287801.9077","288567.978019","289335.550594","293218.13854","293985.512009","294751.566871","280918.854453","281685.431502","282452.225897","283219.211049","283968.745749","293994.829759"
"Mixed","both","ball","8","M_park.wav","None","730.076191481","315","292468.865089","284735.754089","285501.93942","286268.682802","287035.268198","287801.9077","288567.978019","289335.550594","293218.13854","293985.512009","294751.566871","295518.430829","281685.431502","282452.225897","283219.211049","283968.745749","294761.077852"
"Mixed","both","ball","8","M_ball.wav","None","727.10198164","315","292468.865089","284735.754089","285501.93942","286268.682802","287035.268198","287801.9077","288567.978019","289335.550594","293218.13854","293985.512009","294751.566871","295518.430829","296285.021481","282452.225897","283219.211049","283968.745749","295527.838856"
"Mixed","both","ball","8","F_bluff.wav","space","399.840839673","315","292468.865089","284735.754089","285501.93942","286268.682802","287035.268198","287801.9077","288567.978019","289335.550594","293218.13854","293985.512009","294751.566871","295518.430829","296285.021481","297051.871836","283219.211049","283968.745749","296295.024969"
"Mixed","both","ball","8","F_ball.wav","None","720.496884547","315","292468.865089","284735.754089","285501.93942","286268.682802","287035.268198","287801.9077","288567.978019","289335.550594","293218.13854","293985.512009","294751.566871","295518.430829","296285.021481","297051.871836","297801.518455","283968.745749","297061.885217"
"Mixed","both","ball","8","F_jaw.wav","space","483.760255389","315","292468.865089","284735.754089","285501.93942","286268.682802","287035.268198","287801.9077","288567.978019","289335.550594","293218.13854","293985.512009","294751.566871","295518.430829","296285.021481","297051.871836","297801.518455","298568.2943","297811.060971"
"Mixed","both","ball","8","F_depth.wav","None","732.859335374","315","292468.865089","299334.637307","285501.93942","286268.682802","287035.268198","287801.9077","288567.978019","289335.550594","293218.13854","293985.512009","294751.566871","295518.430829","296285.021481","297051.871836","297801.518455","298568.2943","298577.42933"
"Mixed","both","ball","8","F_ball.wav","None","730.108963791","315","292468.865089","299334.637307","300101.228887","286268.682802","287035.268198","287801.9077","288567.978019","289335.550594","293218.13854","293985.512009","294751.566871","295518.430829","296285.021481","297051.871836","297801.518455","298568.2943","299343.965259"
"Mixed","both","ball","8","M_cling.wav","space","448.475361802","315","292468.865089","299334.637307","300101.228887","300868.451482","287035.268198","287801.9077","288567.978019","289335.550594","293218.13854","293985.512009","294751.566871","295518.430829","296285.021481","297051.871836","297801.518455","298568.2943","300110.280442"
"Mixed","both","ball","8","M_ball.wav","None","722.962820437","315","292468.865089","299334.637307","300101.228887","300868.451482","301634.660618","287801.9077","288567.978019","289335.550594","293218.13854","293985.512009","294751.566871","295518.430829","296285.021481","297051.871836","297801.518455","298568.2943","300878.169915"
"Mixed","both","ball","8","F_lash.wav","space","667.254191823","315","292468.865089","299334.637307","300101.228887","300868.451482","301634.660618","302384.067631","288567.978019","289335.550594","293218.13854","293985.512009","294751.566871","295518.430829","296285.021481","297051.871836","297801.518455","298568.2943","301643.4602"
"Mixed","both","ball","8","M_cad.wav","None","735.256017186","315","292468.865089","299334.637307","300101.228887","300868.451482","301634.660618","302384.067631","303151.442028","289335.550594","293218.13854","293985.512009","294751.566871","295518.430829","296285.021481","297051.871836","297801.518455","298568.2943","302393.472567"
"Mixed","both","ball","8","M_priest.wav","None","731.562678702","315","292468.865089","299334.637307","300101.228887","300868.451482","301634.660618","302384.067631","303151.442028","303918.186647","293218.13854","293985.512009","294751.566871","295518.430829","296285.021481","297051.871836","297801.518455","298568.2943","303161.072348"
"Mixed","both","cave","16","F_depth.wav","None","729.80412282","315","307051.623882","299334.637307","300101.228887","300868.451482","301634.660618","302384.067631","303151.442028","303918.186647","293218.13854","293985.512009","294751.566871","295518.430829","296285.021481","297051.871836","297801.518455","298568.2943","303927.264481"
"Mixed","both","cave","16","M_priest.wav","None","719.080888666","315","307051.623882","299334.637307","300101.228887","300868.451482","301634.660618","302384.067631","303151.442028","303918.186647","307801.454457","293985.512009","294751.566871","295518.430829","296285.021481","297051.871836","297801.518455","298568.2943","307061.368904"
"Mixed","both","cave","16","M_cave.wav","None","733.395126183","315","307051.623882","299334.637307","300101.228887","300868.451482","301634.660618","302384.067631","303151.442028","303918.186647","307801.454457","308567.987604","294751.566871","295518.430829","296285.021481","297051.871836","297801.518455","298568.2943","307810.944414"
"Mixed","both","cave","16","M_cad.wav","space","317.352878395","315","307051.623882","299334.637307","300101.228887","300868.451482","301634.660618","302384.067631","303151.442028","303918.186647","307801.454457","308567.987604","309335.06829","295518.430829","296285.021481","297051.871836","297801.518455","298568.2943","308577.184777"
"Mixed","both","cave","16","F_romp.wav","None","726.908441633","315","307051.623882","299334.637307","300101.228887","300868.451482","301634.660618","302384.067631","303151.442028","303918.186647","307801.454457","308567.987604","309335.06829","310101.181584","296285.021481","297051.871836","297801.518455","298568.2943","309344.901424"
"Mixed","both","cave","16","M_park.wav","None","726.310817059","315","307051.623882","299334.637307","300101.228887","300868.451482","301634.660618","302384.067631","303151.442028","303918.186647","307801.454457","308567.987604","309335.06829","310101.181584","310868.448699","297051.871836","297801.518455","298568.2943","310110.628257"
"Mixed","both","cave","16","M_depth.wav","None","722.786902916","315","307051.623882","299334.637307","300101.228887","300868.451482","301634.660618","302384.067631","303151.442028","303918.186647","307801.454457","308567.987604","309335.06829","310101.181584","310868.448699","311634.83128","297801.518455","298568.2943","310878.17548"
"Mixed","both","cave","16","F_cave.wav","None","720.023237169","315","307051.623882","299334.637307","300101.228887","300868.451482","301634.660618","302384.067631","303151.442028","303918.186647","307801.454457","308567.987604","309335.06829","310101.181584","310868.448699","311634.83128","312384.433997","298568.2943","311644.982551"
"Mixed","both","cave","16","F_romp.wav","space","412.387864199","315","307051.623882","299334.637307","300101.228887","300868.451482","301634.660618","302384.067631","303151.442028","303918.186647","307801.454457","308567.987604","309335.06829","310101.181584","310868.448699","311634.83128","312384.433997","313151.090194","312394.020725"
"Mixed","both","cave","16","F_cave.wav","None","731.428190134","315","307051.623882","313917.452988","300101.228887","300868.451482","301634.660618","302384.067631","303151.442028","303918.186647","307801.454457","308567.987604","309335.06829","310101.181584","310868.448699","311634.83128","312384.433997","313151.090194","313160.594372"
"Mixed","both","cave","16","M_bluff.wav","None","729.40282058","315","307051.623882","313917.452988","314684.465038","300868.451482","301634.660618","302384.067631","303151.442028","303918.186647","307801.454457","308567.987604","309335.06829","310101.181584","310868.448699","311634.83128","312384.433997","313151.090194","313926.515672"
"Mixed","both","cave","16","M_cave.wav","space","248.40870453","315","307051.623882","313917.452988","314684.465038","315451.365169","301634.660618","302384.067631","303151.442028","303918.186647","307801.454457","308567.987604","309335.06829","310101.181584","310868.448699","311634.83128","312384.433997","313151.090194","314693.88234"
"Mixed","both","cave","16","F_gnash.wav","space","552.962276153","315","307051.623882","313917.452988","314684.465038","315451.365169","316218.116589","302384.067631","303151.442028","303918.186647","307801.454457","308567.987604","309335.06829","310101.181584","310868.448699","311634.83128","312384.433997","313151.090194","315461.335884"
"Mixed","both","cave","16","F_priest.wav","None","718.597966246","315","307051.623882","313917.452988","314684.465038","315451.365169","316218.116589","316967.268537","303151.442028","303918.186647","307801.454457","308567.987604","309335.06829","310101.181584","310868.448699","311634.83128","312384.433997","313151.090194","316228.454289"
"Mixed","both","cave","16","M_cad.wav","None","734.857497271","315","307051.623882","313917.452988","314684.465038","315451.365169","316218.116589","316967.268537","317734.398999","303918.186647","307801.454457","308567.987604","309335.06829","310101.181584","310868.448699","311634.83128","312384.433997","313151.090194","316976.334314"
"Mixed","both","cave","16","F_reek.wav","None","731.568862218","315","307051.623882","313917.452988","314684.465038","315451.365169","316218.116589","316967.268537","317734.398999","318500.948841","307801.454457","308567.987604","309335.06829","310101.181584","310868.448699","311634.83128","312384.433997","313151.090194","317743.784457"
"Mixed","both","cave","21","M_knife.wav","None","728.899183683","315","321634.89837","313917.452988","314684.465038","315451.365169","316218.116589","316967.268537","317734.398999","318500.948841","307801.454457","308567.987604","309335.06829","310101.181584","310868.448699","311634.83128","312384.433997","313151.090194","318510.435088"
"Mixed","both","cave","21","F_cling.wav","None","719.542478677","315","321634.89837","313917.452988","314684.465038","315451.365169","316218.116589","316967.268537","317734.398999","318500.948841","322383.866981","308567.987604","309335.06829","310101.181584","310868.448699","311634.83128","312384.433997","313151.090194","321644.759021"
"Mixed","both","cave","21","M_park.wav","None","735.576625448","315","321634.89837","313917.452988","314684.465038","315451.365169","316218.116589","316967.268537","317734.398999","318500.948841","322383.866981","323150.532761","309335.06829","310101.181584","310868.448699","311634.83128","312384.433997","313151.090194","322393.082395"
"Mixed","both","cave","21","M_cave.wav","None","733.367610257","315","321634.89837","313917.452988","314684.465038","315451.365169","316218.116589","316967.268537","317734.398999","318500.948841","322383.866981","323150.532761","323917.529043","310101.181584","310868.448699","311634.83128","312384.433997","313151.090194","323159.684795"
"Mixed","both","cave","21","M_jolt.wav","space","511.084344238","315","321634.89837","313917.452988","314684.465038","315451.365169","316218.116589","316967.268537","317734.398999","318500.948841","322383.866981","323150.532761","323917.529043","324684.171018","310868.448699","311634.83128","312384.433997","313151.090194","323926.924085"
"Mixed","both","cave","21","M_dime.wav","None","726.97955044","315","321634.89837","313917.452988","314684.465038","315451.365169","316218.116589","316967.268537","317734.398999","318500.948841","322383.866981","323150.532761","323917.529043","324684.171018","325450.70231","311634.83128","312384.433997","313151.090194","324693.5809"
"Mixed","both","cave","21","F_cave.wav","None","724.326875992","315","321634.89837","313917.452988","314684.465038","315451.365169","316218.116589","316967.268537","317734.398999","318500.948841","322383.866981","323150.532761","323917.529043","324684.171018","325450.70231","326217.799381","312384.433997","313151.090194","325460.314079"
"Mixed","both","cave","21","F_knife.wav","space","594.241656363","315","321634.89837","313917.452988","314684.465038","315451.365169","316218.116589","316967.268537","317734.398999","318500.948841","322383.866981","323150.532761","323917.529043","324684.171018","325450.70231","326217.799381","326984.469799","313151.090194","326227.695896"
"Mixed","both","cave","21","F_romp.wav","None","721.286812797","315","321634.89837","313917.452988","314684.465038","315451.365169","316218.116589","316967.268537","317734.398999","318500.948841","322383.866981","323150.532761","323917.529043","324684.171018","325450.70231","326217.799381","326984.469799","327734.39498","326994.11836"
"Mixed","both","cave","21","M_depth.wav","None","735.679270234","315","321634.89837","328500.65142","314684.465038","315451.365169","316218.116589","316967.268537","317734.398999","318500.948841","322383.866981","323150.532761","323917.529043","324684.171018","325450.70231","326217.799381","326984.469799","327734.39498","327743.730661"
"Mixed","both","cave","21","M_cave.wav","None","733.364517801","315","321634.89837","328500.65142","329267.383672","315451.365169","316218.116589","316967.268537","317734.398999","318500.948841","322383.866981","323150.532761","323917.529043","324684.171018","325450.70231","326217.799381","326984.469799","327734.39498","328510.053882"
"Mixed","both","cave","21","M_priest.wav","space","456.972266547","315","321634.89837","328500.65142","329267.383672","330033.624654","316218.116589","316967.268537","317734.398999","318500.948841","322383.866981","323150.532761","323917.529043","324684.171018","325450.70231","326217.799381","326984.469799","327734.39498","329276.919077"
"Mixed","both","cave","21","F_priest.wav","None","728.371740319","315","321634.89837","328500.65142","329267.383672","330033.624654","330800.304038","316967.268537","317734.398999","318500.948841","322383.866981","323150.532761","323917.529043","324684.171018","325450.70231","326217.799381","326984.469799","327734.39498","330042.584076"
"Mixed","both","cave","21","F_depth.wav","None","725.486880168","315","321634.89837","328500.65142","329267.383672","330033.624654","330800.304038","331567.408529","317734.398999","318500.948841","322383.866981","323150.532761","323917.529043","324684.171018","325450.70231","326217.799381","326984.469799","327734.39498","330809.418662"
"Mixed","both","cave","21","F_cave.wav","None","722.31078241","315","321634.89837","328500.65142","329267.383672","330033.624654","330800.304038","331567.408529","332334.166133","318500.948841","322383.866981","323150.532761","323917.529043","324684.171018","325450.70231","326217.799381","326984.469799","327734.39498","331576.705564"
"Mixed","both","cave","21","F_cad.wav","space","445.466215257","315","321634.89837","328500.65142","329267.383672","330033.624654","330800.304038","331567.408529","332334.166133","333083.892827","322383.866981","323150.532761","323917.529043","324684.171018","325450.70231","326217.799381","326984.469799","327734.39498","332344.332243"
"Mixed","both","done","42","F_gnash.wav","None","733.454486355","315","336217.482483","328500.65142","329267.383672","330033.624654","330800.304038","331567.408529","332334.166133","333083.892827","322383.866981","323150.532761","323917.529043","324684.171018","325450.70231","326217.799381","326984.469799","327734.39498","333093.295598"
"Mixed","both","done","42","M_done.wav","None","719.716231804","315","336217.482483","328500.65142","329267.383672","330033.624654","330800.304038","331567.408529","332334.166133","333083.892827","336967.216288","323150.532761","323917.529043","324684.171018","325450.70231","326217.799381","326984.469799","327734.39498","336227.867794"
"Mixed","both","done","42","F_reek.wav","space","445.367899723","315","336217.482483","328500.65142","329267.383672","330033.624654","330800.304038","331567.408529","332334.166133","333083.892827","336967.216288","337733.837548","323917.529043","324684.171018","325450.70231","326217.799381","326984.469799","327734.39498","336976.296595"
"Mixed","both","done","42","M_cling.wav","None","732.151646633","315","336217.482483","328500.65142","329267.383672","330033.624654","330800.304038","331567.408529","332334.166133","333083.892827","336967.216288","337733.837548","338500.34627","324684.171018","325450.70231","326217.799381","326984.469799","327734.39498","337743.331214"
"Mixed","both","done","42","F_jaw.wav","None","729.841532186","315","336217.482483","328500.65142","329267.383672","330033.624654","330800.304038","331567.408529","332334.166133","333083.892827","336967.216288","337733.837548","338500.34627","339267.101709","325450.70231","326217.799381","326984.469799","327734.39498","338509.891259"
"Mixed","both","done","42","M_done.wav","None","727.858518716","315","336217.482483","328500.65142","329267.383672","330033.624654","330800.304038","331567.408529","332334.166133","333083.892827","336967.216288","337733.837548","338500.34627","339267.101709","340033.706893","326217.799381","326984.469799","327734.39498","339276.45656"
"Mixed","both","done","42","M_lash.wav","space","385.795270558","315","336217.482483","328500.65142","329267.383672","330033.624654","330800.304038","331567.408529","332334.166133","333083.892827","336967.216288","337733.837548","338500.34627","339267.101709","340033.706893","340800.614134","326984.469799","327734.39498","340043.755519"
"Mixed","both","done","42","F_priest.wav","None","721.40182415","315","336217.482483","328500.65142","329267.383672","330033.624654","330800.304038","331567.408529","332334.166133","333083.892827","336967.216288","337733.837548","338500.34627","339267.101709","340033.706893","340800.614134","341567.274659","327734.39498","340810.399348"
"Mixed","both","done","42","F_jaw.wav","None","718.916719314","315","336217.482483","328500.65142","329267.383672","330033.624654","330800.304038","331567.408529","332334.166133","333083.892827","336967.216288","337733.837548","338500.34627","339267.101709","340033.706893","340800.614134","341567.274659","342316.779369","341577.19498"
"Mixed","both","done","42","M_cad.wav","None","734.250288922","315","336217.482483","343083.642709","329267.383672","330033.624654","330800.304038","331567.408529","332334.166133","333083.892827","336967.216288","337733.837548","338500.34627","339267.101709","340033.706893","340800.614134","341567.274659","342316.779369","342326.340435"
"Mixed","both","done","42","M_park.wav","None","731.346569024","315","336217.482483","343083.642709","343850.198116","330033.624654","330800.304038","331567.408529","332334.166133","333083.892827","336967.216288","337733.837548","338500.34627","339267.101709","340033.706893","340800.614134","341567.274659","342316.779369","343093.482646"
"Mixed","both","done","42","F_done.wav","None","729.654175229","315","336217.482483","343083.642709","343850.198116","344616.861114","330800.304038","331567.408529","332334.166133","333083.892827","336967.216288","337733.837548","338500.34627","339267.101709","340033.706893","340800.614134","341567.274659","342316.779369","343859.662721"
"Mixed","both","done","42","F_greet.wav","space","475.485643372","315","336217.482483","343083.642709","343850.198116","344616.861114","345382.943801","331567.408529","332334.166133","333083.892827","336967.216288","337733.837548","338500.34627","339267.101709","340033.706893","340800.614134","341567.274659","342316.779369","344625.925654"
"Mixed","both","done","42","M_lash.wav","None","725.08650599","315","336217.482483","343083.642709","343850.198116","344616.861114","345382.943801","346150.455468","332334.166133","333083.892827","336967.216288","337733.837548","338500.34627","339267.101709","340033.706893","340800.614134","341567.274659","342316.779369","345391.970003"
"Mixed","both","done","42","F_done.wav","None","721.059882548","315","336217.482483","343083.642709","343850.198116","344616.861114","345382.943801","346150.455468","346917.382188","333083.892827","336967.216288","337733.837548","338500.34627","339267.101709","340033.706893","340800.614134","341567.274659","342316.779369","346160.594063"
"Mixed","both","done","42","M_jaw.wav","space","550.065358169","315","336217.482483","343083.642709","343850.198116","344616.861114","345382.943801","346150.455468","346917.382188","347666.720256","336967.216288","337733.837548","338500.34627","339267.101709","340033.706893","340800.614134","341567.274659","342316.779369","346927.281176"
"Mixed","both","tile","25","M_jaw.wav","None","733.57382603","315","350800.53777","343083.642709","343850.198116","344616.861114","345382.943801","346150.455468","346917.382188","347666.720256","336967.216288","337733.837548","338500.34627","339267.101709","340033.706893","340800.614134","341567.274659","342316.779369","347676.175277"
"Mixed","both","tile","25","M_reek.wav","None","719.750240445","315","350800.53777","343083.642709","343850.198116","344616.861114","345382.943801","346150.455468","346917.382188","347666.720256","351549.782778","337733.837548","338500.34627","339267.101709","340033.706893","340800.614134","341567.274659","342316.779369","350810.250638"
"Mixed","both","tile","25","M_tile.wav","None","735.849622637","315","350800.53777","343083.642709","343850.198116","344616.861114","345382.943801","346150.455468","346917.382188","347666.720256","351549.782778","352316.725265","338500.34627","339267.101709","340033.706893","340800.614134","341567.274659","342316.779369","351558.963256"
"Mixed","both","tile","25","F_knife.wav","space","390.886364505","315","350800.53777","343083.642709","343850.198116","344616.861114","345382.943801","346150.455468","346917.382188","347666.720256","351549.782778","352316.725265","353083.331685","339267.101709","340033.706893","340800.614134","341567.274659","342316.779369","352326.33116"
"Mixed","both","tile","25","F_tile.wav","None","730.09134084","315","350800.53777","343083.642709","343850.198116","344616.861114","345382.943801","346150.455468","346917.382188","347666.720256","351549.782778","352316.725265","353083.331685","353850.033328","340033.706893","340800.614134","341567.274659","342316.779369","353092.615735"
"Mixed","both","tile","25","F_reek.wav","space","489.78133034","315","350800.53777","343083.642709","343850.198116","344616.861114","345382.943801","346150.455468","346917.382188","347666.720256","351549.782778","352316.725265","353083.331685","353850.033328","354616.977361","340800.614134","341567.274659","342316.779369","353859.372102"
"Mixed","both","tile","25","M_romp.wav","None","723.148012999","315","350800.53777","343083.642709","343850.198116","344616.861114","345382.943801","346150.455468","346917.382188","347666.720256","351549.782778","352316.725265","353083.331685","353850.033328","354616.977361","355382.915666","341567.274659","342316.779369","354627.279507"
"Mixed","both","tile","25","M_greet.wav","None","722.665090114","315","350800.53777","343083.642709","343850.198116","344616.861114","345382.943801","346150.455468","346917.382188","347666.720256","351549.782778","352316.725265","353083.331685","353850.033328","354616.977361","355382.915666","356149.790136","342316.779369","355392.260623"
"Mixed","both","tile","25","F_tile.wav","None","720.663836226","315","350800.53777","343083.642709","343850.198116","344616.861114","345382.943801","346150.455468","346917.382188","347666.720256","351549.782778","352316.725265","353083.331685","353850.033328","354616.977361","355382.915666","356149.790136","356899.602161","356159.16199"
"Mixed","both","tile","25","M_priest.wav","space","424.260590225","315","350800.53777","357666.599371","343850.198116","344616.861114","345382.943801","346150.455468","346917.382188","347666.720256","351549.782778","352316.725265","353083.331685","353850.033328","354616.977361","355382.915666","356149.790136","356899.602161","356908.812629"
"Mixed","both","tile","25","F_park.wav","None","732.115164399","315","350800.53777","357666.599371","358433.169618","344616.861114","345382.943801","346150.455468","346917.382188","347666.720256","351549.782778","352316.725265","353083.331685","353850.033328","354616.977361","355382.915666","356149.790136","356899.602161","357675.758207"
"Mixed","both","tile","25","M_park.wav","None","729.633151554","315","350800.53777","357666.599371","358433.169618","359199.478926","345382.943801","346150.455468","346917.382188","347666.720256","351549.782778","352316.725265","353083.331685","353850.033328","354616.977361","355382.915666","356149.790136","356899.602161","358442.474692"
"Mixed","both","tile","25","F_jolt.wav","None","727.711663581","315","350800.53777","357666.599371","358433.169618","359199.478926","359966.409665","346150.455468","346917.382188","347666.720256","351549.782778","352316.725265","353083.331685","353850.033328","354616.977361","355382.915666","356149.790136","356899.602161","359208.701142"
"Mixed","both","tile","25","M_tile.wav","None","727.8885087","315","350800.53777","357666.599371","358433.169618","359199.478926","359966.409665","360733.096777","346917.382188","347666.720256","351549.782778","352316.725265","353083.331685","353850.033328","354616.977361","355382.915666","356149.790136","356899.602161","359976.191477"
"Mixed","both","tile","25","F_romp.wav","space","486.455903854","315","350800.53777","357666.599371","358433.169618","359199.478926","359966.409665","360733.096777","361500.185193","347666.720256","351549.782778","352316.725265","353083.331685","353850.033328","354616.977361","355382.915666","356149.790136","356899.602161","360742.488419"
"Mixed","both","tile","25","F_gnash.wav","None","722.156197298","315","350800.53777","357666.599371","358433.169618","359199.478926","359966.409665","360733.096777","361500.185193","362266.702571","351549.782778","352316.725265","353083.331685","353850.033328","354616.977361","355382.915666","356149.790136","356899.602161","361510.413137"
"Mixed","both","cave","19","F_reek.wav","None","720.373835415","315","365382.44511","357666.599371","358433.169618","359199.478926","359966.409665","360733.096777","361500.185193","362266.702571","351549.782778","352316.725265","353083.331685","353850.033328","354616.977361","355382.915666","356149.790136","356899.602161","362276.511282"
"Mixed","both","cave","19","F_romp.wav","None","720.580978785","315","365382.44511","357666.599371","358433.169618","359199.478926","359966.409665","360733.096777","361500.185193","362266.702571","366132.763555","352316.725265","353083.331685","353850.033328","354616.977361","355382.915666","356149.790136","356899.602161","365392.085324"
"Mixed","both","cave","19","F_gnash.wav","None","734.868627973","315","365382.44511","357666.599371","358433.169618","359199.478926","359966.409665","360733.096777","361500.185193","362266.702571","366132.763555","366899.655956","353083.331685","353850.033328","354616.977361","355382.915666","356149.790136","356899.602161","366142.573811"
"Mixed","both","cave","19","M_romp.wav","None","733.135732822","315","365382.44511","357666.599371","358433.169618","359199.478926","359966.409665","360733.096777","361500.185193","362266.702571","366132.763555","366899.655956","367666.255883","353850.033328","354616.977361","355382.915666","356149.790136","356899.602161","366909.049452"
"Mixed","both","cave","19","F_depth.wav","None","730.996279977","315","365382.44511","357666.599371","358433.169618","359199.478926","359966.409665","360733.096777","361500.185193","362266.702571","366132.763555","366899.655956","367666.255883","368432.881163","354616.977361","355382.915666","356149.790136","356899.602161","367675.612279"
"Mixed","both","cave","19","M_cave.wav","None","728.584449273","315","365382.44511","357666.599371","358433.169618","359199.478926","359966.409665","360733.096777","361500.185193","362266.702571","366132.763555","366899.655956","367666.255883","368432.881163","369199.506751","355382.915666","356149.790136","356899.602161","368442.268166"
"Mixed","both","cave","19","F_gnash.wav","space","587.313787546","315","365382.44511","357666.599371","358433.169618","359199.478926","359966.409665","360733.096777","361500.185193","362266.702571","366132.763555","366899.655956","367666.255883","368432.881163","369199.506751","369966.476754","356149.790136","356899.602161","369209.378841"
"Mixed","both","cave","19","M_gnash.wav","None","722.442797385","315","365382.44511","357666.599371","358433.169618","359199.478926","359966.409665","360733.096777","361500.185193","362266.702571","366132.763555","366899.655956","367666.255883","368432.881163","369199.506751","369966.476754","370733.512611","356899.602161","369976.600818"
"Mixed","both","cave","19","M_depth.wav","None","720.085380133","315","365382.44511","357666.599371","358433.169618","359199.478926","359966.409665","360733.096777","361500.185193","362266.702571","366132.763555","366899.655956","367666.255883","368432.881163","369199.506751","369966.476754","370733.512611","371499.694231","370743.242792"
"Mixed","both","cave","19","F_knife.wav","None","718.706483953","315","365382.44511","372248.956553","358433.169618","359199.478926","359966.409665","360733.096777","361500.185193","362266.702571","366132.763555","366899.655956","367666.255883","368432.881163","369199.506751","369966.476754","370733.512611","371499.694231","371509.626301"
"Mixed","both","cave","19","F_cave.wav","None","734.456505161","315","365382.44511","372248.956553","373016.10402","359199.478926","359966.409665","360733.096777","361500.185193","362266.702571","366132.763555","366899.655956","367666.255883","368432.881163","369199.506751","369966.476754","370733.512611","371499.694231","372258.135176"
"Mixed","both","cave","19","M_romp.wav","space","730.802121572","315","365382.44511","372248.956553","373016.10402","373782.316867","359966.409665","360733.096777","361500.185193","362266.702571","366132.763555","366899.655956","367666.255883","368432.881163","369199.506751","369966.476754","370733.512611","371499.694231","373025.721045"
"Mixed","both","cave","19","F_cave.wav","None","730.10463547","315","365382.44511","372248.956553","373016.10402","373782.316867","374549.36849","360733.096777","361500.185193","362266.702571","366132.763555","366899.655956","367666.255883","368432.881163","369199.506751","369966.476754","370733.512611","371499.694231","373791.192813"
"Mixed","both","cave","19","M_jaw.wav","None","726.856191643","315","365382.44511","372248.956553","373016.10402","373782.316867","374549.36849","375316.331074","361500.185193","362266.702571","366132.763555","366899.655956","367666.255883","368432.881163","369199.506751","369966.476754","370733.512611","371499.694231","374558.692424"
"Mixed","both","cave","19","M_cave.wav","space","198.268836364","315","365382.44511","372248.956553","373016.10402","373782.316867","374549.36849","375316.331074","376082.875041","362266.702571","366132.763555","366899.655956","367666.255883","368432.881163","369199.506751","369966.476754","370733.512611","371499.694231","375326.246448"
"Mixed","both","cave","19","M_dime.wav","space","639.829004649","315","365382.44511","372248.956553","373016.10402","373782.316867","374549.36849","375316.331074","376082.875041","376833.07291","366132.763555","366899.655956","367666.255883","368432.881163","369199.506751","369966.476754","370733.512611","371499.694231","376092.680351"
"Mixed","both","done","45","M_cling.wav","None","732.405474875","315","379966.052574","372248.956553","373016.10402","373782.316867","374549.36849","375316.331074","376082.875041","376833.07291","366132.763555","366899.655956","367666.255883","368432.881163","369199.506751","369966.476754","370733.512611","371499.694231","376844.574941"
"Mixed","both","done","45","F_gnash.wav","None","719.723033719","315","379966.052574","372248.956553","373016.10402","373782.316867","374549.36849","375316.331074","376082.875041","376833.07291","380715.823479","366899.655956","367666.255883","368432.881163","369199.506751","369966.476754","370733.512611","371499.694231","379976.295049"
"Mixed","both","done","45","F_park.wav","None","736.037906725","315","379966.052574","372248.956553","373016.10402","373782.316867","374549.36849","375316.331074","376082.875041","376833.07291","380715.823479","381482.205751","367666.255883","368432.881163","369199.506751","369966.476754","370733.512611","371499.694231","380724.882763"
"Mixed","both","done","45","F_done.wav","None","734.259254299","315","379966.052574","372248.956553","373016.10402","373782.316867","374549.36849","375316.331074","376082.875041","376833.07291","380715.823479","381482.205751","382248.95779","368432.881163","369199.506751","369966.476754","370733.512611","371499.694231","381490.905162"
"Mixed","both","done","45","M_bluff.wav","space","449.540759902","315","379966.052574","372248.956553","373016.10402","373782.316867","374549.36849","375316.331074","376082.875041","376833.07291","380715.823479","381482.205751","382248.95779","383015.748784","369199.506751","369966.476754","370733.512611","371499.694231","382258.748569"
"Mixed","both","done","45","F_park.wav","None","727.87026735","315","379966.052574","372248.956553","373016.10402","373782.316867","374549.36849","375316.331074","376082.875041","376833.07291","380715.823479","381482.205751","382248.95779","383015.748784","383782.108796","369966.476754","370733.512611","371499.694231","383024.773132"
"Mixed","both","done","45","M_done.wav","None","725.75091105","315","379966.052574","372248.956553","373016.10402","373782.316867","374549.36849","375316.331074","376082.875041","376833.07291","380715.823479","381482.205751","382248.95779","383015.748784","383782.108796","384548.723872","370733.512611","371499.694231","383791.310297"
"Mixed","both","done","45","M_cad.wav","space","454.549305141","315","379966.052574","372248.956553","373016.10402","373782.316867","374549.36849","375316.331074","376082.875041","376833.07291","380715.823479","381482.205751","382248.95779","383015.748784","383782.108796","384548.723872","385316.092086","371499.694231","384557.684222"
"Mixed","both","done","45","M_done.wav","None","722.311091609","315","379966.052574","372248.956553","373016.10402","373782.316867","374549.36849","375316.331074","376082.875041","376833.07291","380715.823479","381482.205751","382248.95779","383015.748784","383782.108796","384548.723872","385316.092086","386082.628015","385326.102684"
"Mixed","both","done","45","F_depth.wav","None","721.902060322","315","379966.052574","386849.22856","373016.10402","373782.316867","374549.36849","375316.331074","376082.875041","376833.07291","380715.823479","381482.205751","382248.95779","383015.748784","383782.108796","384548.723872","385316.092086","386082.628015","386092.291106"
"Mixed","both","done","45","M_jolt.wav","None","719.651924912","315","379966.052574","386849.22856","387598.706064","373782.316867","374549.36849","375316.331074","376082.875041","376833.07291","380715.823479","381482.205751","382248.95779","383015.748784","383782.108796","384548.723872","385316.092086","386082.628015","386859.151973"
"Mixed","both","done","45","F_done.wav","None","734.961069655","315","379966.052574","386849.22856","387598.706064","388365.568785","374549.36849","375316.331074","376082.875041","376833.07291","380715.823479","381482.205751","382248.95779","383015.748784","383782.108796","384548.723872","385316.092086","386082.628015","387608.587429"
"Mixed","both","done","45","F_cad.wav","space","437.331657391","315","379966.052574","386849.22856","387598.706064","388365.568785","389132.197774","375316.331074","376082.875041","376833.07291","380715.823479","381482.205751","382248.95779","383015.748784","383782.108796","384548.723872","385316.092086","386082.628015","388374.800276"
"Mixed","both","done","45","F_cad.wav","None","730.196458288","315","379966.052574","386849.22856","387598.706064","388365.568785","389132.197774","389898.778534","376082.875041","376833.07291","380715.823479","381482.205751","382248.95779","383015.748784","383782.108796","384548.723872","385316.092086","386082.628015","389141.488008"
"Mixed","both","done","45","M_reek.wav","None","727.476694621","315","379966.052574","386849.22856","387598.706064","388365.568785","389132.197774","389898.778534","390665.572619","376833.07291","380715.823479","381482.205751","382248.95779","383015.748784","383782.108796","384548.723872","385316.092086","386082.628015","389908.522319"
"Mixed","both","done","45","M_park.wav","None","726.121914107","315","379966.052574","386849.22856","387598.706064","388365.568785","389132.197774","389898.778534","390665.572619","391432.533656","380715.823479","381482.205751","382248.95779","383015.748784","383782.108796","384548.723872","385316.092086","386082.628015","390674.897479"
"Mixed","both","tile","29","M_depth.wav","None","722.965603229","315","394548.949566","386849.22856","387598.706064","388365.568785","389132.197774","389898.778534","390665.572619","391432.533656","380715.823479","381482.205751","382248.95779","383015.748784","383782.108796","384548.723872","385316.092086","386082.628015","391442.505299"
"Mixed","both","tile","29","F_reek.wav","None","720.406607259","315","394548.949566","386849.22856","387598.706064","388365.568785","389132.197774","389898.778534","390665.572619","391432.533656","395315.793119","381482.205751","382248.95779","383015.748784","383782.108796","384548.723872","385316.092086","386082.628015","394558.779919"
"Mixed","both","tile","29","F_cling.wav","None","718.670929782","315","394548.949566","386849.22856","387598.706064","388365.568785","389132.197774","389898.778534","390665.572619","391432.533656","395315.793119","396064.757401","382248.95779","383015.748784","383782.108796","384548.723872","385316.092086","386082.628015","395325.68345"
"Mixed","both","tile","29","M_tile.wav","None","734.570588451","315","394548.949566","386849.22856","387598.706064","388365.568785","389132.197774","389898.778534","390665.572619","391432.533656","395315.793119","396064.757401","396832.032554","383015.748784","383782.108796","384548.723872","385316.092086","386082.628015","396074.295279"
"Mixed","both","tile","29","M_cad.wav","space","458.397228736","315","394548.949566","386849.22856","387598.706064","388365.568785","389132.197774","389898.778534","390665.572619","391432.533656","395315.793119","396064.757401","396832.032554","397598.603111","383782.108796","384548.723872","385316.092086","386082.628015","396841.42605"
"Mixed","both","tile","29","M_tile.wav","None","729.30326825","315","394548.949566","386849.22856","387598.706064","388365.568785","389132.197774","389898.778534","390665.572619","391432.533656","395315.793119","396064.757401","396832.032554","397598.603111","398364.947355","384548.723872","385316.092086","386082.628015","397608.009592"
"Mixed","both","tile","29","M_bluff.wav","space","581.519332714","315","394548.949566","386849.22856","387598.706064","388365.568785","389132.197774","389898.778534","390665.572619","391432.533656","395315.793119","396064.757401","396832.032554","397598.603111","398364.947355","399132.666166","385316.092086","386082.628015","398374.302205"
"Mixed","both","tile","29","F_tile.wav","None","723.510669079","315","394548.949566","386849.22856","387598.706064","388365.568785","389132.197774","389898.778534","390665.572619","391432.533656","395315.793119","396064.757401","396832.032554","397598.603111","398364.947355","399132.666166","399898.354353","386082.628015","399142.344098"
"Mixed","both","tile","29","F_dime.wav","space","544.589039404","315","394548.949566","386849.22856","387598.706064","388365.568785","389132.197774","389898.778534","390665.572619","391432.533656","395315.793119","396064.757401","396832.032554","397598.603111","398364.947355","399132.666166","399898.354353","400665.56087","399907.195363"
"Mixed","both","tile","29","M_greet.wav","None","718.468423933","315","394548.949566","401414.873278","387598.706064","388365.568785","389132.197774","389898.778534","390665.572619","391432.533656","395315.793119","396064.757401","396832.032554","397598.603111","398364.947355","399132.666166","399898.354353","400665.56087","400675.747386"
"Mixed","both","tile","29","F_bluff.wav","None","734.405182768","315","394548.949566","401414.873278","402181.847918","388365.568785","389132.197774","389898.778534","390665.572619","391432.533656","395315.793119","396064.757401","396832.032554","397598.603111","398364.947355","399132.666166","399898.354353","400665.56087","401424.255025"
"Mixed","both","tile","29","F_reek.wav","None","731.716026552","315","394548.949566","401414.873278","402181.847918","402948.183506","389132.197774","389898.778534","390665.572619","391432.533656","395315.793119","396064.757401","396832.032554","397598.603111","398364.947355","399132.666166","399898.354353","400665.56087","402191.809359"
"Mixed","both","tile","29","F_tile.wav","None","731.056259014","315","394548.949566","401414.873278","402181.847918","402948.183506","403715.159692","389898.778534","390665.572619","391432.533656","395315.793119","396064.757401","396832.032554","397598.603111","398364.947355","399132.666166","399898.354353","400665.56087","402957.006893"
"Mixed","both","tile","29","F_park.wav","space","518.983314745","315","394548.949566","401414.873278","402181.847918","402948.183506","403715.159692","404481.817743","390665.572619","391432.533656","395315.793119","396064.757401","396832.032554","397598.603111","398364.947355","399132.666166","399898.354353","400665.56087","403724.676547"
"Mixed","both","tile","29","M_jolt.wav","None","725.011068396","315","394548.949566","401414.873278","402181.847918","402948.183506","403715.159692","404481.817743","405248.798258","391432.533656","395315.793119","396064.757401","396832.032554","397598.603111","398364.947355","399132.666166","399898.354353","400665.56087","404491.106431"
"Mixed","both","tile","29","M_knife.wav","None","721.968531609","315","394548.949566","401414.873278","402181.847918","402948.183506","403715.159692","404481.817743","405248.798258","406015.458783","395315.793119","396064.757401","396832.032554","397598.603111","398364.947355","399132.666166","399898.354353","400665.56087","405258.75908"
"Mixed","both","done","47","M_park.wav","None","720.113824122","315","409132.036388","401414.873278","402181.847918","402948.183506","403715.159692","404481.817743","405248.798258","406015.458783","395315.793119","396064.757401","396832.032554","397598.603111","398364.947355","399132.666166","399898.354353","400665.56087","406025.183708"
"Mixed","both","done","47","F_jaw.wav","None","719.370889477","315","409132.036388","401414.873278","402181.847918","402948.183506","403715.159692","404481.817743","405248.798258","406015.458783","409881.460096","396064.757401","396832.032554","397598.603111","398364.947355","399132.666166","399898.354353","400665.56087","409141.961346"
"Mixed","both","done","47","F_done.wav","None","735.072679818","315","409132.036388","401414.873278","402181.847918","402948.183506","403715.159692","404481.817743","405248.798258","406015.458783","409881.460096","410648.136079","396832.032554","397598.603111","398364.947355","399132.666166","399898.354353","400665.56087","409890.955927"
"Mixed","both","done","47","F_cling.wav","space","393.765659537","315","409132.036388","401414.873278","402181.847918","402948.183506","403715.159692","404481.817743","405248.798258","406015.458783","409881.460096","410648.136079","411414.882244","397598.603111","398364.947355","399132.666166","399898.354353","400665.56087","410657.670866"
"Mixed","both","done","47","M_done.wav","None","730.18285539","315","409132.036388","401414.873278","402181.847918","402948.183506","403715.159692","404481.817743","405248.798258","406015.458783","409881.460096","410648.136079","411414.882244","412181.558536","398364.947355","399132.666166","399898.354353","400665.56087","411424.091165"
"Mixed","both","done","47","M_greet.wav","space","428.114696871","315","409132.036388","401414.873278","402181.847918","402948.183506","403715.159692","404481.817743","405248.798258","406015.458783","409881.460096","410648.136079","411414.882244","412181.558536","412947.71666","399132.666166","399898.354353","400665.56087","412191.273877"
"Mixed","both","done","47","M_done.wav","None","725.741944741","315","409132.036388","401414.873278","402181.847918","402948.183506","403715.159692","404481.817743","405248.798258","406015.458783","409881.460096","410648.136079","411414.882244","412181.558536","412947.71666","413714.828263","399898.354353","400665.56087","412956.719057"
"Mixed","both","done","47","F_romp.wav","space","550.777066499","315","409132.036388","401414.873278","402181.847918","402948.183506","403715.159692","404481.817743","405248.798258","406015.458783","409881.460096","410648.136079","411414.882244","412181.558536","412947.71666","413714.828263","414481.846805","400665.56087","413724.583487"
"Mixed","both","done","47","F_reek.wav","None","718.241184484","315","409132.036388","401414.873278","402181.847918","402948.183506","403715.159692","404481.817743","405248.798258","406015.458783","409881.460096","410648.136079","411414.882244","412181.558536","412947.71666","413714.828263","414481.846805","415231.025342","414491.97798"
"Mixed","both","done","47","M_lash.wav","None","734.912220389","315","409132.036388","415997.903522","402181.847918","402948.183506","403715.159692","404481.817743","405248.798258","406015.458783","409881.460096","410648.136079","411414.882244","412181.558536","412947.71666","413714.828263","414481.846805","415231.025342","415240.156044"
"Mixed","both","done","47","F_done.wav","None","732.703823131","315","409132.036388","415997.903522","416764.363086","402948.183506","403715.159692","404481.817743","405248.798258","406015.458783","409881.460096","410648.136079","411414.882244","412181.558536","412947.71666","413714.828263","414481.846805","415231.025342","416007.335664"
"Mixed","both","done","47","M_bluff.wav","space","405.952192377","315","409132.036388","415997.903522","416764.363086","417531.773347","403715.159692","404481.817743","405248.798258","406015.458783","409881.460096","410648.136079","411414.882244","412181.558536","412947.71666","413714.828263","414481.846805","415231.025342","416773.300248"
"Mixed","both","done","47","F_greet.wav","None","728.846006095","315","409132.036388","415997.903522","416764.363086","417531.773347","418297.970117","404481.817743","405248.798258","406015.458783","409881.460096","410648.136079","411414.882244","412181.558536","412947.71666","413714.828263","414481.846805","415231.025342","417541.414488"
"Mixed","both","done","47","M_dime.wav","None","727.384871803","315","409132.036388","415997.903522","416764.363086","417531.773347","418297.970117","419064.671142","405248.798258","406015.458783","409881.460096","410648.136079","411414.882244","412181.558536","412947.71666","413714.828263","414481.846805","415231.025342","418307.439978"
"Mixed","both","done","47","F_greet.wav","None","725.393510889","315","409132.036388","415997.903522","416764.363086","417531.773347","418297.970117","419064.671142","419831.689995","406015.458783","409881.460096","410648.136079","411414.882244","412181.558536","412947.71666","413714.828263","414481.846805","415231.025342","419074.052272"
"Mixed","both","done","47","M_greet.wav","None","723.094835877","315","409132.036388","415997.903522","416764.363086","417531.773347","418297.970117","419064.671142","419831.689995","420598.216958","409881.460096","410648.136079","411414.882244","412181.558536","412947.71666","413714.828263","414481.846805","415231.025342","419841.449548"
"Mixed","both","tile","35","M_dime.wav","None","722.106420901","315","423714.923487","415997.903522","416764.363086","417531.773347","418297.970117","419064.671142","419831.689995","420598.216958","409881.460096","410648.136079","411414.882244","412181.558536","412947.71666","413714.828263","414481.846805","415231.025342","420607.745252"
"Mixed","both","tile","35","F_greet.wav","None","720.184005331","315","423714.923487","415997.903522","416764.363086","417531.773347","418297.970117","419064.671142","419831.689995","420598.216958","424464.240841","410648.136079","411414.882244","412181.558536","412947.71666","413714.828263","414481.846805","415231.025342","423724.666344"
"Mixed","both","tile","35","M_jaw.wav","None","735.958759207","315","423714.923487","415997.903522","416764.363086","417531.773347","418297.970117","419064.671142","419831.689995","420598.216958","424464.240841","425230.775533","411414.882244","412181.558536","412947.71666","413714.828263","414481.846805","415231.025342","424473.58085"
"Mixed","both","tile","35","M_cad.wav","None","734.18876389","315","423714.923487","415997.903522","416764.363086","417531.773347","418297.970117","419064.671142","419831.689995","420598.216958","424464.240841","425230.775533","425997.682775","412181.558536","412947.71666","413714.828263","414481.846805","415231.025342","425239.99002"
"Mixed","both","tile","35","F_dime.wav","None","732.273458969","315","423714.923487","415997.903522","416764.363086","417531.773347","418297.970117","419064.671142","419831.689995","420598.216958","424464.240841","425230.775533","425997.682775","426764.073086","412947.71666","413714.828263","414481.846805","415231.025342","426007.149853"
"Mixed","both","tile","35","F_tile.wav","None","730.781407095","315","423714.923487","415997.903522","416764.363086","417531.773347","418297.970117","419064.671142","419831.689995","420598.216958","424464.240841","425230.775533","425997.682775","426764.073086","427531.477162","413714.828263","414481.846805","415231.025342","426773.194512"
"Mixed","both","tile","35","F_dime.wav","None","727.50637494","315","423714.923487","415997.903522","416764.363086","417531.773347","418297.970117","419064.671142","419831.689995","420598.216958","424464.240841","425230.775533","425997.682775","426764.073086","427531.477162","428297.396608","414481.846805","415231.025342","427541.164988"
"Mixed","both","tile","35","M_tile.wav","space","0.0256611965597","315","423714.923487","415997.903522","416764.363086","417531.773347","418297.970117","419064.671142","419831.689995","420598.216958","424464.240841","425230.775533","425997.682775","426764.073086","427531.477162","428297.396608","429064.734213","415231.025342","428306.468567"
"Mixed","both","tile","35","F_gnash.wav","space","432.342589367","315","423714.923487","415997.903522","416764.363086","417531.773347","418297.970117","419064.671142","419831.689995","420598.216958","424464.240841","425230.775533","425997.682775","426764.073086","427531.477162","428297.396608","429064.734213","429831.474813","429074.545088"
"Mixed","both","tile","35","F_tile.wav","None","719.087690581","315","423714.923487","430580.620887","416764.363086","417531.773347","418297.970117","419064.671142","419831.689995","420598.216958","424464.240841","425230.775533","425997.682775","426764.073086","427531.477162","428297.396608","429064.734213","429831.474813","429841.34783"
"Mixed","both","tile","35","M_gnash.wav","space","629.062177613","315","423714.923487","430580.620887","431347.53864","417531.773347","418297.970117","419064.671142","419831.689995","420598.216958","424464.240841","425230.775533","425997.682775","426764.073086","427531.477162","428297.396608","429064.734213","429831.474813","430589.797037"
"Mixed","both","tile","35","F_depth.wav","None","731.322763022","315","423714.923487","430580.620887","431347.53864","432114.300572","418297.970117","419064.671142","419831.689995","420598.216958","424464.240841","425230.775533","425997.682775","426764.073086","427531.477162","428297.396608","429064.734213","429831.474813","431357.263566"
"Mixed","both","tile","35","F_park.wav","None","730.286426842","315","423714.923487","430580.620887","431347.53864","432114.300572","432880.91503","419064.671142","419831.689995","420598.216958","424464.240841","425230.775533","425997.682775","426764.073086","427531.477162","428297.396608","429064.734213","429831.474813","432123.53701"
"Mixed","both","tile","35","M_lash.wav","None","728.641645052","315","423714.923487","430580.620887","431347.53864","432114.300572","432880.91503","433647.220628","419831.689995","420598.216958","424464.240841","425230.775533","425997.682775","426764.073086","427531.477162","428297.396608","429064.734213","429831.474813","432890.438687"
"Mixed","both","tile","35","M_tile.wav","None","727.495553903","315","423714.923487","430580.620887","431347.53864","432114.300572","432880.91503","433647.220628","434414.271634","420598.216958","424464.240841","425230.775533","425997.682775","426764.073086","427531.477162","428297.396608","429064.734213","429831.474813","433656.305883"
"Mixed","both","tile","35","M_cad.wav","space","482.965071686","315","423714.923487","430580.620887","431347.53864","432114.300572","432880.91503","433647.220628","434414.271634","435181.224633","424464.240841","425230.775533","425997.682775","426764.073086","427531.477162","428297.396608","429064.734213","429831.474813","434423.779213"
"Mixed","both","ball","6","M_reek.wav","None","721.695843618","315","438297.822643","430580.620887","431347.53864","432114.300572","432880.91503","433647.220628","434414.271634","435181.224633","424464.240841","425230.775533","425997.682775","426764.073086","427531.477162","428297.396608","429064.734213","429831.474813","435190.88587"
"Mixed","both","ball","6","M_ball.wav","None","720.386511181","315","438297.822643","430580.620887","431347.53864","432114.300572","432880.91503","433647.220628","434414.271634","435181.224633","439047.62261","425230.775533","425997.682775","426764.073086","427531.477162","428297.396608","429064.734213","429831.474813","438307.443688"
"Mixed","both","ball","6","F_knife.wav","space","441.48503989","315","438297.822643","430580.620887","431347.53864","432114.300572","432880.91503","433647.220628","434414.271634","435181.224633","439047.62261","439814.046002","425997.682775","426764.073086","427531.477162","428297.396608","429064.734213","429831.474813","439057.120915"
"Mixed","both","ball","6","F_cling.wav","None","732.120111119","315","438297.822643","430580.620887","431347.53864","432114.300572","432880.91503","433647.220628","434414.271634","435181.224633","439047.62261","439814.046002","440580.705599","426764.073086","427531.477162","428297.396608","429064.734213","429831.474813","439823.926749"
"Mixed","both","ball","6","M_ball.wav","None","730.421224609","315","438297.822643","430580.620887","431347.53864","432114.300572","432880.91503","433647.220628","434414.271634","435181.224633","439047.62261","439814.046002","440580.705599","441347.167946","427531.477162","428297.396608","429064.734213","429831.474813","440590.428361"
"Mixed","both","ball","6","M_reek.wav","space","355.321672279","315","438297.822643","430580.620887","431347.53864","432114.300572","432880.91503","433647.220628","434414.271634","435181.224633","439047.62261","439814.046002","440580.705599","441347.167946","442114.005934","428297.396608","429064.734213","429831.474813","441351.22023"
"Mixed","both","ball","6","F_reek.wav","None","726.571755949","315","438297.822643","430580.620887","431347.53864","432114.300572","432880.91503","433647.220628","434414.271634","435181.224633","439047.62261","439814.046002","440580.705599","441347.167946","442114.005934","442880.64327","429064.734213","429831.474813","442123.060271"
"Mixed","both","ball","6","M_priest.wav","None","724.870705046","315","438297.822643","430580.620887","431347.53864","432114.300572","432880.91503","433647.220628","434414.271634","435181.224633","439047.62261","439814.046002","440580.705599","441347.167946","442114.005934","442880.64327","443647.616984","429831.474813","442890.045114"
"Mixed","both","ball","6","F_ball.wav","None","722.013051622","315","438297.822643","430580.620887","431347.53864","432114.300572","432880.91503","433647.220628","434414.271634","435181.224633","439047.62261","439814.046002","440580.705599","441347.167946","442114.005934","442880.64327","443647.616984","444414.25463","443657.676431"
"Mixed","both","ball","6","F_greet.wav","space","634.240148123","315","438297.822643","445163.6366","431347.53864","432114.300572","432880.91503","433647.220628","434414.271634","435181.224633","439047.62261","439814.046002","440580.705599","441347.167946","442114.005934","442880.64327","443647.616984","444414.25463","444424.199993"
"Mixed","both","ball","6","F_ball.wav","None","736.23855738","315","438297.822643","445163.6366","445930.537658","432114.300572","432880.91503","433647.220628","434414.271634","435181.224633","439047.62261","439814.046002","440580.705599","441347.167946","442114.005934","442880.64327","443647.616984","444414.25463","445172.893443"
"Mixed","both","ball","6","M_cling.wav","space","502.325881738","315","438297.822643","445163.6366","445930.537658","446697.051327","432880.91503","433647.220628","434414.271634","435181.224633","439047.62261","439814.046002","440580.705599","441347.167946","442114.005934","442880.64327","443647.616984","444414.25463","445940.07801"
"Mixed","both","ball","6","F_romp.wav","None","731.219500303","315","438297.822643","445163.6366","445930.537658","446697.051327","447463.458642","433647.220628","434414.271634","435181.224633","439047.62261","439814.046002","440580.705599","441347.167946","442114.005934","442880.64327","443647.616984","444414.25463","446706.570964"
"Mixed","both","ball","6","M_park.wav","None","729.9590162","315","438297.822643","445163.6366","445930.537658","446697.051327","447463.458642","448230.506556","434414.271634","435181.224633","439047.62261","439814.046002","440580.705599","441347.167946","442114.005934","442880.64327","443647.616984","444414.25463","447472.659216"
"Mixed","both","ball","6","F_dime.wav","None","727.347461972","315","438297.822643","445163.6366","445930.537658","446697.051327","447463.458642","448230.506556","448997.093189","435181.224633","439047.62261","439814.046002","440580.705599","441347.167946","442114.005934","442880.64327","443647.616984","444414.25463","448240.038869"
"Mixed","both","ball","6","M_jaw.wav","None","726.31700011","315","438297.822643","445163.6366","445930.537658","446697.051327","447463.458642","448230.506556","448997.093189","449763.715376","439047.62261","439814.046002","440580.705599","441347.167946","442114.005934","442880.64327","443647.616984","444414.25463","449006.484211"
"Mixed","both","ball","3","M_priest.wav","None","725.276026409","315","452897.435192","445163.6366","445930.537658","446697.051327","447463.458642","448230.506556","448997.093189","449763.715376","439047.62261","439814.046002","440580.705599","441347.167946","442114.005934","442880.64327","443647.616984","444414.25463","449772.770023"
"Mixed","both","ball","3","M_cling.wav","None","719.421902671","315","452897.435192","445163.6366","445930.537658","446697.051327","447463.458642","448230.506556","448997.093189","449763.715376","453646.812525","439814.046002","440580.705599","441347.167946","442114.005934","442880.64327","443647.616984","444414.25463","452907.655098"
"Mixed","both","ball","3","M_cling.wav","None","735.658555757","315","452897.435192","445163.6366","445930.537658","446697.051327","447463.458642","448230.506556","448997.093189","449763.715376","453646.812525","454413.176865","440580.705599","441347.167946","442114.005934","442880.64327","443647.616984","444414.25463","453656.259816"
"Mixed","both","ball","3","F_gnash.wav","None","734.437645413","315","452897.435192","445163.6366","445930.537658","446697.051327","447463.458642","448230.506556","448997.093189","449763.715376","453646.812525","454413.176865","455180.200973","441347.167946","442114.005934","442880.64327","443647.616984","444414.25463","454422.249752"
"Mixed","both","ball","3","M_ball.wav","None","732.432990335","315","452897.435192","445163.6366","445930.537658","446697.051327","447463.458642","448230.506556","448997.093189","449763.715376","453646.812525","454413.176865","455180.200973","455946.877265","442114.005934","442880.64327","443647.616984","444414.25463","455189.533872"
"Mixed","both","ball","3","F_jaw.wav","space","573.762271088","315","452897.435192","445163.6366","445930.537658","446697.051327","447463.458642","448230.506556","448997.093189","449763.715376","453646.812525","454413.176865","455180.200973","455946.877265","456713.611372","442880.64327","443647.616984","444414.25463","455956.309098"
"Mixed","both","ball","3","F_ball.wav","None","732.610453852","315","452897.435192","445163.6366","445930.537658","446697.051327","447463.458642","448230.506556","448997.093189","449763.715376","453646.812525","454413.176865","455180.200973","455946.877265","456713.611372","457480.399274","443647.616984","444414.25463","456718.101749"
"Mixed","both","ball","3","F_cling.wav","None","726.035346743","315","452897.435192","445163.6366","445930.537658","446697.051327","447463.458642","448230.506556","448997.093189","449763.715376","453646.812525","454413.176865","455180.200973","455946.877265","456713.611372","457480.399274","458246.669936","444414.25463","457489.518228"
"Mixed","both","ball","3","F_ball.wav","space","625.837540254","315","452897.435192","445163.6366","445930.537658","446697.051327","447463.458642","448230.506556","448997.093189","449763.715376","453646.812525","454413.176865","455180.200973","455946.877265","456713.611372","457480.399274","458246.669936","459013.813383","458256.176588"
"Mixed","both","ball","3","F_depth.wav","None","720.693207812","315","452897.435192","459780.494004","445930.537658","446697.051327","447463.458642","448230.506556","448997.093189","449763.715376","453646.812525","454413.176865","455180.200973","455946.877265","456713.611372","457480.399274","458246.669936","459013.813383","459023.599524"
"Mixed","both","ball","3","F_bluff.wav","space","67.6305126399","315","452897.435192","459780.494004","460530.076934","446697.051327","447463.458642","448230.506556","448997.093189","449763.715376","453646.812525","454413.176865","455180.200973","455946.877265","456713.611372","457480.399274","458246.669936","459013.813383","459790.365785"
"Mixed","both","ball","3","M_park.wav","None","733.419241384","315","452897.435192","459780.494004","460530.076934","461296.71829","447463.458642","448230.506556","448997.093189","449763.715376","453646.812525","454413.176865","455180.200973","455946.877265","456713.611372","457480.399274","458246.669936","459013.813383","460539.515878"
"Mixed","both","ball","3","F_priest.wav","None","731.931517832","315","452897.435192","459780.494004","460530.076934","461296.71829","462062.957725","448230.506556","448997.093189","449763.715376","453646.812525","454413.176865","455180.200973","455946.877265","456713.611372","457480.399274","458246.669936","459013.813383","461306.386019"
"Mixed","both","ball","3","M_cling.wav","None","731.065224856","315","452897.435192","459780.494004","460530.076934","461296.71829","462062.957725","462829.975341","448997.093189","449763.715376","453646.812525","454413.176865","455180.200973","455946.877265","456713.611372","457480.399274","458246.669936","459013.813383","462072.029067"
"Mixed","both","ball","3","M_ball.wav","None","728.517359123","315","452897.435192","459780.494004","460530.076934","461296.71829","462062.957725","462829.975341","463596.601238","449763.715376","453646.812525","454413.176865","455180.200973","455946.877265","456713.611372","457480.399274","458246.669936","459013.813383","462839.353378"
"Mixed","both","ball","3","M_romp.wav","space","457.133034244","315","452897.435192","459780.494004","460530.076934","461296.71829","462062.957725","462829.975341","463596.601238","464363.715933","453646.812525","454413.176865","455180.200973","455946.877265","456713.611372","457480.399274","458246.669936","459013.813383","463600.738853"
"Mixed","both","cave","18","M_depth.wav","None","722.662616987","315","467480.25551","459780.494004","460530.076934","461296.71829","462062.957725","462829.975341","463596.601238","464363.715933","453646.812525","454413.176865","455180.200973","455946.877265","456713.611372","457480.399274","458246.669936","459013.813383","464373.455389"
"Mixed","both","cave","18","M_bluff.wav","None","719.940379728","315","467480.25551","459780.494004","460530.076934","461296.71829","462062.957725","462829.975341","463596.601238","464363.715933","468230.770896","454413.176865","455180.200973","455946.877265","456713.611372","457480.399274","458246.669936","459013.813383","467490.003005"
"Mixed","both","cave","18","M_knife.wav","None","734.869864769","315","467480.25551","459780.494004","460530.076934","461296.71829","462062.957725","462829.975341","463596.601238","464363.715933","468230.770896","468996.327376","455180.200973","455946.877265","456713.611372","457480.399274","458246.669936","459013.813383","468240.361951"
"Mixed","both","cave","18","F_depth.wav","None","734.304393176","315","467480.25551","459780.494004","460530.076934","461296.71829","462062.957725","462829.975341","463596.601238","464363.715933","468230.770896","468996.327376","469763.161654","455946.877265","456713.611372","457480.399274","458246.669936","459013.813383","469005.858453"
"Mixed","both","cave","18","M_cave.wav","None","732.617564965","315","467480.25551","459780.494004","460530.076934","461296.71829","462062.957725","462829.975341","463596.601238","464363.715933","468230.770896","468996.327376","469763.161654","470529.436644","456713.611372","457480.399274","458246.669936","459013.813383","469772.808669"
"Mixed","both","cave","18","F_gnash.wav","space","487.119381316","315","467480.25551","459780.494004","460530.076934","461296.71829","462062.957725","462829.975341","463596.601238","464363.715933","468230.770896","468996.327376","469763.161654","470529.436644","471296.340485","457480.399274","458246.669936","459013.813383","470538.503966"
"Mixed","both","cave","18","F_knife.wav","None","727.833785117","315","467480.25551","459780.494004","460530.076934","461296.71829","462062.957725","462829.975341","463596.601238","464363.715933","468230.770896","468996.327376","469763.161654","470529.436644","471296.340485","472063.059751","458246.669936","459013.813383","471305.825495"
"Mixed","both","cave","18","M_jolt.wav","None","726.296286099","315","467480.25551","459780.494004","460530.076934","461296.71829","462062.957725","462829.975341","463596.601238","464363.715933","468230.770896","468996.327376","469763.161654","470529.436644","471296.340485","472063.059751","472829.695542","459013.813383","472072.461904"
"Mixed","both","cave","18","M_cave.wav","None","724.904713687","315","467480.25551","459780.494004","460530.076934","461296.71829","462062.957725","462829.975341","463596.601238","464363.715933","468230.770896","468996.327376","469763.161654","470529.436644","471296.340485","472063.059751","472829.695542","473596.582379","472839.136342"
