"Condition","Talker","Target","Trial","current_stimulus","response_response","response_time_response","subject_nr","time_Audio1","time_Audio10","time_Audio11","time_Audio12","time_Audio13","time_Audio14","time_Audio15","time_Audio16","time_Audio2","time_Audio3","time_Audio4","time_Audio5","time_Audio6","time_Audio7","time_Audio8","time_Audio9","time_response","title"
"Mixed","Female","ball","10","F_reek.wav","NA","NA","224","201038.929234","NA","NA","NA","NA","NA","NA","NA","NA","NA","NA","NA","NA","NA","NA","NA","NA","Mapping"
"Mixed","Female","ball","10","M_jaw.wav","space","0.034318305552","224","201038.929234","NA","NA","NA","NA","NA","NA","NA","201805.507488","NA","NA","NA","NA","NA","NA","NA","201054.331934","Mapping"
"Mixed","Female","ball","10","M_greet.wav","None","721.700835973","224","201038.929234","NA","NA","NA","NA","NA","NA","NA","201805.507488","202572.076775","NA","NA","NA","NA","NA","NA","201816.265478","Mapping"
"Mixed","Female","ball","10","F_ball.wav","None","721.832234529","224","201038.929234","NA","NA","NA","NA","NA","NA","NA","201805.507488","202572.076775","203338.621947","NA","NA","NA","NA","NA","202582.235588","Mapping"
"Mixed","Female","ball","10","M_tile.wav","space","408.176332596","224","201038.929234","NA","NA","NA","NA","NA","NA","NA","201805.507488","202572.076775","203338.621947","204105.364371","NA","NA","NA","NA","203348.240944","Mapping"
"Mixed","Female","ball","10","M_greet.wav","None","720.607599593","224","201038.929234","NA","NA","NA","NA","NA","NA","NA","201805.507488","202572.076775","203338.621947","204105.364371","204854.815666","NA","NA","NA","204115.742079","Mapping"
"Mixed","Female","ball","10","M_lash.wav","None","735.267355922","224","201038.929234","NA","NA","NA","NA","NA","NA","NA","201805.507488","202572.076775","203338.621947","204105.364371","204854.815666","205621.372587","NA","NA","204864.19629","Mapping"
"Mixed","Female","ball","10","F_reek.wav","None","734.216167126","224","201038.929234","NA","NA","NA","NA","NA","NA","NA","201805.507488","202572.076775","203338.621947","204105.364371","204854.815666","205621.372587","206388.255994","NA","205631.351461","Mapping"
"Mixed","Female","ball","10","F_ball.wav","None","730.70921551","224","201038.929234","NA","NA","NA","NA","NA","NA","NA","201805.507488","202572.076775","203338.621947","204105.364371","204854.815666","205621.372587","206388.255994","207154.746752","206398.060495","Mapping"
"Mixed","Female","ball","10","M_depth.wav","space","448.14840809","224","201038.929234","207921.376328","NA","NA","NA","NA","NA","NA","201805.507488","202572.076775","203338.621947","204105.364371","204854.815666","205621.372587","206388.255994","207154.746752","207164.212089","Mapping"
"Mixed","Female","ball","10","F_ball.wav","None","726.598757785","224","201038.929234","207921.376328","208688.674027","NA","NA","NA","NA","NA","201805.507488","202572.076775","203338.621947","204105.364371","204854.815666","205621.372587","206388.255994","207154.746752","207931.328304","Mapping"
"Mixed","Female","ball","10","F_priest.wav","space","569.872061023","224","201038.929234","207921.376328","208688.674027","209455.546923","NA","NA","NA","NA","201805.507488","202572.076775","203338.621947","204105.364371","204854.815666","205621.372587","206388.255994","207154.746752","208698.50759","Mapping"
"Mixed","Female","ball","10","F_ball.wav","None","721.487197326","224","201038.929234","207921.376328","208688.674027","209455.546923","210205.533087","NA","NA","NA","201805.507488","202572.076775","203338.621947","204105.364371","204854.815666","205621.372587","206388.255994","207154.746752","209465.848883","Mapping"
"Mixed","Female","ball","10","F_gnash.wav","space","357.43235366","224","201038.929234","207921.376328","208688.674027","209455.546923","210205.533087","210971.268535","NA","NA","201805.507488","202572.076775","203338.621947","204105.364371","204854.815666","205621.372587","206388.255994","207154.746752","210214.900726","Mapping"
"Mixed","Female","ball","10","M_priest.wav","None","735.792332096","224","201038.929234","207921.376328","208688.674027","209455.546923","210205.533087","210971.268535","211737.803813","NA","201805.507488","202572.076775","203338.621947","204105.364371","204854.815666","205621.372587","206388.255994","207154.746752","210980.868362","Mapping"
"Mixed","Female","ball","10","M_reek.wav","None","735.069794231","224","201038.929234","207921.376328","208688.674027","209455.546923","210205.533087","210971.268535","211737.803813","212504.708244","201805.507488","202572.076775","203338.621947","204105.364371","204854.815666","205621.372587","206388.255994","207154.746752","211747.741258","Mapping"
"Mixed","Female","tile","35","M_dime.wav","None","734.600469354","224","215655.202937","207921.376328","208688.674027","209455.546923","210205.533087","210971.268535","211737.803813","212504.708244","201805.507488","202572.076775","203338.621947","204105.364371","204854.815666","205621.372587","206388.255994","207154.746752","212514.395568","Mapping"
"Mixed","Female","tile","35","F_tile.wav","None","721.907054423","224","215655.202937","207921.376328","208688.674027","209455.546923","210205.533087","210971.268535","211737.803813","212504.708244","216421.574044","202572.076775","203338.621947","204105.364371","204854.815666","205621.372587","206388.255994","207154.746752","215665.30548","Mapping"
"Mixed","Female","tile","35","M_knife.wav","space","460.421038209","224","215655.202937","207921.376328","208688.674027","209455.546923","210205.533087","210971.268535","211737.803813","212504.708244","216421.574044","217188.408293","203338.621947","204105.364371","204854.815666","205621.372587","206388.255994","207154.746752","216431.805513","Mapping"
"Mixed","Female","tile","35","F_cling.wav","None","722.187474603","224","215655.202937","207921.376328","208688.674027","209455.546923","210205.533087","210971.268535","211737.803813","212504.708244","216421.574044","217188.408293","217955.565628","204105.364371","204854.815666","205621.372587","206388.255994","207154.746752","217198.42334","Mapping"
"Mixed","Female","tile","35","M_bluff.wav","None","722.712141462","224","215655.202937","207921.376328","208688.674027","209455.546923","210205.533087","210971.268535","211737.803813","212504.708244","216421.574044","217188.408293","217955.565628","218721.683522","204854.815666","205621.372587","206388.255994","207154.746752","217965.351578","Mapping"
"Mixed","Female","tile","35","M_bluff.wav","None","722.735329531","224","215655.202937","207921.376328","208688.674027","209455.546923","210205.533087","210971.268535","211737.803813","212504.708244","216421.574044","217188.408293","217955.565628","218721.683522","219488.152019","205621.372587","206388.255994","207154.746752","218731.78452","Mapping"
"Mixed","Female","tile","35","F_tile.wav","None","719.604332582","224","215655.202937","207921.376328","208688.674027","209455.546923","210205.533087","210971.268535","211737.803813","212504.708244","216421.574044","217188.408293","217955.565628","218721.683522","219488.152019","220238.071712","206388.255994","207154.746752","219498.17696","Mapping"
"Mixed","Female","tile","35","F_bluff.wav","space","604.211000842","224","215655.202937","207921.376328","208688.674027","209455.546923","210205.533087","210971.268535","211737.803813","212504.708244","216421.574044","217188.408293","217955.565628","218721.683522","219488.152019","220238.071712","221004.687993","207154.746752","220247.928771","Mapping"
"Mixed","Female","tile","35","F_done.wav","None","733.223411953","224","215655.202937","207921.376328","208688.674027","209455.546923","210205.533087","210971.268535","211737.803813","212504.708244","216421.574044","217188.408293","217955.565628","218721.683522","219488.152019","220238.071712","221004.687993","221771.181842","221014.165388","Mapping"
"Mixed","Female","tile","35","F_tile.wav","None","732.727188966","224","215655.202937","222538.026294","208688.674027","209455.546923","210205.533087","210971.268535","211737.803813","212504.708244","216421.574044","217188.408293","217955.565628","218721.683522","219488.152019","220238.071712","221004.687993","221771.181842","221780.924817","Mapping"
"Mixed","Female","tile","35","F_bluff.wav","space","567.713413737","224","215655.202937","222538.026294","223304.717705","209455.546923","210205.533087","210971.268535","211737.803813","212504.708244","216421.574044","217188.408293","217955.565628","218721.683522","219488.152019","220238.071712","221004.687993","221771.181842","222548.39318","Mapping"
"Mixed","Female","tile","35","M_gnash.wav","None","726.133452146","224","215655.202937","222538.026294","223304.717705","224071.159613","210205.533087","210971.268535","211737.803813","212504.708244","216421.574044","217188.408293","217955.565628","218721.683522","219488.152019","220238.071712","221004.687993","221771.181842","223313.981461","Mapping"
"Mixed","Female","tile","35","M_gnash.wav","None","725.692571141","224","215655.202937","222538.026294","223304.717705","224071.159613","224838.316948","210971.268535","211737.803813","212504.708244","216421.574044","217188.408293","217955.565628","218721.683522","219488.152019","220238.071712","221004.687993","221771.181842","224080.850647","Mapping"
"Mixed","Female","tile","35","M_gnash.wav","None","721.718149609","224","215655.202937","222538.026294","223304.717705","224071.159613","224838.316948","225605.025363","211737.803813","212504.708244","216421.574044","217188.408293","217955.565628","218721.683522","219488.152019","220238.071712","221004.687993","221771.181842","224848.257794","Mapping"
"Mixed","Female","tile","35","F_tile.wav","None","718.407213804","224","215655.202937","222538.026294","223304.717705","224071.159613","224838.316948","225605.025363","226354.628462","212504.708244","216421.574044","217188.408293","217955.565628","218721.683522","219488.152019","220238.071712","221004.687993","221771.181842","225615.495513","Mapping"
"Mixed","Female","tile","35","M_knife.wav","space","695.999577059","224","215655.202937","222538.026294","223304.717705","224071.159613","224838.316948","225605.025363","226354.628462","227120.977","216421.574044","217188.408293","217955.565628","218721.683522","219488.152019","220238.071712","221004.687993","221771.181842","226364.033201","Mapping"
"Mixed","Female","ball","9","M_jolt.wav","None","730.238963035","224","230254.8323","222538.026294","223304.717705","224071.159613","224838.316948","225605.025363","226354.628462","227120.977","216421.574044","217188.408293","217955.565628","218721.683522","219488.152019","220238.071712","221004.687993","221771.181842","227130.130381","Mapping"
"Mixed","Female","ball","9","F_ball.wav","None","722.253637738","224","230254.8323","222538.026294","223304.717705","224071.159613","224838.316948","225605.025363","226354.628462","227120.977","231021.43405","217188.408293","217955.565628","218721.683522","219488.152019","220238.071712","221004.687993","221771.181842","230264.632472","Mapping"
"Mixed","Female","ball","9","M_romp.wav","space","420.076718205","224","230254.8323","222538.026294","223304.717705","224071.159613","224838.316948","225605.025363","226354.628462","227120.977","231021.43405","231770.87978","217955.565628","218721.683522","219488.152019","220238.071712","221004.687993","221771.181842","231031.8671","Mapping"
"Mixed","Female","ball","9","M_jaw.wav","None","735.935479286","224","230254.8323","222538.026294","223304.717705","224071.159613","224838.316948","225605.025363","226354.628462","227120.977","231021.43405","231770.87978","232537.603345","218721.683522","219488.152019","220238.071712","221004.687993","221771.181842","231780.252675","Mapping"
"Mixed","Female","ball","9","F_ball.wav","None","732.425435912","224","230254.8323","222538.026294","223304.717705","224071.159613","224838.316948","225605.025363","226354.628462","227120.977","231021.43405","231770.87978","232537.603345","233304.139242","219488.152019","220238.071712","221004.687993","221771.181842","232547.078267","Mapping"
"Mixed","Female","ball","9","F_priest.wav","space","370.55397348","224","230254.8323","222538.026294","223304.717705","224071.159613","224838.316948","225605.025363","226354.628462","227120.977","231021.43405","231770.87978","232537.603345","233304.139242","234070.926187","220238.071712","221004.687993","221771.181842","233313.326323","Mapping"
"Mixed","Female","ball","9","F_ball.wav","None","725.692571141","224","230254.8323","222538.026294","223304.717705","224071.159613","224838.316948","225605.025363","226354.628462","227120.977","231021.43405","231770.87978","232537.603345","233304.139242","234070.926187","234838.114748","221004.687993","221771.181842","234080.279295","Mapping"
"Mixed","Female","ball","9","F_cave.wav","space","475.854345947","224","230254.8323","222538.026294","223304.717705","224071.159613","224838.316948","225605.025363","226354.628462","227120.977","231021.43405","231770.87978","232537.603345","233304.139242","234070.926187","234838.114748","235604.882216","221771.181842","234848.00489","Mapping"
"Mixed","Female","ball","9","F_ball.wav","None","720.242465963","224","230254.8323","222538.026294","223304.717705","224071.159613","224838.316948","225605.025363","226354.628462","227120.977","231021.43405","231770.87978","232537.603345","233304.139242","234070.926187","234838.114748","235604.882216","236354.266729","235615.472944","Mapping"
"Mixed","Female","ball","9","M_gnash.wav","space","456.044073333","224","230254.8323","237120.876518","223304.717705","224071.159613","224838.316948","225605.025363","226354.628462","227120.977","231021.43405","231770.87978","232537.603345","233304.139242","234070.926187","234838.114748","235604.882216","236354.266729","236363.801631","Mapping"
"Mixed","Female","ball","9","M_cling.wav","None","731.499462156","224","230254.8323","237120.876518","237887.698709","224071.159613","224838.316948","225605.025363","226354.628462","227120.977","231021.43405","231770.87978","232537.603345","233304.139242","234070.926187","234838.114748","235604.882216","236354.266729","237130.646082","Mapping"
"Mixed","Female","ball","9","M_park.wav","None","731.00540333","224","230254.8323","237120.876518","237887.698709","238654.415473","224838.316948","225605.025363","226354.628462","227120.977","231021.43405","231770.87978","232537.603345","233304.139242","234070.926187","234838.114748","235604.882216","236354.266729","237897.422825","Mapping"
"Mixed","Female","ball","9","M_jaw.wav","None","730.866893893","224","230254.8323","237120.876518","237887.698709","238654.415473","239420.831719","225605.025363","226354.628462","227120.977","231021.43405","231770.87978","232537.603345","233304.139242","234070.926187","234838.114748","235604.882216","236354.266729","238663.88823","Mapping"
"Mixed","Female","ball","9","F_priest.wav","None","727.566160727","224","230254.8323","237120.876518","237887.698709","238654.415473","239420.831719","240187.699359","226354.628462","227120.977","231021.43405","231770.87978","232537.603345","233304.139242","234070.926187","234838.114748","235604.882216","236354.266729","239430.520898","Mapping"
"Mixed","Female","ball","9","M_tile.wav","None","724.083015462","224","230254.8323","237120.876518","237887.698709","238654.415473","239420.831719","240187.699359","240954.954392","227120.977","231021.43405","231770.87978","232537.603345","233304.139242","234070.926187","234838.114748","235604.882216","236354.266729","240197.598775","Mapping"
"Mixed","Female","ball","9","F_depth.wav","None","719.897119561","224","230254.8323","237120.876518","237887.698709","238654.415473","239420.831719","240187.699359","240954.954392","241721.412068","231021.43405","231770.87978","232537.603345","233304.139242","234070.926187","234838.114748","235604.882216","236354.266729","240965.119389","Mapping"
"Mixed","Female","tile","34","M_jolt.wav","None","719.99481821","224","244837.964181","237120.876518","237887.698709","238654.415473","239420.831719","240187.699359","240954.954392","241721.412068","231021.43405","231770.87978","232537.603345","233304.139242","234070.926187","234838.114748","235604.882216","236354.266729","241731.366518","Mapping"
"Mixed","Female","tile","34","M_gnash.wav","None","719.818589627","224","244837.964181","237120.876518","237887.698709","238654.415473","239420.831719","240187.699359","240954.954392","241721.412068","245586.913069","231770.87978","232537.603345","233304.139242","234070.926187","234838.114748","235604.882216","236354.266729","244848.002416","Mapping"
"Mixed","Female","tile","34","F_dime.wav","None","734.52163022","224","244837.964181","237120.876518","237887.698709","238654.415473","239420.831719","240187.699359","240954.954392","241721.412068","245586.913069","246353.8849","232537.603345","233304.139242","234070.926187","234838.114748","235604.882216","236354.266729","245596.707986","Mapping"
"Mixed","Female","tile","34","M_done.wav","None","734.749490861","224","244837.964181","237120.876518","237887.698709","238654.415473","239420.831719","240187.699359","240954.954392","241721.412068","245586.913069","246353.8849","247120.53921","233304.139242","234070.926187","234838.114748","235604.882216","236354.266729","246363.408981","Mapping"
"Mixed","Female","tile","34","F_tile.wav","None","732.561781304","224","244837.964181","237120.876518","237887.698709","238654.415473","239420.831719","240187.699359","240954.954392","241721.412068","245586.913069","246353.8849","247120.53921","247887.519389","234070.926187","234838.114748","235604.882216","236354.266729","247132.089303","Mapping"
"Mixed","Female","tile","34","F_greet.wav","space","594.85140047","224","244837.964181","237120.876518","237887.698709","238654.415473","239420.831719","240187.699359","240954.954392","241721.412068","245586.913069","246353.8849","247120.53921","247887.519389","248654.220693","234838.114748","235604.882216","236354.266729","247896.817773","Mapping"
"Mixed","Female","tile","34","F_tile.wav","None","730.472697993","224","244837.964181","237120.876518","237887.698709","238654.415473","239420.831719","240187.699359","240954.954392","241721.412068","245586.913069","246353.8849","247120.53921","247887.519389","248654.220693","249420.605714","235604.882216","236354.266729","248663.649548","Mapping"
"Mixed","Female","tile","34","F_priest.wav","space","579.920808435","224","244837.964181","237120.876518","237887.698709","238654.415473","239420.831719","240187.699359","240954.954392","241721.412068","245586.913069","246353.8849","247120.53921","247887.519389","248654.220693","249420.605714","250187.93062","236354.266729","249439.676135","Mapping"
"Mixed","Female","tile","34","M_done.wav","None","722.458928707","224","244837.964181","237120.876518","237887.698709","238654.415473","239420.831719","240187.699359","240954.954392","241721.412068","245586.913069","246353.8849","247120.53921","247887.519389","248654.220693","249420.605714","250187.93062","250954.730242","250198.336463","Mapping"
"Mixed","Female","tile","34","F_tile.wav","None","717.811127892","224","244837.964181","251704.035916","237887.698709","238654.415473","239420.831719","240187.699359","240954.954392","241721.412068","245586.913069","246353.8849","247120.53921","247887.519389","248654.220693","249420.605714","250187.93062","250954.730242","250966.544368","Mapping"
"Mixed","Female","tile","34","M_gnash.wav","space","559.5119762","224","244837.964181","251704.035916","252470.462365","238654.415473","239420.831719","240187.699359","240954.954392","241721.412068","245586.913069","246353.8849","247120.53921","247887.519389","248654.220693","249420.605714","250187.93062","250954.730242","251724.066629","Mapping"
"Mixed","Female","tile","34","M_reek.wav","None","731.188124744","224","244837.964181","251704.035916","252470.462365","253237.448109","239420.831719","240187.699359","240954.954392","241721.412068","245586.913069","246353.8849","247120.53921","247887.519389","248654.220693","249420.605714","250187.93062","250954.730242","252479.873907","Mapping"
"Mixed","Female","tile","34","F_dime.wav","None","726.840531337","224","244837.964181","251704.035916","252470.462365","253237.448109","254004.117569","240187.699359","240954.954392","241721.412068","245586.913069","246353.8849","247120.53921","247887.519389","248654.220693","249420.605714","250187.93062","250954.730242","253247.694727","Mapping"
"Mixed","Female","tile","34","M_knife.wav","None","724.89335842","224","244837.964181","251704.035916","252470.462365","253237.448109","254004.117569","254771.090327","240954.954392","241721.412068","245586.913069","246353.8849","247120.53921","247887.519389","248654.220693","249420.605714","250187.93062","250954.730242","254013.545187","Mapping"
"Mixed","Female","tile","34","F_tile.wav","None","721.235839534","224","244837.964181","251704.035916","252470.462365","253237.448109","254004.117569","254771.090327","255520.182054","241721.412068","245586.913069","246353.8849","247120.53921","247887.519389","248654.220693","249420.605714","250187.93062","250954.730242","254780.793419","Mapping"
"Mixed","Female","tile","34","M_done.wav","space","425.39202387","224","244837.964181","251704.035916","252470.462365","253237.448109","254004.117569","254771.090327","255520.182054","256287.367214","245586.913069","246353.8849","247120.53921","247887.519389","248654.220693","249420.605714","250187.93062","250954.730242","255530.129083","Mapping"
"Mixed","Female","cave","23","F_done.wav","None","731.535635539","224","259420.515744","251704.035916","252470.462365","253237.448109","254004.117569","254771.090327","255520.182054","256287.367214","245586.913069","246353.8849","247120.53921","247887.519389","248654.220693","249420.605714","250187.93062","250954.730242","256297.208506","Mapping"
"Mixed","Female","cave","23","F_knife.wav","None","720.09900969","224","259420.515744","251704.035916","252470.462365","253237.448109","254004.117569","254771.090327","255520.182054","256287.367214","260187.726875","246353.8849","247120.53921","247887.519389","248654.220693","249420.605714","250187.93062","250954.730242","259430.367239","Mapping"
"Mixed","Female","cave","23","F_cave.wav","None","719.755827333","224","259420.515744","251704.035916","252470.462365","253237.448109","254004.117569","254771.090327","255520.182054","256287.367214","260187.726875","260937.2567","247120.53921","247887.519389","248654.220693","249420.605714","250187.93062","250954.730242","260197.960817","Mapping"
"Mixed","Female","cave","23","M_reek.wav","space","520.051273284","224","259420.515744","251704.035916","252470.462365","253237.448109","254004.117569","254771.090327","255520.182054","256287.367214","260187.726875","260937.2567","261703.976246","247887.519389","248654.220693","249420.605714","250187.93062","250954.730242","260947.317196","Mapping"
"Mixed","Female","cave","23","M_romp.wav","None","730.558648123","224","259420.515744","251704.035916","252470.462365","253237.448109","254004.117569","254771.090327","255520.182054","256287.367214","260187.726875","260937.2567","261703.976246","262470.483698","248654.220693","249420.605714","250187.93062","250954.730242","261713.517021","Mapping"
"Mixed","Female","cave","23","M_cad.wav","None","727.423631935","224","259420.515744","251704.035916","252470.462365","253237.448109","254004.117569","254771.090327","255520.182054","256287.367214","260187.726875","260937.2567","261703.976246","262470.483698","263237.270644","249420.605714","250187.93062","250954.730242","262480.045498","Mapping"
"Mixed","Female","cave","23","F_ball.wav","None","727.226997726","224","259420.515744","251704.035916","252470.462365","253237.448109","254004.117569","254771.090327","255520.182054","256287.367214","260187.726875","260937.2567","261703.976246","262470.483698","263237.270644","264003.57126","250187.93062","250954.730242","263246.621896","Mapping"
"Mixed","Female","cave","23","M_done.wav","None","724.97683519","224","259420.515744","251704.035916","252470.462365","253237.448109","254004.117569","254771.090327","255520.182054","256287.367214","260187.726875","260937.2567","261703.976246","262470.483698","263237.270644","264003.57126","264770.958001","250954.730242","264012.795442","Mapping"
"Mixed","Female","cave","23","F_cling.wav","None","720.76404118","224","259420.515744","251704.035916","252470.462365","253237.448109","254004.117569","254771.090327","255520.182054","256287.367214","260187.726875","260937.2567","261703.976246","262470.483698","263237.270644","264003.57126","264770.958001","265520.166904","264780.53866","Mapping"
"Mixed","Female","cave","23","F_cave.wav","None","734.719191911","224","259420.515744","266286.984767","252470.462365","253237.448109","254004.117569","254771.090327","255520.182054","256287.367214","260187.726875","260937.2567","261703.976246","262470.483698","263237.270644","264003.57126","264770.958001","265520.166904","265529.958728","Mapping"
"Mixed","Female","cave","23","M_tile.wav","space","499.037389178","224","259420.515744","266286.984767","267053.972056","253237.448109","254004.117569","254771.090327","255520.182054","256287.367214","260187.726875","260937.2567","261703.976246","262470.483698","263237.270644","264003.57126","264770.958001","265520.166904","266296.263054","Mapping"
"Mixed","Female","cave","23","M_cling.wav","None","732.88857739","224","259420.515744","266286.984767","267053.972056","267820.377173","254004.117569","254771.090327","255520.182054","256287.367214","260187.726875","260937.2567","261703.976246","262470.483698","263237.270644","264003.57126","264770.958001","265520.166904","267058.450121","Mapping"
"Mixed","Female","cave","23","F_cave.wav","None","724.603972398","224","259420.515744","266286.984767","267053.972056","267820.377173","268586.836395","254771.090327","255520.182054","256287.367214","260187.726875","260937.2567","261703.976246","262470.483698","263237.270644","264003.57126","264770.958001","265520.166904","267830.156939","Mapping"
"Mixed","Female","cave","23","M_bluff.wav","space","494.098347379","224","259420.515744","266286.984767","267053.972056","267820.377173","268586.836395","269336.913456","255520.182054","256287.367214","260187.726875","260937.2567","261703.976246","262470.483698","263237.270644","264003.57126","264770.958001","265520.166904","268597.180093","Mapping"
"Mixed","Female","cave","23","F_cave.wav","None","734.421148896","224","259420.515744","266286.984767","267053.972056","267820.377173","268586.836395","269336.913456","270103.89889","256287.367214","260187.726875","260937.2567","261703.976246","262470.483698","263237.270644","264003.57126","264770.958001","265520.166904","269346.753511","Mapping"
"Mixed","Female","cave","23","M_priest.wav","space","561.876223772","224","259420.515744","266286.984767","267053.972056","267820.377173","268586.836395","269336.913456","270103.89889","270870.294732","260187.726875","260937.2567","261703.976246","262470.483698","263237.270644","264003.57126","264770.958001","265520.166904","270113.392054","Mapping"
"Mixed","Male","tile","28","F_gnash.wav","None","727.21092077","224","274004.043985","266286.984767","267053.972056","267820.377173","268586.836395","269336.913456","270103.89889","270870.294732","260187.726875","260937.2567","261703.976246","262470.483698","263237.270644","264003.57126","264770.958001","265520.166904","270880.257529","Mapping"
"Mixed","Male","tile","28","M_depth.wav","None","718.78626023","224","274004.043985","266286.984767","267053.972056","267820.377173","268586.836395","269336.913456","270103.89889","270870.294732","274753.745711","260937.2567","261703.976246","262470.483698","263237.270644","264003.57126","264770.958001","265520.166904","274014.355839","Mapping"
"Mixed","Male","tile","28","F_jaw.wav","None","733.621936175","224","274004.043985","266286.984767","267053.972056","267820.377173","268586.836395","269336.913456","270103.89889","270870.294732","274753.745711","275520.182981","261703.976246","262470.483698","263237.270644","264003.57126","264770.958001","265520.166904","274763.151068","Mapping"
"Mixed","Male","tile","28","M_ball.wav","None","733.587617986","224","274004.043985","266286.984767","267053.972056","267820.377173","268586.836395","269336.913456","270103.89889","270870.294732","274753.745711","275520.182981","276287.001462","262470.483698","263237.270644","264003.57126","264770.958001","265520.166904","275529.893493","Mapping"
"Mixed","Male","tile","28","M_tile.wav","None","733.334714314","224","274004.043985","266286.984767","267053.972056","267820.377173","268586.836395","269336.913456","270103.89889","270870.294732","274753.745711","275520.182981","276287.001462","277053.717916","263237.270644","264003.57126","264770.958001","265520.166904","276296.870271","Mapping"
"Mixed","Male","tile","28","F_park.wav","space","492.073881323","224","274004.043985","266286.984767","267053.972056","267820.377173","268586.836395","269336.913456","270103.89889","270870.294732","274753.745711","275520.182981","276287.001462","277053.717916","277820.185794","264003.57126","264770.958001","265520.166904","277063.050927","Mapping"
"Mixed","Male","tile","28","F_priest.wav","None","730.184239335","224","274004.043985","266286.984767","267053.972056","267820.377173","268586.836395","269336.913456","270103.89889","270870.294732","274753.745711","275520.182981","276287.001462","277053.717916","277820.185794","278586.510526","264770.958001","265520.166904","277829.828597","Mapping"
"Mixed","Male","tile","28","F_reek.wav","None","726.889998885","224","274004.043985","266286.984767","267053.972056","267820.377173","268586.836395","269336.913456","270103.89889","270870.294732","274753.745711","275520.182981","276287.001462","277053.717916","277820.185794","278586.510526","279354.113379","265520.166904","278596.70644","Mapping"
"Mixed","Male","tile","28","M_tile.wav","None","722.626191447","224","274004.043985","266286.984767","267053.972056","267820.377173","268586.836395","269336.913456","270103.89889","270870.294732","274753.745711","275520.182981","276287.001462","277053.717916","277820.185794","278586.510526","279354.113379","280120.623306","279364.602389","Mapping"
"Mixed","Male","tile","28","F_depth.wav","space","456.989524886","224","274004.043985","280870.001636","267053.972056","267820.377173","268586.836395","269336.913456","270103.89889","270870.294732","274753.745711","275520.182981","276287.001462","277053.717916","277820.185794","278586.510526","279354.113379","280120.623306","280130.083696","Mapping"
"Mixed","Male","tile","28","F_lash.wav","None","734.405999421","224","274004.043985","280870.001636","281636.789199","267820.377173","268586.836395","269336.913456","270103.89889","270870.294732","274753.745711","275520.182981","276287.001462","277053.717916","277820.185794","278586.510526","279354.113379","280120.623306","280879.649076","Mapping"
"Mixed","Male","tile","28","M_tile.wav","None","734.428878292","224","274004.043985","280870.001636","281636.789199","282403.647873","268586.836395","269336.913456","270103.89889","270870.294732","274753.745711","275520.182981","276287.001462","277053.717916","277820.185794","278586.510526","279354.113379","280120.623306","281646.482707","Mapping"
"Mixed","Male","tile","28","M_cave.wav","space","634.979917668","224","274004.043985","280870.001636","281636.789199","282403.647873","283170.105239","269336.913456","270103.89889","270870.294732","274753.745711","275520.182981","276287.001462","277053.717916","277820.185794","278586.510526","279354.113379","280120.623306","282408.036895","Mapping"
"Mixed","Male","tile","28","M_tile.wav","None","730.7914556","224","274004.043985","280870.001636","281636.789199","282403.647873","283170.105239","283936.870543","270103.89889","270870.294732","274753.745711","275520.182981","276287.001462","277053.717916","277820.185794","278586.510526","279354.113379","280120.623306","283179.775868","Mapping"
"Mixed","Male","tile","28","F_lash.wav","None","728.115561535","224","274004.043985","280870.001636","281636.789199","282403.647873","283170.105239","283936.870543","284703.512795","270870.294732","274753.745711","275520.182981","276287.001462","277053.717916","277820.185794","278586.510526","279354.113379","280120.623306","283946.250858","Mapping"
"Mixed","Male","tile","28","M_priest.wav","space","0.035245786421","224","274004.043985","280870.001636","281636.789199","282403.647873","283170.105239","283936.870543","284703.512795","285470.548316","274753.745711","275520.182981","276287.001462","277053.717916","277820.185794","278586.510526","279354.113379","280120.623306","284713.014615","Mapping"
"Mixed","Male","cave","16","M_romp.wav","None","720.450230408","224","288586.470024","280870.001636","281636.789199","282403.647873","283170.105239","283936.870543","284703.512795","285470.548316","274753.745711","275520.182981","276287.001462","277053.717916","277820.185794","278586.510526","279354.113379","280120.623306","285481.055876","Mapping"
"Mixed","Male","cave","16","F_gnash.wav","None","720.464143087","224","288586.470024","280870.001636","281636.789199","282403.647873","283170.105239","283936.870543","284703.512795","285470.548316","289336.641693","275520.182981","276287.001462","277053.717916","277820.185794","278586.510526","279354.113379","280120.623306","288596.234023","Mapping"
"Mixed","Male","cave","16","M_jolt.wav","None","733.929563547","224","288586.470024","280870.001636","281636.789199","282403.647873","283170.105239","283936.870543","284703.512795","285470.548316","289336.641693","290102.847083","276287.001462","277053.717916","277820.185794","278586.510526","279354.113379","280120.623306","289346.553476","Mapping"
"Mixed","Male","cave","16","M_cave.wav","None","734.570170403","224","288586.470024","280870.001636","281636.789199","282403.647873","283170.105239","283936.870543","284703.512795","285470.548316","289336.641693","290102.847083","290869.783978","277053.717916","277820.185794","278586.510526","279354.113379","280120.623306","290111.996446","Mapping"
"Mixed","Male","cave","16","F_jaw.wav","space","539.941003663","224","288586.470024","280870.001636","281636.789199","282403.647873","283170.105239","283936.870543","284703.512795","285470.548316","289336.641693","290102.847083","290869.783978","291636.80373","277820.185794","278586.510526","279354.113379","280120.623306","290878.918809","Mapping"
"Mixed","Male","cave","16","M_cave.wav","None","727.152796229","224","288586.470024","280870.001636","281636.789199","282403.647873","283170.105239","283936.870543","284703.512795","285470.548316","289336.641693","290102.847083","290869.783978","291636.80373","292403.832758","278586.510526","279354.113379","280120.623306","291646.228257","Mapping"
"Mixed","Male","cave","16","F_dime.wav","space","499.878340284","224","288586.470024","280870.001636","281636.789199","282403.647873","283170.105239","283936.870543","284703.512795","285470.548316","289336.641693","290102.847083","290869.783978","291636.80373","292403.832758","293170.421833","279354.113379","280120.623306","292414.973196","Mapping"
"Mixed","Male","cave","16","M_cave.wav","None","719.077501446","224","288586.470024","280870.001636","281636.789199","282403.647873","283170.105239","283936.870543","284703.512795","285470.548316","289336.641693","290102.847083","290869.783978","291636.80373","292403.832758","293170.421833","293919.853341","280120.623306","293180.852718","Mapping"
"Mixed","Male","cave","16","F_lash.wav","space","377.55056296","224","288586.470024","280870.001636","281636.789199","282403.647873","283170.105239","283936.870543","284703.512795","285470.548316","289336.641693","290102.847083","290869.783978","291636.80373","292403.832758","293170.421833","293919.853341","294686.700884","293929.27694","Mapping"
"Mixed","Male","cave","16","F_jolt.wav","None","730.213920004","224","288586.470024","295452.915859","281636.789199","282403.647873","283170.105239","283936.870543","284703.512795","285470.548316","289336.641693","290102.847083","290869.783978","291636.80373","292403.832758","293170.421833","293919.853341","294686.700884","294696.295147","Mapping"
"Mixed","Male","cave","16","M_cave.wav","None","730.520619778","224","288586.470024","295452.915859","296219.88027","282403.647873","283170.105239","283936.870543","284703.512795","285470.548316","289336.641693","290102.847083","290869.783978","291636.80373","292403.832758","293170.421833","293919.853341","294686.700884","295462.720669","Mapping"
"Mixed","Male","cave","16","F_cad.wav","space","574.9830032","224","288586.470024","295452.915859","296219.88027","296986.753474","283170.105239","283936.870543","284703.512795","285470.548316","289336.641693","290102.847083","290869.783978","291636.80373","292403.832758","293170.421833","293919.853341","294686.700884","296243.801928","Mapping"
"Mixed","Male","cave","16","F_greet.wav","None","724.411975709","224","288586.470024","295452.915859","296219.88027","296986.753474","297753.642756","283936.870543","284703.512795","285470.548316","289336.641693","290102.847083","290869.783978","291636.80373","292403.832758","293170.421833","293919.853341","294686.700884","296998.56018","Mapping"
"Mixed","Male","cave","16","M_park.wav","None","722.707503941","224","288586.470024","295452.915859","296219.88027","296986.753474","297753.642756","298520.287172","284703.512795","285470.548316","289336.641693","290102.847083","290869.783978","291636.80373","292403.832758","293170.421833","293919.853341","294686.700884","297763.867423","Mapping"
"Mixed","Male","cave","16","M_knife.wav","None","719.573724433","224","288586.470024","295452.915859","296219.88027","296986.753474","297753.642756","298520.287172","299269.717444","285470.548316","289336.641693","290102.847083","290869.783978","291636.80373","292403.832758","293170.421833","293919.853341","294686.700884","298530.799061","Mapping"
"Mixed","Male","cave","16","F_romp.wav","None","734.922937001","224","288586.470024","295452.915859","296219.88027","296986.753474","297753.642756","298520.287172","299269.717444","300036.314866","289336.641693","290102.847083","290869.783978","291636.80373","292403.832758","293170.421833","293919.853341","294686.700884","299279.178453","Mapping"
"Mixed","Male","ball","4","F_bluff.wav","None","734.559040284","224","303170.383186","295452.915859","296219.88027","296986.753474","297753.642756","298520.287172","299269.717444","300036.314866","289336.641693","290102.847083","290869.783978","291636.80373","292403.832758","293170.421833","293919.853341","294686.700884","300046.436887","Mapping"
"Mixed","Male","ball","4","F_depth.wav","None","719.581453712","224","303170.383186","295452.915859","296219.88027","296986.753474","297753.642756","298520.287172","299269.717444","300036.314866","303919.616823","290102.847083","290869.783978","291636.80373","292403.832758","293170.421833","293919.853341","294686.700884","303180.272709","Mapping"
"Mixed","Male","ball","4","M_reek.wav","None","734.440626926","224","303170.383186","295452.915859","296219.88027","296986.753474","297753.642756","298520.287172","299269.717444","300036.314866","303919.616823","304686.652344","290869.783978","291636.80373","292403.832758","293170.421833","293919.853341","294686.700884","303929.224999","Mapping"
"Mixed","Male","ball","4","M_ball.wav","None","731.094445335","224","303170.383186","295452.915859","296219.88027","296986.753474","297753.642756","298520.287172","299269.717444","300036.314866","303919.616823","304686.652344","305453.177728","291636.80373","292403.832758","293170.421833","293919.853341","294686.700884","304696.201776","Mapping"
"Mixed","Male","ball","4","F_depth.wav","space","467.395985615","224","303170.383186","295452.915859","296219.88027","296986.753474","297753.642756","298520.287172","299269.717444","300036.314866","303919.616823","304686.652344","305453.177728","306219.741142","292403.832758","293170.421833","293919.853341","294686.700884","305463.207925","Mapping"
"Mixed","Male","ball","4","M_ball.wav","None","724.887174903","224","303170.383186","295452.915859","296219.88027","296986.753474","297753.642756","298520.287172","299269.717444","300036.314866","303919.616823","304686.652344","305453.177728","306219.741142","306986.958147","293170.421833","293919.853341","294686.700884","306229.335714","Mapping"
"Mixed","Male","ball","4","M_cling.wav","space","509.40272992","224","303170.383186","295452.915859","296219.88027","296986.753474","297753.642756","298520.287172","299269.717444","300036.314866","303919.616823","304686.652344","305453.177728","306219.741142","306986.958147","307736.201368","293919.853341","294686.700884","306997.140457","Mapping"
"Mixed","Male","ball","4","M_ball.wav","None","734.943960793","224","303170.383186","295452.915859","296219.88027","296986.753474","297753.642756","298520.287172","299269.717444","300036.314866","303919.616823","304686.652344","305453.177728","306219.741142","306986.958147","307736.201368","308503.145992","294686.700884","307746.191682","Mapping"
"Mixed","Male","ball","4","F_jaw.wav","space","473.587488174","224","303170.383186","295452.915859","296219.88027","296986.753474","297753.642756","298520.287172","299269.717444","300036.314866","303919.616823","304686.652344","305453.177728","306219.741142","306986.958147","307736.201368","308503.145992","309269.64015","308512.950802","Mapping"
"Mixed","Male","ball","4","F_priest.wav","None","728.82109473","224","303170.383186","310036.426477","296219.88027","296986.753474","297753.642756","298520.287172","299269.717444","300036.314866","303919.616823","304686.652344","305453.177728","306219.741142","306986.958147","307736.201368","308503.145992","309269.64015","309279.116309","Mapping"
"Mixed","Male","ball","4","M_reek.wav","None","726.000198512","224","303170.383186","310036.426477","310803.368009","296986.753474","297753.642756","298520.287172","299269.717444","300036.314866","303919.616823","304686.652344","305453.177728","306219.741142","306986.958147","307736.201368","308503.145992","309269.64015","310045.771856","Mapping"
"Mixed","Male","ball","4","F_depth.wav","None","721.915711416","224","303170.383186","310036.426477","310803.368009","311570.084772","297753.642756","298520.287172","299269.717444","300036.314866","303919.616823","304686.652344","305453.177728","306219.741142","306986.958147","307736.201368","308503.145992","309269.64015","310813.898757","Mapping"
"Mixed","Male","ball","4","F_romp.wav","None","719.167780015","224","303170.383186","310036.426477","310803.368009","311570.084772","312319.481343","298520.287172","299269.717444","300036.314866","303919.616823","304686.652344","305453.177728","306219.741142","306986.958147","307736.201368","308503.145992","309269.64015","311580.526788","Mapping"
"Mixed","Male","ball","4","M_ball.wav","None","734.014276997","224","303170.383186","310036.426477","310803.368009","311570.084772","312319.481343","313086.399687","299269.717444","300036.314866","303919.616823","304686.652344","305453.177728","306219.741142","306986.958147","307736.201368","308503.145992","309269.64015","312329.550496","Mapping"
"Mixed","Male","ball","4","M_lash.wav","space","407.404017868","224","303170.383186","310036.426477","310803.368009","311570.084772","312319.481343","313086.399687","313853.110267","300036.314866","303919.616823","304686.652344","305453.177728","306219.741142","306986.958147","307736.201368","308503.145992","309269.64015","313091.056454","Mapping"
"Mixed","Male","ball","4","F_romp.wav","None","727.837614832","224","303170.383186","310036.426477","310803.368009","311570.084772","312319.481343","313086.399687","313853.110267","314619.431597","303919.616823","304686.652344","305453.177728","306219.741142","306986.958147","307736.201368","308503.145992","309269.64015","313862.609613","Mapping"
"Mixed","Female","cave","24","M_ball.wav","None","724.795041373","224","317736.995943","310036.426477","310803.368009","311570.084772","312319.481343","313086.399687","313853.110267","314619.431597","303919.616823","304686.652344","305453.177728","306219.741142","306986.958147","307736.201368","308503.145992","309269.64015","314629.377699","Mapping"
"Mixed","Female","cave","24","F_cave.wav","None","719.584854669","224","317736.995943","310036.426477","310803.368009","311570.084772","312319.481343","313086.399687","313853.110267","314619.431597","318486.089216","304686.652344","305453.177728","306219.741142","306986.958147","307736.201368","308503.145992","309269.64015","317746.811883","Mapping"
"Mixed","Female","cave","24","M_reek.wav","space","698.357950198","224","317736.995943","310036.426477","310803.368009","311570.084772","312319.481343","313086.399687","313853.110267","314619.431597","318486.089216","319252.972314","305453.177728","306219.741142","306986.958147","307736.201368","308503.145992","309269.64015","318496.001927","Mapping"
"Mixed","Female","cave","24","M_bluff.wav","None","730.54659029","224","317736.995943","310036.426477","310803.368009","311570.084772","312319.481343","313086.399687","313853.110267","314619.431597","318486.089216","319252.972314","320019.413294","306219.741142","306986.958147","307736.201368","308503.145992","309269.64015","319262.57647","Mapping"
"Mixed","Female","cave","24","F_jaw.wav","None","728.253761888","224","317736.995943","310036.426477","310803.368009","311570.084772","312319.481343","313086.399687","313853.110267","314619.431597","318486.089216","319252.972314","320019.413294","320786.336585","306986.958147","307736.201368","308503.145992","309269.64015","320029.190278","Mapping"
"Mixed","Female","cave","24","F_greet.wav","None","725.170377642","224","317736.995943","310036.426477","310803.368009","311570.084772","312319.481343","313086.399687","313853.110267","314619.431597","318486.089216","319252.972314","320019.413294","320786.336585","321553.296358","307736.201368","308503.145992","309269.64015","320796.073686","Mapping"
"Mixed","Female","cave","24","M_park.wav","None","721.45195154","224","317736.995943","310036.426477","310803.368009","311570.084772","312319.481343","313086.399687","313853.110267","314619.431597","318486.089216","319252.972314","320019.413294","320786.336585","321553.296358","322319.383645","308503.145992","309269.64015","321563.720133","Mapping"
"Mixed","Female","cave","24","F_cave.wav","None","720.201345976","224","317736.995943","310036.426477","310803.368009","311570.084772","312319.481343","313086.399687","313853.110267","314619.431597","318486.089216","319252.972314","320019.413294","320786.336585","321553.296358","322319.383645","323069.359606","309269.64015","322328.964304","Mapping"
"Mixed","Female","cave","24","M_reek.wav","space","491.202322068","224","317736.995943","310036.426477","310803.368009","311570.084772","312319.481343","313086.399687","313853.110267","314619.431597","318486.089216","319252.972314","320019.413294","320786.336585","321553.296358","322319.383645","323069.359606","323836.257854","323079.067336","Mapping"
"Mixed","Female","cave","24","M_done.wav","None","729.736556532","224","317736.995943","324602.85373","310803.368009","311570.084772","312319.481343","313086.399687","313853.110267","314619.431597","318486.089216","319252.972314","320019.413294","320786.336585","321553.296358","322319.383645","323069.359606","323836.257854","323846.147686","Mapping"
"Mixed","Female","cave","24","F_cave.wav","None","727.644690778","224","317736.995943","324602.85373","325369.400139","311570.084772","312319.481343","313086.399687","313853.110267","314619.431597","318486.089216","319252.972314","320019.413294","320786.336585","321553.296358","322319.383645","323069.359606","323836.257854","324612.737379","Mapping"
"Mixed","Female","cave","24","F_depth.wav","space","511.118022841","224","317736.995943","324602.85373","325369.400139","326136.475234","312319.481343","313086.399687","313853.110267","314619.431597","318486.089216","319252.972314","320019.413294","320786.336585","321553.296358","322319.383645","323069.359606","323836.257854","325379.082207","Mapping"
"Mixed","Female","cave","24","F_depth.wav","None","719.784889719","224","317736.995943","324602.85373","325369.400139","326136.475234","326885.9222","313086.399687","313853.110267","314619.431597","318486.089216","319252.972314","320019.413294","320786.336585","321553.296358","322319.383645","323069.359606","323836.257854","326147.213437","Mapping"
"Mixed","Female","cave","24","F_cave.wav","None","735.074741067","224","317736.995943","324602.85373","325369.400139","326136.475234","326885.9222","327652.840235","313853.110267","314619.431597","318486.089216","319252.972314","320019.413294","320786.336585","321553.296358","322319.383645","323069.359606","323836.257854","326895.811723","Mapping"
"Mixed","Female","cave","24","M_knife.wav","space","475.657402654","224","317736.995943","324602.85373","325369.400139","326136.475234","326885.9222","327652.840235","328419.284616","314619.431597","318486.089216","319252.972314","320019.413294","320786.336585","321553.296358","322319.383645","323069.359606","323836.257854","327662.536834","Mapping"
"Mixed","Female","cave","24","M_reek.wav","None","728.377740365","224","317736.995943","324602.85373","325369.400139","326136.475234","326885.9222","327652.840235","328419.284616","329186.037553","318486.089216","319252.972314","320019.413294","320786.336585","321553.296358","322319.383645","323069.359606","323836.257854","328429.161154","Mapping"
"Mixed","Female","cave","21","F_knife.wav","None","725.92352354","224","332303.072285","324602.85373","325369.400139","326136.475234","326885.9222","327652.840235","328419.284616","329186.037553","318486.089216","319252.972314","320019.413294","320786.336585","321553.296358","322319.383645","323069.359606","323836.257854","329195.584821","Mapping"
"Mixed","Female","cave","21","M_jaw.wav","None","718.953522854","224","332303.072285","324602.85373","325369.400139","326136.475234","326885.9222","327652.840235","328419.284616","329186.037553","333052.608602","319252.972314","320019.413294","320786.336585","321553.296358","322319.383645","323069.359606","323836.257854","332313.266035","Mapping"
"Mixed","Female","cave","21","F_greet.wav","None","733.973156894","224","332303.072285","324602.85373","325369.400139","326136.475234","326885.9222","327652.840235","328419.284616","329186.037553","333052.608602","333819.284245","320019.413294","320786.336585","321553.296358","322319.383645","323069.359606","323836.257854","333062.084761","Mapping"
"Mixed","Female","cave","21","F_cave.wav","None","730.908322963","224","332303.072285","324602.85373","325369.400139","326136.475234","326885.9222","327652.840235","328419.284616","329186.037553","333052.608602","333819.284245","334585.502312","320786.336585","321553.296358","322319.383645","323069.359606","323836.257854","333828.944671","Mapping"
"Mixed","Female","cave","21","M_cling.wav","space","646.629872965","224","332303.072285","324602.85373","325369.400139","326136.475234","326885.9222","327652.840235","328419.284616","329186.037553","333052.608602","333819.284245","334585.502312","335352.274108","321553.296358","322319.383645","323069.359606","323836.257854","334595.462636","Mapping"
"Mixed","Female","cave","21","M_depth.wav","None","724.981472711","224","332303.072285","324602.85373","325369.400139","326136.475234","326885.9222","327652.840235","328419.284616","329186.037553","333052.608602","333819.284245","334585.502312","335352.274108","336119.285204","322319.383645","323069.359606","323836.257854","335361.592897","Mapping"
"Mixed","Female","cave","21","M_tile.wav","None","710.45249654","224","332303.072285","324602.85373","325369.400139","326136.475234","326885.9222","327652.840235","328419.284616","329186.037553","333052.608602","333819.284245","334585.502312","335352.274108","336119.285204","336869.16965","323069.359606","323836.257854","336140.042165","Mapping"
"Mixed","Female","cave","21","F_cave.wav","None","735.72276812","224","332303.072285","324602.85373","325369.400139","326136.475234","326885.9222","327652.840235","328419.284616","329186.037553","333052.608602","333819.284245","334585.502312","335352.274108","336119.285204","336869.16965","337635.898471","323836.257854","336878.652302","Mapping"
"Mixed","Female","cave","21","M_knife.wav","space","508.696578327","224","332303.072285","324602.85373","325369.400139","326136.475234","326885.9222","327652.840235","328419.284616","329186.037553","333052.608602","333819.284245","334585.502312","335352.274108","336119.285204","336869.16965","337635.898471","338402.605032","337645.344331","Mapping"
"Mixed","Female","cave","21","F_cave.wav","None","729.264758294","224","332303.072285","339169.020969","325369.400139","326136.475234","326885.9222","327652.840235","328419.284616","329186.037553","333052.608602","333819.284245","334585.502312","335352.274108","336119.285204","336869.16965","337635.898471","338402.605032","338412.069442","Mapping"
"Mixed","Female","cave","21","M_park.wav","space","487.467200612","224","332303.072285","339169.020969","339936.188816","326136.475234","326885.9222","327652.840235","328419.284616","329186.037553","333052.608602","333819.284245","334585.502312","335352.274108","336119.285204","336869.16965","337635.898471","338402.605032","339178.541339","Mapping"
"Mixed","Female","cave","21","M_park.wav","None","722.385963774","224","332303.072285","339169.020969","339936.188816","340702.776035","326885.9222","327652.840235","328419.284616","329186.037553","333052.608602","333819.284245","334585.502312","335352.274108","336119.285204","336869.16965","337635.898471","338402.605032","339945.879231","Mapping"
"Mixed","Female","cave","21","F_cave.wav","None","719.318347285","224","332303.072285","339169.020969","339936.188816","340702.776035","341452.452717","327652.840235","328419.284616","329186.037553","333052.608602","333819.284245","334585.502312","335352.274108","336119.285204","336869.16965","337635.898471","338402.605032","340713.00534","Mapping"
"Mixed","Female","cave","21","F_bluff.wav","space","475.936895236","224","332303.072285","339169.020969","339936.188816","340702.776035","341452.452717","342219.032208","328419.284616","329186.037553","333052.608602","333819.284245","334585.502312","335352.274108","336119.285204","336869.16965","337635.898471","338402.605032","341461.998749","Mapping"
"Mixed","Female","cave","21","F_lash.wav","None","730.660675326","224","332303.072285","339169.020969","339936.188816","340702.776035","341452.452717","342219.032208","342985.798747","329186.037553","333052.608602","333819.284245","334585.502312","335352.274108","336119.285204","336869.16965","337635.898471","338402.605032","342228.605446","Mapping"
"Mixed","Female","cave","21","M_jaw.wav","None","728.257472045","224","332303.072285","339169.020969","339936.188816","340702.776035","341452.452717","342219.032208","342985.798747","343752.474081","333052.608602","333819.284245","334585.502312","335352.274108","336119.285204","336869.16965","337635.898471","338402.605032","342994.982119","Mapping"
"Mixed","Female","cave","20","M_jaw.wav","None","725.446469383","224","346869.40524","339169.020969","339936.188816","340702.776035","341452.452717","342219.032208","342985.798747","343752.474081","333052.608602","333819.284245","334585.502312","335352.274108","336119.285204","336869.16965","337635.898471","338402.605032","343761.703829","Mapping"
"Mixed","Female","cave","20","M_cad.wav","None","719.700485351","224","346869.40524","339169.020969","339936.188816","340702.776035","341452.452717","342219.032208","342985.798747","343752.474081","347618.825618","333819.284245","334585.502312","335352.274108","336119.285204","336869.16965","337635.898471","338402.605032","346879.314551","Mapping"
"Mixed","Female","cave","20","F_cave.wav","None","735.187898506","224","346869.40524","339169.020969","339936.188816","340702.776035","341452.452717","342219.032208","342985.798747","343752.474081","347618.825618","348385.743034","334585.502312","335352.274108","336119.285204","336869.16965","337635.898471","338402.605032","347627.916856","Mapping"
"Mixed","Female","cave","20","M_bluff.wav","space","566.675828421","224","346869.40524","339169.020969","339936.188816","340702.776035","341452.452717","342219.032208","342985.798747","343752.474081","347618.825618","348385.743034","349152.065292","335352.274108","336119.285204","336869.16965","337635.898471","338402.605032","348395.170962","Mapping"
"Mixed","Female","cave","20","M_greet.wav","None","729.221783229","224","346869.40524","339169.020969","339936.188816","340702.776035","341452.452717","342219.032208","342985.798747","343752.474081","347618.825618","348385.743034","349152.065292","349918.769688","336119.285204","336869.16965","337635.898471","338402.605032","349160.871163","Mapping"
"Mixed","Female","cave","20","M_greet.wav","None","725.660107913","224","346869.40524","339169.020969","339936.188816","340702.776035","341452.452717","342219.032208","342985.798747","343752.474081","347618.825618","348385.743034","349152.065292","349918.769688","350686.119329","336869.16965","337635.898471","338402.605032","349928.377555","Mapping"
"Mixed","Female","cave","20","F_cave.wav","None","722.091012518","224","346869.40524","339169.020969","339936.188816","340702.776035","341452.452717","342219.032208","342985.798747","343752.474081","347618.825618","348385.743034","349152.065292","349918.769688","350686.119329","351452.746741","337635.898471","338402.605032","350695.861686","Mapping"
"Mixed","Female","cave","20","M_gnash.wav","space","506.96613593","224","346869.40524","339169.020969","339936.188816","340702.776035","341452.452717","342219.032208","342985.798747","343752.474081","347618.825618","348385.743034","349152.065292","349918.769688","350686.119329","351452.746741","352202.287078","338402.605032","351462.819913","Mapping"
"Mixed","Female","cave","20","F_cave.wav","None","733.344917069","224","346869.40524","339169.020969","339936.188816","340702.776035","341452.452717","342219.032208","342985.798747","343752.474081","347618.825618","348385.743034","349152.065292","349918.769688","350686.119329","351452.746741","352202.287078","352968.689103","352211.687489","Mapping"
"Mixed","Female","cave","20","M_gnash.wav","space","503.781652078","224","346869.40524","353735.342794","339936.188816","340702.776035","341452.452717","342219.032208","342985.798747","343752.474081","347618.825618","348385.743034","349152.065292","349918.769688","350686.119329","351452.746741","352202.287078","352968.689103","352977.955951","Mapping"
"Mixed","Female","cave","20","M_cad.wav","None","727.734969347","224","346869.40524","353735.342794","354501.977936","340702.776035","341452.452717","342219.032208","342985.798747","343752.474081","347618.825618","348385.743034","349152.065292","349918.769688","350686.119329","351452.746741","352202.287078","352968.689103","353744.494012","Mapping"
"Mixed","Female","cave","20","F_jolt.wav","None","725.214898586","224","346869.40524","353735.342794","354501.977936","355269.104044","341452.452717","342219.032208","342985.798747","343752.474081","347618.825618","348385.743034","349152.065292","349918.769688","350686.119329","351452.746741","352202.287078","352968.689103","354511.024962","Mapping"
"Mixed","Female","cave","20","F_cave.wav","None","721.265520202","224","346869.40524","353735.342794","354501.977936","355269.104044","356019.406183","342219.032208","342985.798747","343752.474081","347618.825618","348385.743034","349152.065292","349918.769688","350686.119329","351452.746741","352202.287078","352968.689103","355279.054474","Mapping"
"Mixed","Female","cave","20","F_jolt.wav","space","620.665816823","224","346869.40524","353735.342794","354501.977936","355269.104044","356019.406183","356785.618994","342985.798747","343752.474081","347618.825618","348385.743034","349152.065292","349918.769688","350686.119329","351452.746741","352202.287078","352968.689103","356029.031054","Mapping"
"Mixed","Female","cave","20","F_dime.wav","None","732.261574129","224","346869.40524","353735.342794","354501.977936","355269.104044","356019.406183","356785.618994","357552.29371","343752.474081","347618.825618","348385.743034","349152.065292","349918.769688","350686.119329","351452.746741","352202.287078","352968.689103","356795.037956","Mapping"
"Mixed","Female","cave","20","F_park.wav","None","729.638239602","224","346869.40524","353735.342794","354501.977936","355269.104044","356019.406183","356785.618994","357552.29371","358318.75726","347618.825618","348385.743034","349152.065292","349918.769688","350686.119329","351452.746741","352202.287078","352968.689103","357561.675261","Mapping"
"Mixed","Female","ball","7","F_reek.wav","None","727.111985325","224","361435.907623","353735.342794","354501.977936","355269.104044","356019.406183","356785.618994","357552.29371","358318.75726","347618.825618","348385.743034","349152.065292","349918.769688","350686.119329","351452.746741","352202.287078","352968.689103","358328.204047","Mapping"
"Mixed","Female","ball","7","M_depth.wav","None","719.028342864","224","361435.907623","353735.342794","354501.977936","355269.104044","356019.406183","356785.618994","357552.29371","358318.75726","362185.112816","348385.743034","349152.065292","349918.769688","350686.119329","351452.746741","352202.287078","352968.689103","361445.817242","Mapping"
"Mixed","Female","ball","7","F_ball.wav","None","734.682400245","224","361435.907623","353735.342794","354501.977936","355269.104044","356019.406183","356785.618994","357552.29371","358318.75726","362185.112816","362952.190075","349152.065292","349918.769688","350686.119329","351452.746741","352202.287078","352968.689103","362194.290004","Mapping"
"Mixed","Female","ball","7","M_cling.wav","space","360.140092555","224","361435.907623","353735.342794","354501.977936","355269.104044","356019.406183","356785.618994","357552.29371","358318.75726","362185.112816","362952.190075","363718.639712","349918.769688","350686.119329","351452.746741","352202.287078","352968.689103","362961.434044","Mapping"
"Mixed","Female","ball","7","F_ball.wav","None","728.377431165","224","361435.907623","353735.342794","354501.977936","355269.104044","356019.406183","356785.618994","357552.29371","358318.75726","362185.112816","362952.190075","363718.639712","364485.446754","350686.119329","351452.746741","352202.287078","352968.689103","363727.963757","Mapping"
"Mixed","Female","ball","7","F_cave.wav","space","362.439413671","224","361435.907623","353735.342794","354501.977936","355269.104044","356019.406183","356785.618994","357552.29371","358318.75726","362185.112816","362952.190075","363718.639712","364485.446754","365252.671488","351452.746741","352202.287078","352968.689103","364495.137478","Mapping"
"Mixed","Female","ball","7","F_ball.wav","None","720.873797662","224","361435.907623","353735.342794","354501.977936","355269.104044","356019.406183","356785.618994","357552.29371","358318.75726","362185.112816","362952.190075","363718.639712","364485.446754","365252.671488","366019.118962","352202.287078","352968.689103","365262.737549","Mapping"
"Mixed","Female","ball","7","F_reek.wav","space","524.327447754","224","361435.907623","353735.342794","354501.977936","355269.104044","356019.406183","356785.618994","357552.29371","358318.75726","362185.112816","362952.190075","363718.639712","364485.446754","365252.671488","366019.118962","366768.58015","352968.689103","366029.188423","Mapping"
"Mixed","Female","ball","7","M_tile.wav","None","733.682224993","224","361435.907623","353735.342794","354501.977936","355269.104044","356019.406183","356785.618994","357552.29371","358318.75726","362185.112816","362952.190075","363718.639712","364485.446754","365252.671488","366019.118962","366768.58015","367535.418727","366778.202857","Mapping"
"Mixed","Female","ball","7","M_tile.wav","None","730.628830497","224","361435.907623","368301.731092","354501.977936","355269.104044","356019.406183","356785.618994","357552.29371","358318.75726","362185.112816","362952.190075","363718.639712","364485.446754","365252.671488","366019.118962","366768.58015","367535.418727","367545.299284","Mapping"
"Mixed","Female","ball","7","M_done.wav","None","729.381316574","224","361435.907623","368301.731092","369068.513399","355269.104044","356019.406183","356785.618994","357552.29371","358318.75726","362185.112816","362952.190075","363718.639712","364485.446754","365252.671488","366019.118962","366768.58015","367535.418727","368310.800069","Mapping"
"Mixed","Female","ball","7","F_tile.wav","None","726.548980805","224","361435.907623","368301.731092","369068.513399","369835.687739","356019.406183","356785.618994","357552.29371","358318.75726","362185.112816","362952.190075","363718.639712","364485.446754","365252.671488","366019.118962","366768.58015","367535.418727","369077.953694","Mapping"
"Mixed","Female","ball","7","M_done.wav","None","722.592182341","224","361435.907623","368301.731092","369068.513399","369835.687739","370601.894366","356785.618994","357552.29371","358318.75726","362185.112816","362952.190075","363718.639712","364485.446754","365252.671488","366019.118962","366768.58015","367535.418727","369846.064828","Mapping"
"Mixed","Female","ball","7","F_ball.wav","None","722.229522187","224","361435.907623","368301.731092","369068.513399","369835.687739","370601.894366","371352.185684","357552.29371","358318.75726","362185.112816","362952.190075","363718.639712","364485.446754","365252.671488","366019.118962","366768.58015","367535.418727","370611.130915","Mapping"
"Mixed","Female","ball","7","M_romp.wav","space","423.734237207","224","361435.907623","368301.731092","369068.513399","369835.687739","370601.894366","371352.185684","372118.01141","358318.75726","362185.112816","362952.190075","363718.639712","364485.446754","365252.671488","366019.118962","366768.58015","367535.418727","371361.683485","Mapping"
"Mixed","Female","ball","7","M_priest.wav","None","733.239179826","224","361435.907623","368301.731092","369068.513399","369835.687739","370601.894366","371352.185684","372118.01141","372885.283448","362185.112816","362952.190075","363718.639712","364485.446754","365252.671488","366019.118962","366768.58015","367535.418727","372127.437483","Mapping"
"Mixed","Male","tile","26","M_done.wav","None","729.940920137","224","376018.812571","368301.731092","369068.513399","369835.687739","370601.894366","371352.185684","372118.01141","372885.283448","362185.112816","362952.190075","363718.639712","364485.446754","365252.671488","366019.118962","366768.58015","367535.418727","372894.902136","Mapping"
"Mixed","Male","tile","26","M_tile.wav","None","720.116014127","224","376018.812571","368301.731092","369068.513399","369835.687739","370601.894366","371352.185684","372118.01141","372885.283448","376768.519552","362952.190075","363718.639712","364485.446754","365252.671488","366019.118962","366768.58015","367535.418727","376028.421674","Mapping"
"Mixed","Male","tile","26","F_jaw.wav","space","551.28642323","224","376018.812571","368301.731092","369068.513399","369835.687739","370601.894366","371352.185684","372118.01141","372885.283448","376768.519552","377535.280836","363718.639712","364485.446754","365252.671488","366019.118962","366768.58015","367535.418727","376777.967267","Mapping"
"Mixed","Male","tile","26","F_priest.wav","None","731.34240217","224","376018.812571","368301.731092","369068.513399","369835.687739","370601.894366","371352.185684","372118.01141","372885.283448","376768.519552","377535.280836","378301.898045","364485.446754","365252.671488","366019.118962","366768.58015","367535.418727","377544.737517","Mapping"
"Mixed","Male","tile","26","M_tile.wav","None","729.473141022","224","376018.812571","368301.731092","369068.513399","369835.687739","370601.894366","371352.185684","372118.01141","372885.283448","376768.519552","377535.280836","378301.898045","379068.241327","365252.671488","366019.118962","366768.58015","367535.418727","378310.954656","Mapping"
"Mixed","Male","tile","26","M_jaw.wav","space","539.964191499","224","376018.812571","368301.731092","369068.513399","369835.687739","370601.894366","371352.185684","372118.01141","372885.283448","376768.519552","377535.280836","378301.898045","379068.241327","379835.350431","366019.118962","366768.58015","367535.418727","379077.298865","Mapping"
"Mixed","Male","tile","26","F_knife.wav","None","723.29029534","224","376018.812571","368301.731092","369068.513399","369835.687739","370601.894366","371352.185684","372118.01141","372885.283448","376768.519552","377535.280836","378301.898045","379068.241327","379835.350431","380602.152216","366768.58015","367535.418727","379844.557609","Mapping"
"Mixed","Male","tile","26","F_ball.wav","None","720.930994721","224","376018.812571","368301.731092","369068.513399","369835.687739","370601.894366","371352.185684","372118.01141","372885.283448","376768.519552","377535.280836","378301.898045","379068.241327","379835.350431","380602.152216","381351.931853","367535.418727","380611.8921","Mapping"
"Mixed","Male","tile","26","F_cad.wav","None","735.311258584","224","376018.812571","368301.731092","369068.513399","369835.687739","370601.894366","371352.185684","372118.01141","372885.283448","376768.519552","377535.280836","378301.898045","379068.241327","379835.350431","380602.152216","381351.931853","382118.298014","381361.724296","Mapping"
"Mixed","Male","tile","26","M_cling.wav","None","733.730456093","224","376018.812571","382885.05466","369068.513399","369835.687739","370601.894366","371352.185684","372118.01141","372885.283448","376768.519552","377535.280836","378301.898045","379068.241327","379835.350431","380602.152216","381351.931853","382118.298014","382127.735835","Mapping"
"Mixed","Male","tile","26","M_tile.wav","None","731.547384057","224","376018.812571","382885.05466","383651.755346","369835.687739","370601.894366","371352.185684","372118.01141","372885.283448","376768.519552","377535.280836","378301.898045","379068.241327","379835.350431","380602.152216","381351.931853","382118.298014","382894.182999","Mapping"
"Mixed","Male","tile","26","F_greet.wav","space","580.152997514","224","376018.812571","382885.05466","383651.755346","384418.394816","370601.894366","371352.185684","372118.01141","372885.283448","376768.519552","377535.280836","378301.898045","379068.241327","379835.350431","380602.152216","381351.931853","382118.298014","383661.054349","Mapping"
"Mixed","Male","tile","26","M_tile.wav","None","725.272404845","224","376018.812571","382885.05466","383651.755346","384418.394816","385184.303091","371352.185684","372118.01141","372885.283448","376768.519552","377535.280836","378301.898045","379068.241327","379835.350431","380602.152216","381351.931853","382118.298014","384428.054623","Mapping"
"Mixed","Male","tile","26","M_gnash.wav","space","536.121786921","224","376018.812571","382885.05466","383651.755346","384418.394816","385184.303091","385952.261185","372118.01141","372885.283448","376768.519552","377535.280836","378301.898045","379068.241327","379835.350431","380602.152216","381351.931853","382118.298014","385193.037852","Mapping"
"Mixed","Male","tile","26","F_cad.wav","None","721.713821171","224","376018.812571","382885.05466","383651.755346","384418.394816","385184.303091","385952.261185","386718.607558","372885.283448","376768.519552","377535.280836","378301.898045","379068.241327","379835.350431","380602.152216","381351.931853","382118.298014","385962.110206","Mapping"
"Mixed","Male","tile","26","F_greet.wav","None","720.106120571","224","376018.812571","382885.05466","383651.755346","384418.394816","385184.303091","385952.261185","386718.607558","387468.163354","376768.519552","377535.280836","378301.898045","379068.241327","379835.350431","380602.152216","381351.931853","382118.298014","386728.298592","Mapping"
"Mixed","Female","ball","12","M_done.wav","None","735.145232524","224","390602.067812","382885.05466","383651.755346","384418.394816","385184.303091","385952.261185","386718.607558","387468.163354","376768.519552","377535.280836","378301.898045","379068.241327","379835.350431","380602.152216","381351.931853","382118.298014","387477.637039","Mapping"
"Mixed","Female","ball","12","M_dime.wav","None","719.409553451","224","390602.067812","382885.05466","383651.755346","384418.394816","385184.303091","385952.261185","386718.607558","387468.163354","391351.50303","377535.280836","378301.898045","379068.241327","379835.350431","380602.152216","381351.931853","382118.298014","390612.140675","Mapping"
"Mixed","Female","ball","12","F_bluff.wav","None","735.281887115","224","390602.067812","382885.05466","383651.755346","384418.394816","385184.303091","385952.261185","386718.607558","387468.163354","391351.50303","392118.23216","378301.898045","379068.241327","379835.350431","380602.152216","381351.931853","382118.298014","391360.592413","Mapping"
"Mixed","Female","ball","12","F_ball.wav","None","732.793352101","224","390602.067812","382885.05466","383651.755346","384418.394816","385184.303091","385952.261185","386718.607558","387468.163354","391351.50303","392118.23216","392884.689527","379068.241327","379835.350431","380602.152216","381351.931853","382118.298014","392127.552495","Mapping"
"Mixed","Female","ball","12","F_bluff.wav","space","435.24970219","224","390602.067812","382885.05466","383651.755346","384418.394816","385184.303091","385952.261185","386718.607558","387468.163354","391351.50303","392118.23216","392884.689527","393651.529031","379835.350431","380602.152216","381351.931853","382118.298014","392893.790349","Mapping"
"Mixed","Female","ball","12","M_reek.wav","None","726.835584501","224","390602.067812","382885.05466","383651.755346","384418.394816","385184.303091","385952.261185","386718.607558","387468.163354","391351.50303","392118.23216","392884.689527","393651.529031","394418.065547","380602.152216","381351.931853","382118.298014","393660.829889","Mapping"
"Mixed","Female","ball","12","F_ball.wav","None","724.346431089","224","390602.067812","382885.05466","383651.755346","384418.394816","385184.303091","385952.261185","386718.607558","387468.163354","391351.50303","392118.23216","392884.689527","393651.529031","394418.065547","395184.954828","381351.931853","382118.298014","394427.628274","Mapping"
"Mixed","Female","ball","12","M_gnash.wav","space","518.825401552","224","390602.067812","382885.05466","383651.755346","384418.394816","385184.303091","385952.261185","386718.607558","387468.163354","391351.50303","392118.23216","392884.689527","393651.529031","394418.065547","395184.954828","395934.643877","382118.298014","395194.170972","Mapping"
"Mixed","Female","ball","12","M_priest.wav","None","735.298582469","224","390602.067812","382885.05466","383651.755346","384418.394816","385184.303091","385952.261185","386718.607558","387468.163354","391351.50303","392118.23216","392884.689527","393651.529031","394418.065547","395184.954828","395934.643877","396701.543052","395944.21186","Mapping"
"Mixed","Female","ball","12","M_tile.wav","None","733.280918212","224","390602.067812","397468.095954","383651.755346","384418.394816","385184.303091","385952.261185","386718.607558","387468.163354","391351.50303","392118.23216","392884.689527","393651.529031","394418.065547","395184.954828","395934.643877","396701.543052","396710.576784","Mapping"
"Mixed","Female","ball","12","F_jolt.wav","None","730.386747746","224","390602.067812","397468.095954","398234.922164","384418.394816","385184.303091","385952.261185","386718.607558","387468.163354","391351.50303","392118.23216","392884.689527","393651.529031","394418.065547","395184.954828","395934.643877","396701.543052","397477.754215","Mapping"
"Mixed","Female","ball","12","F_ball.wav","None","728.502646321","224","390602.067812","397468.095954","398234.922164","399001.560397","385184.303091","385952.261185","386718.607558","387468.163354","391351.50303","392118.23216","392884.689527","393651.529031","394418.065547","395184.954828","395934.643877","396701.543052","398244.011856","Mapping"
"Mixed","Female","ball","12","M_priest.wav","space","725.971136242","224","390602.067812","397468.095954","398234.922164","399001.560397","399768.252735","385952.261185","386718.607558","387468.163354","391351.50303","392118.23216","392884.689527","393651.529031","394418.065547","395184.954828","395934.643877","396701.543052","399010.94906","Mapping"
"Mixed","Female","ball","12","F_ball.wav","None","723.623584141","224","390602.067812","397468.095954","398234.922164","399001.560397","399768.252735","400535.250537","386718.607558","387468.163354","391351.50303","392118.23216","392884.689527","393651.529031","394418.065547","395184.954828","395934.643877","396701.543052","399777.733841","Mapping"
"Mixed","Female","ball","12","F_cave.wav","space","479.617911391","224","390602.067812","397468.095954","398234.922164","399001.560397","399768.252735","400535.250537","401284.56796","387468.163354","391351.50303","392118.23216","392884.689527","393651.529031","394418.065547","395184.954828","395934.643877","396701.543052","400545.248889","Mapping"
"Mixed","Female","ball","12","M_bluff.wav","None","735.156362876","224","390602.067812","397468.095954","398234.922164","399001.560397","399768.252735","400535.250537","401284.56796","402051.126426","391351.50303","392118.23216","392884.689527","393651.529031","394418.065547","395184.954828","395934.643877","396701.543052","401293.90901","Mapping"
"Mixed","Male","done","41","F_knife.wav","None","733.438905678","224","405185.164757","397468.095954","398234.922164","399001.560397","399768.252735","400535.250537","401284.56796","402051.126426","391351.50303","392118.23216","392884.689527","393651.529031","394418.065547","395184.954828","395934.643877","396701.543052","402059.921476","Mapping"
"Mixed","Male","done","41","M_done.wav","None","719.992654049","224","405185.164757","397468.095954","398234.922164","399001.560397","399768.252735","400535.250537","401284.56796","402051.126426","405934.472595","392118.23216","392884.689527","393651.529031","394418.065547","395184.954828","395934.643877","396701.543052","405195.040676","Mapping"
"Mixed","Male","done","41","F_cave.wav","space","496.95665366","224","405185.164757","397468.095954","398234.922164","399001.560397","399768.252735","400535.250537","401284.56796","402051.126426","405934.472595","406701.422166","392884.689527","393651.529031","394418.065547","395184.954828","395934.643877","396701.543052","405943.838997","Mapping"
"Mixed","Male","done","41","M_done.wav","None","732.150271768","224","405185.164757","397468.095954","398234.922164","399001.560397","399768.252735","400535.250537","401284.56796","402051.126426","405934.472595","406701.422166","407467.943531","393651.529031","394418.065547","395184.954828","395934.643877","396701.543052","406710.492998","Mapping"
"Mixed","Male","done","41","F_tile.wav","space","531.390818767","224","405185.164757","397468.095954","398234.922164","399001.560397","399768.252735","400535.250537","401284.56796","402051.126426","405934.472595","406701.422166","407467.943531","408234.69925","394418.065547","395184.954828","395934.643877","396701.543052","407477.393719","Mapping"
"Mixed","Male","done","41","F_romp.wav","None","725.890751113","224","405185.164757","397468.095954","398234.922164","399001.560397","399768.252735","400535.250537","401284.56796","402051.126426","405934.472595","406701.422166","407467.943531","408234.69925","409001.773108","395184.954828","395934.643877","396701.543052","408244.074928","Mapping"
"Mixed","Male","done","41","M_bluff.wav","None","722.567139193","224","405185.164757","397468.095954","398234.922164","399001.560397","399768.252735","400535.250537","401284.56796","402051.126426","405934.472595","406701.422166","407467.943531","408234.69925","409001.773108","409768.158747","395934.643877","396701.543052","409011.752292","Mapping"
"Mixed","Male","done","41","F_reek.wav","None","721.122991177","224","405185.164757","397468.095954","398234.922164","399001.560397","399768.252735","400535.250537","401284.56796","402051.126426","405934.472595","406701.422166","407467.943531","408234.69925","409001.773108","409768.158747","410517.91365","396701.543052","409777.622539","Mapping"
"Mixed","Male","done","41","M_done.wav","None","735.75090291","224","405185.164757","397468.095954","398234.922164","399001.560397","399768.252735","400535.250537","401284.56796","402051.126426","405934.472595","406701.422166","407467.943531","408234.69925","409001.773108","409768.158747","410517.91365","411284.594549","410527.304786","Mapping"
"Mixed","Male","done","41","F_ball.wav","space","514.499140903","224","405185.164757","412051.225671","398234.922164","399001.560397","399768.252735","400535.250537","401284.56796","402051.126426","405934.472595","406701.422166","407467.943531","408234.69925","409001.773108","409768.158747","410517.91365","411284.594549","411294.233642","Mapping"
"Mixed","Male","done","41","F_priest.wav","None","729.878776241","224","405185.164757","412051.225671","412817.760022","399001.560397","399768.252735","400535.250537","401284.56796","402051.126426","405934.472595","406701.422166","407467.943531","408234.69925","409001.773108","409768.158747","410517.91365","411284.594549","412060.540441","Mapping"
"Mixed","Male","done","41","M_bluff.wav","None","728.283751756","224","405185.164757","412051.225671","412817.760022","413584.080734","399768.252735","400535.250537","401284.56796","402051.126426","405934.472595","406701.422166","407467.943531","408234.69925","409001.773108","409768.158747","410517.91365","411284.594549","412826.607322","Mapping"
"Mixed","Male","done","41","F_park.wav","None","725.975464564","224","405185.164757","412051.225671","412817.760022","413584.080734","414351.842193","400535.250537","401284.56796","402051.126426","405934.472595","406701.422166","407467.943531","408234.69925","409001.773108","409768.158747","410517.91365","411284.594549","413593.338925","Mapping"
"Mixed","Male","done","41","M_done.wav","None","721.717531327","224","405185.164757","412051.225671","412817.760022","413584.080734","414351.842193","415118.012338","401284.56796","402051.126426","405934.472595","406701.422166","407467.943531","408234.69925","409001.773108","409768.158747","410517.91365","411284.594549","414361.962359","Mapping"
"Mixed","Male","done","41","M_park.wav","space","585.073488881","224","405185.164757","412051.225671","412817.760022","413584.080734","414351.842193","415118.012338","415867.60307","402051.126426","405934.472595","406701.422166","407467.943531","408234.69925","409001.773108","409768.158747","410517.91365","411284.594549","415127.567026","Mapping"
"Mixed","Male","done","41","M_jaw.wav","None","734.022006392","224","405185.164757","412051.225671","412817.760022","413584.080734","414351.842193","415118.012338","415867.60307","416634.494207","405934.472595","406701.422166","407467.943531","408234.69925","409001.773108","409768.158747","410517.91365","411284.594549","415877.115092","Mapping"
"Mixed","Female","done","44","M_cling.wav","None","731.922720326","224","419768.28458","412051.225671","412817.760022","413584.080734","414351.842193","415118.012338","415867.60307","416634.494207","405934.472595","406701.422166","407467.943531","408234.69925","409001.773108","409768.158747","410517.91365","411284.594549","416643.606159","Mapping"
"Mixed","Female","done","44","M_cad.wav","None","719.699248672","224","419768.28458","412051.225671","412817.760022","413584.080734","414351.842193","415118.012338","415867.60307","416634.494207","420517.439687","406701.422166","407467.943531","408234.69925","409001.773108","409768.158747","410517.91365","411284.594549","419777.965721","Mapping"
"Mixed","Female","done","44","F_cave.wav","None","734.813489718","224","419768.28458","412051.225671","412817.760022","413584.080734","414351.842193","415118.012338","415867.60307","416634.494207","420517.439687","421284.467479","407467.943531","408234.69925","409001.773108","409768.158747","410517.91365","411284.594549","420527.26583","Mapping"
"Mixed","Female","done","44","M_dime.wav","None","732.886722311","224","419768.28458","412051.225671","412817.760022","413584.080734","414351.842193","415118.012338","415867.60307","416634.494207","420517.439687","421284.467479","422050.644116","408234.69925","409001.773108","409768.158747","410517.91365","411284.594549","421293.593653","Mapping"
"Mixed","Female","done","44","F_done.wav","None","731.437936774","224","419768.28458","412051.225671","412817.760022","413584.080734","414351.842193","415118.012338","415867.60307","416634.494207","420517.439687","421284.467479","422050.644116","422817.598324","409001.773108","409768.158747","410517.91365","411284.594549","422059.525116","Mapping"
"Mixed","Female","done","44","F_greet.wav","space","605.516948388","224","419768.28458","412051.225671","412817.760022","413584.080734","414351.842193","415118.012338","415867.60307","416634.494207","420517.439687","421284.467479","422050.644116","422817.598324","423583.886882","409768.158747","410517.91365","411284.594549","422826.977402","Mapping"
"Mixed","Female","done","44","F_done.wav","None","724.914073013","224","419768.28458","412051.225671","412817.760022","413584.080734","414351.842193","415118.012338","415867.60307","416634.494207","420517.439687","421284.467479","422050.644116","422817.598324","423583.886882","424351.537348","410517.91365","411284.594549","423593.532468","Mapping"
"Mixed","Female","done","44","M_jolt.wav","space","606.580813415","224","419768.28458","412051.225671","412817.760022","413584.080734","414351.842193","415118.012338","415867.60307","416634.494207","420517.439687","421284.467479","422050.644116","422817.598324","423583.886882","424351.537348","425100.66463","411284.594549","424361.894341","Mapping"
"Mixed","Female","done","44","F_done.wav","None","735.814283369","224","419768.28458","412051.225671","412817.760022","413584.080734","414351.842193","415118.012338","415867.60307","416634.494207","420517.439687","421284.467479","422050.644116","422817.598324","423583.886882","424351.537348","425100.66463","425867.583283","425110.028558","Mapping"
"Mixed","Female","done","44","M_lash.wav","space","555.220033973","224","419768.28458","426634.323234","412817.760022","413584.080734","414351.842193","415118.012338","415867.60307","416634.494207","420517.439687","421284.467479","422050.644116","422817.598324","423583.886882","424351.537348","425100.66463","425867.583283","425877.205371","Mapping"
"Mixed","Female","done","44","F_done.wav","None","729.866409325","224","419768.28458","426634.323234","427401.022992","413584.080734","414351.842193","415118.012338","415867.60307","416634.494207","420517.439687","421284.467479","422050.644116","422817.598324","423583.886882","424351.537348","425100.66463","425867.583283","426643.644187","Mapping"
"Mixed","Female","done","44","M_depth.wav","space","406.067462172","224","419768.28458","426634.323234","427401.022992","428167.894651","414351.842193","415118.012338","415867.60307","416634.494207","420517.439687","421284.467479","422050.644116","422817.598324","423583.886882","424351.537348","425100.66463","425867.583283","427410.37239","Mapping"
"Mixed","Female","done","44","F_ball.wav","None","723.080675933","224","419768.28458","426634.323234","427401.022992","428167.894651","428934.768474","415118.012338","415867.60307","416634.494207","420517.439687","421284.467479","422050.644116","422817.598324","423583.886882","424351.537348","425100.66463","425867.583283","428177.873216","Mapping"
"Mixed","Female","done","44","F_bluff.wav","None","720.914917649","224","419768.28458","426634.323234","427401.022992","428167.894651","428934.768474","429701.275618","415867.60307","416634.494207","420517.439687","421284.467479","422050.644116","422817.598324","423583.886882","424351.537348","425100.66463","425867.583283","428944.471566","Mapping"
"Mixed","Female","done","44","M_knife.wav","None","718.78007683","224","419768.28458","426634.323234","427401.022992","428167.894651","428934.768474","429701.275618","430450.842543","416634.494207","420517.439687","421284.467479","422050.644116","422817.598324","423583.886882","424351.537348","425100.66463","425867.583283","429711.180909","Mapping"
"Mixed","Female","done","44","M_park.wav","None","734.186177258","224","419768.28458","426634.323234","427401.022992","428167.894651","428934.768474","429701.275618","430450.842543","431217.377822","420517.439687","421284.467479","422050.644116","422817.598324","423583.886882","424351.537348","425100.66463","425867.583283","430460.191013","Mapping"
"Mixed","Female","done","46","F_cling.wav","None","732.539830031","224","434351.140061","426634.323234","427401.022992","428167.894651","428934.768474","429701.275618","430450.842543","431217.377822","420517.439687","421284.467479","422050.644116","422817.598324","423583.886882","424351.537348","425100.66463","425867.583283","431226.381564","Mapping"
"Mixed","Female","done","46","F_done.wav","None","719.752426492","224","434351.140061","426634.323234","427401.022992","428167.894651","428934.768474","429701.275618","430450.842543","431217.377822","435100.682252","421284.467479","422050.644116","422817.598324","423583.886882","424351.537348","425100.66463","425867.583283","434361.305366","Mapping"
"Mixed","Female","done","46","M_park.wav","space","458.230546094","224","434351.140061","426634.323234","427401.022992","428167.894651","428934.768474","429701.275618","430450.842543","431217.377822","435100.682252","435867.356659","422050.644116","422817.598324","423583.886882","424351.537348","425100.66463","425867.583283","435110.053911","Mapping"
"Mixed","Female","done","46","F_park.wav","None","731.919628568","224","434351.140061","426634.323234","427401.022992","428167.894651","428934.768474","429701.275618","430450.842543","431217.377822","435100.682252","435867.356659","436634.132165","422817.598324","423583.886882","424351.537348","425100.66463","425867.583283","435876.776548","Mapping"
"Mixed","Female","done","46","M_cling.wav","None","729.974620044","224","434351.140061","426634.323234","427401.022992","428167.894651","428934.768474","429701.275618","430450.842543","431217.377822","435100.682252","435867.356659","436634.132165","437400.821411","423583.886882","424351.537348","425100.66463","425867.583283","436643.253392","Mapping"
"Mixed","Female","done","46","F_done.wav","None","727.46938956","224","434351.140061","426634.323234","427401.022992","428167.894651","428934.768474","429701.275618","430450.842543","431217.377822","435100.682252","435867.356659","436634.132165","437400.821411","438167.302894","424351.537348","425100.66463","425867.583283","437410.295096","Mapping"
"Mixed","Female","done","46","F_priest.wav","space","543.097661925","224","434351.140061","426634.323234","427401.022992","428167.894651","428934.768474","429701.275618","430450.842543","431217.377822","435100.682252","435867.356659","436634.132165","437400.821411","438167.302894","438934.214745","425100.66463","425867.583283","438177.117906","Mapping"
"Mixed","Female","done","46","M_cling.wav","None","721.717531327","224","434351.140061","426634.323234","427401.022992","428167.894651","428934.768474","429701.275618","430450.842543","431217.377822","435100.682252","435867.356659","436634.132165","437400.821411","438167.302894","438934.214745","439701.077129","425867.583283","438943.574036","Mapping"
"Mixed","Female","done","46","M_depth.wav","None","719.409862533","224","434351.140061","426634.323234","427401.022992","428167.894651","428934.768474","429701.275618","430450.842543","431217.377822","435100.682252","435867.356659","436634.132165","437400.821411","438167.302894","438934.214745","439701.077129","440450.599533","439710.524534","Mapping"
"Mixed","Female","done","46","F_done.wav","None","734.438462649","224","434351.140061","441217.242095","427401.022992","428167.894651","428934.768474","429701.275618","430450.842543","431217.377822","435100.682252","435867.356659","436634.132165","437400.821411","438167.302894","438934.214745","439701.077129","440450.599533","440460.093005","Mapping"
"Mixed","Female","done","46","M_depth.wav","space","501.465326408","224","434351.140061","441217.242095","441984.027185","428167.894651","428934.768474","429701.275618","430450.842543","431217.377822","435100.682252","435867.356659","436634.132165","437400.821411","438167.302894","438934.214745","439701.077129","440450.599533","441226.706814","Mapping"
"Mixed","Female","done","46","F_jolt.wav","None","729.056375567","224","434351.140061","441217.242095","441984.027185","442750.737765","428934.768474","429701.275618","430450.842543","431217.377822","435100.682252","435867.356659","436634.132165","437400.821411","438167.302894","438934.214745","439701.077129","440450.599533","441993.088124","Mapping"
"Mixed","Female","done","46","M_gnash.wav","None","726.854134933","224","434351.140061","441217.242095","441984.027185","442750.737765","443517.209044","429701.275618","430450.842543","431217.377822","435100.682252","435867.356659","436634.132165","437400.821411","438167.302894","438934.214745","439701.077129","440450.599533","442759.803959","Mapping"
"Mixed","Female","done","46","M_reek.wav","None","724.63488963","224","434351.140061","441217.242095","441984.027185","442750.737765","443517.209044","444284.342573","430450.842543","431217.377822","435100.682252","435867.356659","436634.132165","437400.821411","438167.302894","438934.214745","439701.077129","440450.599533","443526.782283","Mapping"
"Mixed","Female","done","46","F_done.wav","None","721.33415658","224","434351.140061","441217.242095","441984.027185","442750.737765","443517.209044","444284.342573","445051.230927","431217.377822","435100.682252","435867.356659","436634.132165","437400.821411","438167.302894","438934.214745","439701.077129","440450.599533","444294.515608","Mapping"
"Mixed","Female","done","46","M_ball.wav","space","618.950523902","224","434351.140061","441217.242095","441984.027185","442750.737765","443517.209044","444284.342573","445051.230927","445800.645121","435100.682252","435867.356659","436634.132165","437400.821411","438167.302894","438934.214745","439701.077129","440450.599533","445061.143329","Mapping"
"Mixed","Male","tile","29","F_ball.wav","None","733.520836569","224","448934.200832","441217.242095","441984.027185","442750.737765","443517.209044","444284.342573","445051.230927","445800.645121","435100.682252","435867.356659","436634.132165","437400.821411","438167.302894","438934.214745","439701.077129","440450.599533","445809.858791","Mapping"
"Mixed","Male","tile","29","M_romp.wav","None","720.037484192","224","448934.200832","441217.242095","441984.027185","442750.737765","443517.209044","444284.342573","445051.230927","445800.645121","449683.709324","435867.356659","436634.132165","437400.821411","438167.302894","438934.214745","439701.077129","440450.599533","448944.036559","Mapping"
"Mixed","Male","tile","29","M_tile.wav","None","735.139049124","224","448934.200832","441217.242095","441984.027185","442750.737765","443517.209044","444284.342573","445051.230927","445800.645121","449683.709324","450450.553776","436634.132165","437400.821411","438167.302894","438934.214745","439701.077129","440450.599533","449693.577205","Mapping"
"Mixed","Male","tile","29","F_romp.wav","space","628.078862675","224","448934.200832","441217.242095","441984.027185","442750.737765","443517.209044","444284.342573","445051.230927","445800.645121","449683.709324","450450.553776","451216.987954","437400.821411","438167.302894","438934.214745","439701.077129","440450.599533","450459.925124","Mapping"
"Mixed","Male","tile","29","F_lash.wav","None","730.095197563","224","448934.200832","441217.242095","441984.027185","442750.737765","443517.209044","444284.342573","445051.230927","445800.645121","449683.709324","450450.553776","451216.987954","451983.869816","438167.302894","438934.214745","439701.077129","440450.599533","451226.490393","Mapping"
"Mixed","Male","tile","29","F_cave.wav","None","728.399382555","224","448934.200832","441217.242095","441984.027185","442750.737765","443517.209044","444284.342573","445051.230927","445800.645121","449683.709324","450450.553776","451216.987954","451983.869816","452750.495064","438934.214745","439701.077129","440450.599533","451993.193861","Mapping"
"Mixed","Male","tile","29","M_tile.wav","None","724.642000627","224","448934.200832","441217.242095","441984.027185","442750.737765","443517.209044","444284.342573","445051.230927","445800.645121","449683.709324","450450.553776","451216.987954","451983.869816","452750.495064","453516.974691","439701.077129","440450.599533","452761.648487","Mapping"
"Mixed","Male","tile","29","M_cave.wav","space","489.490120788","224","448934.200832","441217.242095","441984.027185","442750.737765","443517.209044","444284.342573","445051.230927","445800.645121","449683.709324","450450.553776","451216.987954","451983.869816","452750.495064","453516.974691","454284.357104","440450.599533","453526.471255","Mapping"
"Mixed","Male","tile","29","M_tile.wav","None","719.947205507","224","448934.200832","441217.242095","441984.027185","442750.737765","443517.209044","444284.342573","445051.230927","445800.645121","449683.709324","450450.553776","451216.987954","451983.869816","452750.495064","453516.974691","454284.357104","455033.680092","454294.227767","Mapping"
"Mixed","Male","tile","29","F_cling.wav","space","588.742138119","224","448934.200832","455800.256799","441984.027185","442750.737765","443517.209044","444284.342573","445051.230927","445800.645121","449683.709324","450450.553776","451216.987954","451983.869816","452750.495064","453516.974691","454284.357104","455033.680092","455043.190568","Mapping"
"Mixed","Male","tile","29","F_cad.wav","None","732.476758771","224","448934.200832","455800.256799","456566.815575","442750.737765","443517.209044","444284.342573","445051.230927","445800.645121","449683.709324","450450.553776","451216.987954","451983.869816","452750.495064","453516.974691","454284.357104","455033.680092","455809.462122","Mapping"
"Mixed","Male","tile","29","M_tile.wav","None","730.618936941","224","448934.200832","455800.256799","456566.815575","457333.752778","443517.209044","444284.342573","445051.230927","445800.645121","449683.709324","450450.553776","451216.987954","451983.869816","452750.495064","453516.974691","454284.357104","455033.680092","456575.992763","Mapping"
"Mixed","Male","tile","29","F_jaw.wav","space","601.057125023","224","448934.200832","455800.256799","456566.815575","457333.752778","458100.429349","444284.342573","445051.230927","445800.645121","449683.709324","450450.553776","451216.987954","451983.869816","452750.495064","453516.974691","454284.357104","455033.680092","457342.835359","Mapping"
"Mixed","Male","tile","29","F_cad.wav","None","724.681574735","224","448934.200832","455800.256799","456566.815575","457333.752778","458100.429349","458867.432097","445051.230927","445800.645121","449683.709324","450450.553776","451216.987954","451983.869816","452750.495064","453516.974691","454284.357104","455033.680092","458109.768853","Mapping"
"Mixed","Male","tile","29","M_cad.wav","None","722.097505233","224","448934.200832","455800.256799","456566.815575","457333.752778","458100.429349","458867.432097","459634.188743","445800.645121","449683.709324","450450.553776","451216.987954","451983.869816","452750.495064","453516.974691","454284.357104","455033.680092","458877.17569","Mapping"
