Condition,Talker,Target,Trial,current_stimulus,response_response,response_time_response,subject_nr,time_Audio1,time_Audio10,time_Audio11,time_Audio12,time_Audio13,time_Audio14,time_Audio15,time_Audio16,time_Audio2,time_Audio3,time_Audio4,time_Audio5,time_Audio6,time_Audio7,time_Audio8,time_Audio9,time_response
Mixed,Female,ball,7,M_greet.wav,NA,NA,4271,13143.14454,NA,NA,NA,NA,NA,NA,NA,NA,NA,NA,NA,NA,NA,NA,NA,NA
Mixed,Female,ball,7,F_knife.wav,None,731.7428794,4271,13143.14454,NA,NA,NA,NA,NA,NA,NA,13910.21799,NA,NA,NA,NA,NA,NA,NA,13157.78116
Mixed,Female,ball,7,F_ball.wav,None,732.6076399,4271,13143.14454,NA,NA,NA,NA,NA,NA,NA,13910.21799,14676.88889,NA,NA,NA,NA,NA,NA,13920.51071
Mixed,Female,ball,7,M_jolt.wav,space,629.2262948,4271,13143.14454,NA,NA,NA,NA,NA,NA,NA,13910.21799,14676.88889,15443.43458,NA,NA,NA,NA,NA,14686.79421
Mixed,Female,ball,7,M_knife.wav,None,726.9865442,4271,13143.14454,NA,NA,NA,NA,NA,NA,NA,13910.21799,14676.88889,15443.43458,16210.05354,NA,NA,NA,NA,15453.5826
Mixed,Female,ball,7,F_ball.wav,None,724.7147327,4271,13143.14454,NA,NA,NA,NA,NA,NA,NA,13910.21799,14676.88889,15443.43458,16210.05354,16977.08092,NA,NA,NA,16219.79871
Mixed,Female,ball,7,M_cad.wav,space,473.1697124,4271,13143.14454,NA,NA,NA,NA,NA,NA,NA,13910.21799,14676.88889,15443.43458,16210.05354,16977.08092,17726.5064,NA,NA,16986.78837
Mixed,Female,ball,7,M_jaw.wav,None,735.9074554,4271,13143.14454,NA,NA,NA,NA,NA,NA,NA,13910.21799,14676.88889,15443.43458,16210.05354,16977.08092,17726.5064,18493.15906,NA,17736.09976
Mixed,Female,ball,7,M_cad.wav,None,733.9092628,4271,13143.14454,NA,NA,NA,NA,NA,NA,NA,13910.21799,14676.88889,15443.43458,16210.05354,16977.08092,17726.5064,18493.15906,19260.1985,18502.68039
Mixed,Female,ball,7,F_park.wav,None,733.523414,4271,13143.14454,20026.75933,NA,NA,NA,NA,NA,NA,13910.21799,14676.88889,15443.43458,16210.05354,16977.08092,17726.5064,18493.15906,19260.1985,19267.39329
Mixed,Female,ball,7,F_ball.wav,None,727.8445028,4271,13143.14454,20026.75933,20793.45095,NA,NA,NA,NA,NA,13910.21799,14676.88889,15443.43458,16210.05354,16977.08092,17726.5064,18493.15906,19260.1985,20036.88571
Mixed,Female,ball,7,M_priest.wav,space,473.208359,4271,13143.14454,20026.75933,20793.45095,21560.92323,NA,NA,NA,NA,13910.21799,14676.88889,15443.43458,16210.05354,16977.08092,17726.5064,18493.15906,19260.1985,20802.69557
Mixed,Female,ball,7,F_gnash.wav,None,721.8851708,4271,13143.14454,20026.75933,20793.45095,21560.92323,22326.76988,NA,NA,NA,13910.21799,14676.88889,15443.43458,16210.05354,16977.08092,17726.5064,18493.15906,19260.1985,21570.83597
Mixed,Female,ball,7,M_bluff.wav,None,721.1301676,4271,13143.14454,20026.75933,20793.45095,21560.92323,22326.76988,23076.79824,NA,NA,13910.21799,14676.88889,15443.43458,16210.05354,16977.08092,17726.5064,18493.15906,19260.1985,22336.10322
Mixed,Female,ball,7,F_ball.wav,None,734.5690406,4271,13143.14454,20026.75933,20793.45095,21560.92323,22326.76988,23076.79824,23843.70937,NA,13910.21799,14676.88889,15443.43458,16210.05354,16977.08092,17726.5064,18493.15906,19260.1985,23086.76354
Mixed,Female,ball,7,F_knife.wav,space,502.883513,4271,13143.14454,20026.75933,20793.45095,21560.92323,22326.76988,23076.79824,23843.70937,24610.44273,13910.21799,14676.88889,15443.43458,16210.05354,16977.08092,17726.5064,18493.15906,19260.1985,23852.9781
Mixed,Male,cave,13,F_cad.wav,None,730.139812,4271,27777.40017,20026.75933,20793.45095,21560.92323,22326.76988,23076.79824,23843.70937,24610.44273,13910.21799,14676.88889,15443.43458,16210.05354,16977.08092,17726.5064,18493.15906,19260.1985,24620.10442
Mixed,Male,cave,13,M_lash.wav,None,719.8378197,4271,27777.40017,20026.75933,20793.45095,21560.92323,22326.76988,23076.79824,23843.70937,24610.44273,28526.24595,14676.88889,15443.43458,16210.05354,16977.08092,17726.5064,18493.15906,19260.1985,27787.47461
Mixed,Male,cave,13,M_reek.wav,None,736.7205834,4271,27777.40017,20026.75933,20793.45095,21560.92323,22326.76988,23076.79824,23843.70937,24610.44273,28526.24595,29293.72812,15443.43458,16210.05354,16977.08092,17726.5064,18493.15906,19260.1985,28535.31588
Mixed,Male,cave,13,M_cave.wav,None,732.0774063,4271,27777.40017,20026.75933,20793.45095,21560.92323,22326.76988,23076.79824,23843.70937,24610.44273,28526.24595,29293.72812,30060.72366,16210.05354,16977.08092,17726.5064,18493.15906,19260.1985,29303.7061
Mixed,Male,cave,13,M_dime.wav,space,581.2569968,4271,27777.40017,20026.75933,20793.45095,21560.92323,22326.76988,23076.79824,23843.70937,24610.44273,28526.24595,29293.72812,30060.72366,30827.05292,16977.08092,17726.5064,18493.15906,19260.1985,30070.54365
Mixed,Male,cave,13,F_greet.wav,None,726.4943393,4271,27777.40017,20026.75933,20793.45095,21560.92323,22326.76988,23076.79824,23843.70937,24610.44273,28526.24595,29293.72812,30060.72366,30827.05292,31593.96467,17726.5064,18493.15906,19260.1985,30836.55787
Mixed,Male,cave,13,M_cave.wav,None,722.7007723,4271,27777.40017,20026.75933,20793.45095,21560.92323,22326.76988,23076.79824,23843.70937,24610.44273,28526.24595,29293.72812,30060.72366,30827.05292,31593.96467,32360.28806,18493.15906,19260.1985,31604.26419
Mixed,Male,cave,13,F_bluff.wav,space,650.1524379,4271,27777.40017,20026.75933,20793.45095,21560.92323,22326.76988,23076.79824,23843.70937,24610.44273,28526.24595,29293.72812,30060.72366,30827.05292,31593.96467,32360.28806,33110.18132,19260.1985,32369.58431
Mixed,Male,cave,13,F_jolt.wav,None,734.9029486,4271,27777.40017,20026.75933,20793.45095,21560.92323,22326.76988,23076.79824,23843.70937,24610.44273,28526.24595,29293.72812,30060.72366,30827.05292,31593.96467,32360.28806,33110.18132,33876.96167,33119.63958
Mixed,Male,cave,13,M_cave.wav,None,731.5793266,4271,27777.40017,34643.54662,20793.45095,21560.92323,22326.76988,23076.79824,23843.70937,24610.44273,28526.24595,29293.72812,30060.72366,30827.05292,31593.96467,32360.28806,33110.18132,33876.96167,33886.62182
Mixed,Male,cave,13,F_jaw.wav,space,510.9971701,4271,27777.40017,34643.54662,35410.15724,21560.92323,22326.76988,23076.79824,23843.70937,24610.44273,28526.24595,29293.72812,30060.72366,30827.05292,31593.96467,32360.28806,33110.18132,33876.96167,34652.72817
Mixed,Male,cave,13,F_reek.wav,None,725.499108,4271,27777.40017,34643.54662,35410.15724,36176.69736,22326.76988,23076.79824,23843.70937,24610.44273,28526.24595,29293.72812,30060.72366,30827.05292,31593.96467,32360.28806,33110.18132,33876.96167,35420.24188
Mixed,Male,cave,13,M_cave.wav,None,723.2473921,4271,27777.40017,34643.54662,35410.15724,36176.69736,36944.00145,23076.79824,23843.70937,24610.44273,28526.24595,29293.72812,30060.72366,30827.05292,31593.96467,32360.28806,33110.18132,33876.96167,36186.27588
Mixed,Male,cave,13,F_jolt.wav,space,425.5970847,4271,27777.40017,34643.54662,35410.15724,36176.69736,36944.00145,37693.14527,23843.70937,24610.44273,28526.24595,29293.72812,30060.72366,30827.05292,31593.96467,32360.28806,33110.18132,33876.96167,36954.06847
Mixed,Male,cave,13,M_dime.wav,None,734.7947378,4271,27777.40017,34643.54662,35410.15724,36176.69736,36944.00145,37693.14527,38459.79731,24610.44273,28526.24595,29293.72812,30060.72366,30827.05292,31593.96467,32360.28806,33110.18132,33876.96167,37702.10235
Mixed,Male,cave,13,F_dime.wav,None,731.8282118,4271,27777.40017,34643.54662,35410.15724,36176.69736,36944.00145,37693.14527,38459.79731,39226.9193,28526.24595,29293.72812,30060.72366,30827.05292,31593.96467,32360.28806,33110.18132,33876.96167,38468.93619
Mixed,Male,done,39,M_romp.wav,None,727.8859317,4271,42360.48037,34643.54662,35410.15724,36176.69736,36944.00145,37693.14527,38459.79731,39226.9193,28526.24595,29293.72812,30060.72366,30827.05292,31593.96467,32360.28806,33110.18132,33876.96167,39236.66354
Mixed,Male,done,39,F_lash.wav,None,719.1217723,4271,42360.48037,34643.54662,35410.15724,36176.69736,36944.00145,37693.14527,38459.79731,39226.9193,43110.10032,29293.72812,30060.72366,30827.05292,31593.96467,32360.28806,33110.18132,33876.96167,42370.84327
Mixed,Male,done,39,F_reek.wav,None,733.9961408,4271,42360.48037,34643.54662,35410.15724,36176.69736,36944.00145,37693.14527,38459.79731,39226.9193,43110.10032,43876.34209,30060.72366,30827.05292,31593.96467,32360.28806,33110.18132,33876.96167,43119.81797
Mixed,Male,done,39,M_done.wav,None,736.3341162,4271,42360.48037,34643.54662,35410.15724,36176.69736,36944.00145,37693.14527,38459.79731,39226.9193,43110.10032,43876.34209,44643.3772,30827.05292,31593.96467,32360.28806,33110.18132,33876.96167,43885.42037
Mixed,Male,done,39,F_jaw.wav,space,510.5742197,4271,42360.48037,34643.54662,35410.15724,36176.69736,36944.00145,37693.14527,38459.79731,39226.9193,43110.10032,43876.34209,44643.3772,45410.05088,31593.96467,32360.28806,33110.18132,33876.96167,44653.00148
Mixed,Male,done,39,M_done.wav,None,729.4509718,4271,42360.48037,34643.54662,35410.15724,36176.69736,36944.00145,37693.14527,38459.79731,39226.9193,43110.10032,43876.34209,44643.3772,45410.05088,46176.80526,32360.28806,33110.18132,33876.96167,45419.83748
Mixed,Male,done,39,F_bluff.wav,None,726.5775069,4271,42360.48037,34643.54662,35410.15724,36176.69736,36944.00145,37693.14527,38459.79731,39226.9193,43110.10032,43876.34209,44643.3772,45410.05088,46176.80526,46943.78132,33110.18132,33876.96167,46186.43356
Mixed,Male,done,39,M_bluff.wav,space,0.034318306,4271,42360.48037,34643.54662,35410.15724,36176.69736,36944.00145,37693.14527,38459.79731,39226.9193,43110.10032,43876.34209,44643.3772,45410.05088,46176.80526,46943.78132,47710.34246,33876.96167,46954.01405
Mixed,Male,done,39,M_knife.wav,None,720.475337,4271,42360.48037,34643.54662,35410.15724,36176.69736,36944.00145,37693.14527,38459.79731,39226.9193,43110.10032,43876.34209,44643.3772,45410.05088,46176.80526,46943.78132,47710.34246,48459.59759,47720.29354
Mixed,Male,done,39,M_done.wav,None,736.1705625,4271,42360.48037,49226.40762,35410.15724,36176.69736,36944.00145,37693.14527,38459.79731,39226.9193,43110.10032,43876.34209,44643.3772,45410.05088,46176.80526,46943.78132,47710.34246,48459.59759,48468.50675
Mixed,Male,done,39,M_greet.wav,space,511.6872471,4271,42360.48037,49226.40762,49993.37192,36176.69736,36944.00145,37693.14527,38459.79731,39226.9193,43110.10032,43876.34209,44643.3772,45410.05088,46176.80526,46943.78132,47710.34246,48459.59759,49235.81115
Mixed,Male,done,39,F_cling.wav,None,728.7574937,4271,42360.48037,49226.40762,49993.37192,50759.96306,36944.00145,37693.14527,38459.79731,39226.9193,43110.10032,43876.34209,44643.3772,45410.05088,46176.80526,46943.78132,47710.34246,48459.59759,50003.13255
Mixed,Male,done,39,M_done.wav,None,726.1016876,4271,42360.48037,49226.40762,49993.37192,50759.96306,51526.80463,37693.14527,38459.79731,39226.9193,43110.10032,43876.34209,44643.3772,45410.05088,46176.80526,46943.78132,47710.34246,48459.59759,50769.78769
Mixed,Male,done,39,F_lash.wav,space,418.6162418,4271,42360.48037,49226.40762,49993.37192,50759.96306,51526.80463,52293.19233,38459.79731,39226.9193,43110.10032,43876.34209,44643.3772,45410.05088,46176.80526,46943.78132,47710.34246,48459.59759,51536.83702
Mixed,Male,done,39,F_park.wav,None,720.5034718,4271,42360.48037,49226.40762,49993.37192,50759.96306,51526.80463,52293.19233,53043.05714,39226.9193,43110.10032,43876.34209,44643.3772,45410.05088,46176.80526,46943.78132,47710.34246,48459.59759,52303.08095
Mixed,Male,done,39,F_lash.wav,None,734.892746,4271,42360.48037,49226.40762,49993.37192,50759.96306,51526.80463,52293.19233,53043.05714,53809.66528,43110.10032,43876.34209,44643.3772,45410.05088,46176.80526,46943.78132,47710.34246,48459.59759,53052.65947
Mixed,Female,ball,11,M_reek.wav,None,732.6911166,4271,56943.48111,49226.40762,49993.37192,50759.96306,51526.80463,52293.19233,53043.05714,53809.66528,43110.10032,43876.34209,44643.3772,45410.05088,46176.80526,46943.78132,47710.34246,48459.59759,53818.73521
Mixed,Female,ball,11,M_lash.wav,None,720.1364818,4271,56943.48111,49226.40762,49993.37192,50759.96306,51526.80463,52293.19233,53043.05714,53809.66528,57692.6982,43876.34209,44643.3772,45410.05088,46176.80526,46943.78132,47710.34246,48459.59759,56953.65325
Mixed,Female,ball,11,M_priest.wav,None,735.6795943,4271,56943.48111,49226.40762,49993.37192,50759.96306,51526.80463,52293.19233,53043.05714,53809.66528,57692.6982,58459.54719,44643.3772,45410.05088,46176.80526,46943.78132,47710.34246,48459.59759,57702.01826
Mixed,Female,ball,11,M_lash.wav,None,732.9093935,4271,56943.48111,49226.40762,49993.37192,50759.96306,51526.80463,52293.19233,53043.05714,53809.66528,57692.6982,58459.54719,59226.21531,45410.05088,46176.80526,46943.78132,47710.34246,48459.59759,58468.7309
Mixed,Female,ball,11,F_ball.wav,None,730.0424217,4271,56943.48111,49226.40762,49993.37192,50759.96306,51526.80463,52293.19233,53043.05714,53809.66528,57692.6982,58459.54719,59226.21531,59992.80583,46176.80526,46943.78132,47710.34246,48459.59759,59235.65501
Mixed,Female,ball,11,M_cad.wav,space,529.3061547,4271,56943.48111,49226.40762,49993.37192,50759.96306,51526.80463,52293.19233,53043.05714,53809.66528,57692.6982,58459.54719,59226.21531,59992.80583,60759.67027,46943.78132,47710.34246,48459.59759,60002.01643
Mixed,Female,ball,11,F_ball.wav,None,724.1730597,4271,56943.48111,49226.40762,49993.37192,50759.96306,51526.80463,52293.19233,53043.05714,53809.66528,57692.6982,58459.54719,59226.21531,59992.80583,60759.67027,61526.91129,47710.34246,48459.59759,60769.10318
Mixed,Female,ball,11,M_cling.wav,space,426.4355656,4271,56943.48111,49226.40762,49993.37192,50759.96306,51526.80463,52293.19233,53043.05714,53809.66528,57692.6982,58459.54719,59226.21531,59992.80583,60759.67027,61526.91129,62275.92217,48459.59759,61536.85959
Mixed,Female,ball,11,M_knife.wav,None,735.8224327,4271,56943.48111,49226.40762,49993.37192,50759.96306,51526.80463,52293.19233,53043.05714,53809.66528,57692.6982,58459.54719,59226.21531,59992.80583,60759.67027,61526.91129,62275.92217,63043.10475,62284.99519
Mixed,Female,ball,11,F_cling.wav,None,732.279297,4271,56943.48111,63809.43556,49993.37192,50759.96306,51526.80463,52293.19233,53043.05714,53809.66528,57692.6982,58459.54719,59226.21531,59992.80583,60759.67027,61526.91129,62275.92217,63043.10475,63052.55002
Mixed,Female,ball,11,F_ball.wav,None,730.4901062,4271,56943.48111,63809.43556,64576.45676,50759.96306,51526.80463,52293.19233,53043.05714,53809.66528,57692.6982,58459.54719,59226.21531,59992.80583,60759.67027,61526.91129,62275.92217,63043.10475,63818.30608
Mixed,Female,ball,11,M_jaw.wav,space,515.5355376,4271,56943.48111,63809.43556,64576.45676,65343.48012,51526.80463,52293.19233,53043.05714,53809.66528,57692.6982,58459.54719,59226.21531,59992.80583,60759.67027,61526.91129,62275.92217,63043.10475,64583.71462
Mixed,Female,ball,11,F_depth.wav,None,722.3977814,4271,56943.48111,63809.43556,64576.45676,65343.48012,66109.84896,52293.19233,53043.05714,53809.66528,57692.6982,58459.54719,59226.21531,59992.80583,60759.67027,61526.91129,62275.92217,63043.10475,65353.82787
Mixed,Female,ball,11,F_depth.wav,None,721.3394786,4271,56943.48111,63809.43556,64576.45676,65343.48012,66109.84896,66859.59103,53043.05714,53809.66528,57692.6982,58459.54719,59226.21531,59992.80583,60759.67027,61526.91129,62275.92217,63043.10475,66119.00917
Mixed,Female,ball,11,F_ball.wav,None,735.3710383,4271,56943.48111,63809.43556,64576.45676,65343.48012,66109.84896,66859.59103,67626.42487,53809.66528,57692.6982,58459.54719,59226.21531,59992.80583,60759.67027,61526.91129,62275.92217,63043.10475,66869.02424
Mixed,Female,ball,11,F_cad.wav,space,479.133063,4271,56943.48111,63809.43556,64576.45676,65343.48012,66109.84896,66859.59103,67626.42487,68393.02992,57692.6982,58459.54719,59226.21531,59992.80583,60759.67027,61526.91129,62275.92217,63043.10475,67636.06461
Mixed,Male,tile,25,F_knife.wav,None,730.6416011,4271,71526.69116,63809.43556,64576.45676,65343.48012,66109.84896,66859.59103,67626.42487,68393.02992,57692.6982,58459.54719,59226.21531,59992.80583,60759.67027,61526.91129,62275.92217,63043.10475,68402.2229
Mixed,Male,tile,25,F_jolt.wav,None,719.985296,4271,71526.69116,63809.43556,64576.45676,65343.48012,66109.84896,66859.59103,67626.42487,68393.02992,72275.98926,58459.54719,59226.21531,59992.80583,60759.67027,61526.91129,62275.92217,63043.10475,71536.76807
Mixed,Male,tile,25,M_tile.wav,None,734.8921276,4271,71526.69116,63809.43556,64576.45676,65343.48012,66109.84896,66859.59103,67626.42487,68393.02992,72275.98926,73043.10877,59226.21531,59992.80583,60759.67027,61526.91129,62275.92217,63043.10475,72285.86706
Mixed,Male,tile,25,F_jaw.wav,space,470.013353,4271,71526.69116,63809.43556,64576.45676,65343.48012,66109.84896,66859.59103,67626.42487,68393.02992,72275.98926,73043.10877,73809.58768,59992.80583,60759.67027,61526.91129,62275.92217,63043.10475,73053.14766
Mixed,Male,tile,25,M_jaw.wav,None,729.3514176,4271,71526.69116,63809.43556,64576.45676,65343.48012,66109.84896,66859.59103,67626.42487,68393.02992,72275.98926,73043.10877,73809.58768,74576.09688,60759.67027,61526.91129,62275.92217,63043.10475,73819.19526
Mixed,Male,tile,25,M_tile.wav,None,727.5371836,4271,71526.69116,63809.43556,64576.45676,65343.48012,66109.84896,66859.59103,67626.42487,68393.02992,72275.98926,73043.10877,73809.58768,74576.09688,75342.70873,61526.91129,62275.92217,63043.10475,74585.02398
Mixed,Male,tile,25,F_depth.wav,space,498.6784351,4271,71526.69116,63809.43556,64576.45676,65343.48012,66109.84896,66859.59103,67626.42487,68393.02992,72275.98926,73043.10877,73809.58768,74576.09688,75342.70873,76109.04727,62275.92217,63043.10475,75352.35404
Mixed,Male,tile,25,M_tile.wav,None,725.1549969,4271,71526.69116,63809.43556,64576.45676,65343.48012,66109.84896,66859.59103,67626.42487,68393.02992,72275.98926,73043.10877,73809.58768,74576.09688,75342.70873,76109.04727,76876.68465,63043.10475,76118.04949
Mixed,Male,tile,25,F_cad.wav,space,556.4083606,4271,71526.69116,63809.43556,64576.45676,65343.48012,66109.84896,66859.59103,67626.42487,68393.02992,72275.98926,73043.10877,73809.58768,74576.09688,75342.70873,76109.04727,76876.68465,77625.91288,76886.61316
Mixed,Male,tile,25,F_jolt.wav,None,735.5250069,4271,71526.69116,78392.89728,64576.45676,65343.48012,66109.84896,66859.59103,67626.42487,68393.02992,72275.98926,73043.10877,73809.58768,74576.09688,75342.70873,76109.04727,76876.68465,77625.91288,77635.36062
Mixed,Male,tile,25,M_tile.wav,None,733.5518575,4271,71526.69116,78392.89728,79159.56756,65343.48012,66109.84896,66859.59103,67626.42487,68393.02992,72275.98926,73043.10877,73809.58768,74576.09688,75342.70873,76109.04727,76876.68465,77625.91288,78402.10109
Mixed,Male,tile,25,M_park.wav,space,505.0721564,4271,71526.69116,78392.89728,79159.56756,79926.15004,66109.84896,66859.59103,67626.42487,68393.02992,72275.98926,73043.10877,73809.58768,74576.09688,75342.70873,76109.04727,76876.68465,77625.91288,79169.99199
Mixed,Male,tile,25,F_lash.wav,None,727.5115224,4271,71526.69116,78392.89728,79159.56756,79926.15004,80692.84506,66859.59103,67626.42487,68393.02992,72275.98926,73043.10877,73809.58768,74576.09688,75342.70873,76109.04727,76876.68465,77625.91288,79935.92087
Mixed,Male,tile,25,M_gnash.wav,None,725.5989709,4271,71526.69116,78392.89728,79159.56756,79926.15004,80692.84506,81459.98838,67626.42487,68393.02992,72275.98926,73043.10877,73809.58768,74576.09688,75342.70873,76109.04727,76876.68465,77625.91288,80701.93293
Mixed,Male,tile,25,F_jolt.wav,None,721.6607104,4271,71526.69116,78392.89728,79159.56756,79926.15004,80692.84506,81459.98838,82226.47162,68393.02992,72275.98926,73043.10877,73809.58768,74576.09688,75342.70873,76109.04727,76876.68465,77625.91288,81470.00531
Mixed,Male,tile,25,M_greet.wav,None,719.3576721,4271,71526.69116,78392.89728,79159.56756,79926.15004,80692.84506,81459.98838,82226.47162,82976.01056,72275.98926,73043.10877,73809.58768,74576.09688,75342.70873,76109.04727,76876.68465,77625.91288,82236.56275
Mixed,Male,done,42,F_cad.wav,None,734.2672865,4271,86109.76394,78392.89728,79159.56756,79926.15004,80692.84506,81459.98838,82226.47162,82976.01056,72275.98926,73043.10877,73809.58768,74576.09688,75342.70873,76109.04727,76876.68465,77625.91288,82985.78479
Mixed,Male,done,42,M_knife.wav,None,719.3629281,4271,86109.76394,78392.89728,79159.56756,79926.15004,80692.84506,81459.98838,82226.47162,82976.01056,86859.28309,73043.10877,73809.58768,74576.09688,75342.70873,76109.04727,76876.68465,77625.91288,86119.82292
Mixed,Male,done,42,M_cad.wav,None,734.5405966,4271,86109.76394,78392.89728,79159.56756,79926.15004,80692.84506,81459.98838,82226.47162,82976.01056,86859.28309,87626.08941,73809.58768,74576.09688,75342.70873,76109.04727,76876.68465,77625.91288,86868.8273
Mixed,Male,done,42,M_done.wav,None,731.942297,4271,86109.76394,78392.89728,79159.56756,79926.15004,80692.84506,81459.98838,82226.47162,82976.01056,86859.28309,87626.08941,88392.76093,74576.09688,75342.70873,76109.04727,76876.68465,77625.91288,87635.65464
Mixed,Male,done,42,F_reek.wav,space,568.6006434,4271,86109.76394,78392.89728,79159.56756,79926.15004,80692.84506,81459.98838,82226.47162,82976.01056,86859.28309,87626.08941,88392.76093,89159.16749,75342.70873,76109.04727,76876.68465,77625.91288,88402.33946
Mixed,Male,done,42,M_bluff.wav,None,727.8744928,4271,86109.76394,78392.89728,79159.56756,79926.15004,80692.84506,81459.98838,82226.47162,82976.01056,86859.28309,87626.08941,88392.76093,89159.16749,89926.11263,76109.04727,76876.68465,77625.91288,89168.22413
Mixed,Male,done,42,F_depth.wav,None,724.4800697,4271,86109.76394,78392.89728,79159.56756,79926.15004,80692.84506,81459.98838,82226.47162,82976.01056,86859.28309,87626.08941,88392.76093,89159.16749,89926.11263,90693.06798,76876.68465,77625.91288,89935.73104
Mixed,Male,done,42,F_cad.wav,None,721.3855456,4271,86109.76394,78392.89728,79159.56756,79926.15004,80692.84506,81459.98838,82226.47162,82976.01056,86859.28309,87626.08941,88392.76093,89159.16749,89926.11263,90693.06798,91460.09195,77625.91288,90703.03204
Mixed,Male,done,42,F_park.wav,None,718.9659481,4271,86109.76394,78392.89728,79159.56756,79926.15004,80692.84506,81459.98838,82226.47162,82976.01056,86859.28309,87626.08941,88392.76093,89159.16749,89926.11263,90693.06798,91460.09195,92209.31369,91469.74314
Mixed,Male,done,42,M_done.wav,None,733.5144477,4271,86109.76394,92976.06157,79159.56756,79926.15004,80692.84506,81459.98838,82226.47162,82976.01056,86859.28309,87626.08941,88392.76093,89159.16749,89926.11263,90693.06798,91460.09195,92209.31369,92219.37174
Mixed,Male,done,42,F_park.wav,space,497.009513,4271,86109.76394,92976.06157,93742.67033,79926.15004,80692.84506,81459.98838,82226.47162,82976.01056,86859.28309,87626.08941,88392.76093,89159.16749,89926.11263,90693.06798,91460.09195,92209.31369,92985.84199
Mixed,Male,done,42,M_done.wav,None,728.0219691,4271,86109.76394,92976.06157,93742.67033,94508.92168,80692.84506,81459.98838,82226.47162,82976.01056,86859.28309,87626.08941,88392.76093,89159.16749,89926.11263,90693.06798,91460.09195,92209.31369,93752.45878
Mixed,Male,done,42,F_depth.wav,space,476.9144296,4271,86109.76394,92976.06157,93742.67033,94508.92168,95275.87084,81459.98838,82226.47162,82976.01056,86859.28309,87626.08941,88392.76093,89159.16749,89926.11263,90693.06798,91460.09195,92209.31369,94517.92916
Mixed,Male,done,42,F_jolt.wav,None,723.5043161,4271,86109.76394,92976.06157,93742.67033,94508.92168,95275.87084,96043.09053,82226.47162,82976.01056,86859.28309,87626.08941,88392.76093,89159.16749,89926.11263,90693.06798,91460.09195,92209.31369,95284.93954
Mixed,Male,done,42,M_done.wav,None,719.2003024,4271,86109.76394,92976.06157,93742.67033,94508.92168,95275.87084,96043.09053,96792.3741,82976.01056,86859.28309,87626.08941,88392.76093,89159.16749,89926.11263,90693.06798,91460.09195,92209.31369,96053.37181
Mixed,Male,done,42,M_knife.wav,space,520.0967835,4271,86109.76394,92976.06157,93742.67033,94508.92168,95275.87084,96043.09053,96792.3741,97559.0317,86859.28309,87626.08941,88392.76093,89159.16749,89926.11263,90693.06798,91460.09195,92209.31369,96802.69309
Mixed,Male,ball,2,F_bluff.wav,None,731.9126162,4271,100693.0287,92976.06157,93742.67033,94508.92168,95275.87084,96043.09053,96792.3741,97559.0317,86859.28309,87626.08941,88392.76093,89159.16749,89926.11263,90693.06798,91460.09195,92209.31369,97568.68381
Mixed,Male,ball,2,F_cad.wav,None,720.0996899,4271,100693.0287,92976.06157,93742.67033,94508.92168,95275.87084,96043.09053,96792.3741,97559.0317,101442.3033,87626.08941,88392.76093,89159.16749,89926.11263,90693.06798,91460.09195,92209.31369,100703.1668
Mixed,Male,ball,2,M_bluff.wav,None,735.2346927,4271,100693.0287,92976.06157,93742.67033,94508.92168,95275.87084,96043.09053,96792.3741,97559.0317,101442.3033,102209.2293,88392.76093,89159.16749,89926.11263,90693.06798,91460.09195,92209.31369,101452.306
Mixed,Male,ball,2,F_cad.wav,None,732.5578625,4271,100693.0287,92976.06157,93742.67033,94508.92168,95275.87084,96043.09053,96792.3741,97559.0317,101442.3033,102209.2293,102975.4649,89159.16749,89926.11263,90693.06798,91460.09195,92209.31369,102219.1528
Mixed,Male,ball,2,M_ball.wav,None,731.6844454,4271,100693.0287,92976.06157,93742.67033,94508.92168,95275.87084,96043.09053,96792.3741,97559.0317,101442.3033,102209.2293,102975.4649,103742.1454,89926.11263,90693.06798,91460.09195,92209.31369,102984.3131
Mixed,Male,ball,2,F_jaw.wav,space,443.3823279,4271,100693.0287,92976.06157,93742.67033,94508.92168,95275.87084,96043.09053,96792.3741,97559.0317,101442.3033,102209.2293,102975.4649,103742.1454,104509.1279,90693.06798,91460.09195,92209.31369,103751.3093
Mixed,Male,ball,2,M_ball.wav,None,724.6763953,4271,100693.0287,92976.06157,93742.67033,94508.92168,95275.87084,96043.09053,96792.3741,97559.0317,101442.3033,102209.2293,102975.4649,103742.1454,104509.1279,105275.579,91460.09195,92209.31369,104519.0787
Mixed,Male,ball,2,F_depth.wav,space,461.8134364,4271,100693.0287,92976.06157,93742.67033,94508.92168,95275.87084,96043.09053,96792.3741,97559.0317,101442.3033,102209.2293,102975.4649,103742.1454,104509.1279,105275.579,106042.7266,92209.31369,105284.8289
Mixed,Male,ball,2,M_depth.wav,None,718.7631303,4271,100693.0287,92976.06157,93742.67033,94508.92168,95275.87084,96043.09053,96792.3741,97559.0317,101442.3033,102209.2293,102975.4649,103742.1454,104509.1279,105275.579,106042.7266,106792.1892,106052.8688
Mixed,Male,ball,2,F_jolt.wav,None,734.3303584,4271,100693.0287,107558.5114,93742.67033,94508.92168,95275.87084,96043.09053,96792.3741,97559.0317,101442.3033,102209.2293,102975.4649,103742.1454,104509.1279,105275.579,106042.7266,106792.1892,106801.5578
Mixed,Male,ball,2,F_knife.wav,None,734.6160351,4271,100693.0287,107558.5114,108325.7938,94508.92168,95275.87084,96043.09053,96792.3741,97559.0317,101442.3033,102209.2293,102975.4649,103742.1454,104509.1279,105275.579,106042.7266,106792.1892,107567.5445
Mixed,Male,ball,2,M_ball.wav,None,731.2556212,4271,100693.0287,107558.5114,108325.7938,109092.4656,95275.87084,96043.09053,96792.3741,97559.0317,101442.3033,102209.2293,102975.4649,103742.1454,104509.1279,105275.579,106042.7266,106792.1892,108335.2199
Mixed,Male,ball,2,M_bluff.wav,space,316.2486786,4271,100693.0287,107558.5114,108325.7938,109092.4656,109859.0583,96043.09053,96792.3741,97559.0317,101442.3033,102209.2293,102975.4649,103742.1454,104509.1279,105275.579,106042.7266,106792.1892,109102.3651
Mixed,Male,ball,2,M_ball.wav,None,725.8308516,4271,100693.0287,107558.5114,108325.7938,109092.4656,109859.0583,110625.7462,96792.3741,97559.0317,101442.3033,102209.2293,102975.4649,103742.1454,104509.1279,105275.579,106042.7266,106792.1892,109868.7222
Mixed,Male,ball,2,M_jaw.wav,space,591.2683653,4271,100693.0287,107558.5114,108325.7938,109092.4656,109859.0583,110625.7462,111392.7829,97559.0317,101442.3033,102209.2293,102975.4649,103742.1454,104509.1279,105275.579,106042.7266,106792.1892,110635.2895
Mixed,Male,ball,2,F_cling.wav,None,719.7667095,4271,100693.0287,107558.5114,108325.7938,109092.4656,109859.0583,110625.7462,111392.7829,112141.9267,101442.3033,102209.2293,102975.4649,103742.1454,104509.1279,105275.579,106042.7266,106792.1892,111402.7194
Mixed,Male,done,41,F_priest.wav,None,734.8361672,4271,115275.9518,107558.5114,108325.7938,109092.4656,109859.0583,110625.7462,111392.7829,112141.9267,101442.3033,102209.2293,102975.4649,103742.1454,104509.1279,105275.579,106042.7266,106792.1892,112151.9334
Mixed,Male,done,41,F_lash.wav,None,720.2007901,4271,115275.9518,107558.5114,108325.7938,109092.4656,109859.0583,110625.7462,111392.7829,112141.9267,116025.1034,102209.2293,102975.4649,103742.1454,104509.1279,105275.579,106042.7266,106792.1892,115285.7326
Mixed,Male,done,41,M_done.wav,None,735.7340087,4271,115275.9518,107558.5114,108325.7938,109092.4656,109859.0583,110625.7462,111392.7829,112141.9267,116025.1034,116792.46,102975.4649,103742.1454,104509.1279,105275.579,106042.7266,106792.1892,116034.3761
Mixed,Male,done,41,M_jaw.wav,space,488.3316127,4271,115275.9518,107558.5114,108325.7938,109092.4656,109859.0583,110625.7462,111392.7829,112141.9267,116025.1034,116792.46,117558.9727,103742.1454,104509.1279,105275.579,106042.7266,106792.1892,116802.1598
Mixed,Male,done,41,M_done.wav,None,728.9102259,4271,115275.9518,107558.5114,108325.7938,109092.4656,109859.0583,110625.7462,111392.7829,112141.9267,116025.1034,116792.46,117558.9727,118325.7076,104509.1279,105275.579,106042.7266,106792.1892,117569.006
Mixed,Male,done,41,F_priest.wav,space,659.0990108,4271,115275.9518,107558.5114,108325.7938,109092.4656,109859.0583,110625.7462,111392.7829,112141.9267,116025.1034,116792.46,117558.9727,118325.7076,119092.3009,105275.579,106042.7266,106792.1892,118335.3476
Mixed,Male,done,41,F_greet.wav,None,724.6776316,4271,115275.9518,107558.5114,108325.7938,109092.4656,109859.0583,110625.7462,111392.7829,112141.9267,116025.1034,116792.46,117558.9727,118325.7076,119092.3009,119859.2902,106042.7266,106792.1892,119102.2
Mixed,Male,done,41,M_gnash.wav,None,721.3357682,4271,115275.9518,107558.5114,108325.7938,109092.4656,109859.0583,110625.7462,111392.7829,112141.9267,116025.1034,116792.46,117558.9727,118325.7076,119092.3009,119859.2902,120625.8146,106792.1892,119869.9743
Mixed,Male,done,41,M_done.wav,None,719.6773584,4271,115275.9518,107558.5114,108325.7938,109092.4656,109859.0583,110625.7462,111392.7829,112141.9267,116025.1034,116792.46,117558.9727,118325.7076,119092.3009,119859.2902,120625.8146,121375.4704,120635.9935
Mixed,Male,done,41,F_lash.wav,n,425.5092796,4271,115275.9518,122142.2192,108325.7938,109092.4656,109859.0583,110625.7462,111392.7829,112141.9267,116025.1034,116792.46,117558.9727,118325.7076,119092.3009,119859.2902,120625.8146,121375.4704,121384.9175
Mixed,Male,done,41,M_done.wav,None,731.5425347,4271,115275.9518,122142.2192,122908.849,109092.4656,109859.0583,110625.7462,111392.7829,112141.9267,116025.1034,116792.46,117558.9727,118325.7076,119092.3009,119859.2902,120625.8146,121375.4704,122152.165
Mixed,Male,done,41,F_romp.wav,space,435.9844089,4271,115275.9518,122142.2192,122908.849,123675.2633,109859.0583,110625.7462,111392.7829,112141.9267,116025.1034,116792.46,117558.9727,118325.7076,119092.3009,119859.2902,120625.8146,121375.4704,122918.3969
Mixed,Male,done,41,F_depth.wav,None,726.8406143,4271,115275.9518,122142.2192,122908.849,123675.2633,124442.1905,110625.7462,111392.7829,112141.9267,116025.1034,116792.46,117558.9727,118325.7076,119092.3009,119859.2902,120625.8146,121375.4704,123684.6489
Mixed,Male,done,41,F_priest.wav,None,724.9175506,4271,115275.9518,122142.2192,122908.849,123675.2633,124442.1905,125209.3233,111392.7829,112141.9267,116025.1034,116792.46,117558.9727,118325.7076,119092.3009,119859.2902,120625.8146,121375.4704,124451.3454
Mixed,Male,done,41,M_depth.wav,None,721.1950943,4271,115275.9518,122142.2192,122908.849,123675.2633,124442.1905,125209.3233,125975.9425,112141.9267,116025.1034,116792.46,117558.9727,118325.7076,119092.3009,119859.2902,120625.8146,121375.4704,125219.2422
Mixed,Male,done,41,M_cling.wav,None,719.2754317,4271,115275.9518,122142.2192,122908.849,123675.2633,124442.1905,125209.3233,125975.9425,126724.9723,116025.1034,116792.46,117558.9727,118325.7076,119092.3009,119859.2902,120625.8146,121375.4704,125985.6454
Mixed,Male,cave,18,M_dime.wav,None,735.2569532,4271,129859.2451,122142.2192,122908.849,123675.2633,124442.1905,125209.3233,125975.9425,126724.9723,116025.1034,116792.46,117558.9727,118325.7076,119092.3009,119859.2902,120625.8146,121375.4704,126734.28
Mixed,Male,cave,18,M_reek.wav,None,719.588316,4271,129859.2451,122142.2192,122908.849,123675.2633,124442.1905,125209.3233,125975.9425,126724.9723,130608.6613,116792.46,117558.9727,118325.7076,119092.3009,119859.2902,120625.8146,121375.4704,129869.1519
Mixed,Male,cave,18,M_romp.wav,None,740.0738862,4271,129859.2451,122142.2192,122908.849,123675.2633,124442.1905,125209.3233,125975.9425,126724.9723,130608.6613,131375.6268,117558.9727,118325.7076,119092.3009,119859.2902,120625.8146,121375.4704,130612.9913
Mixed,Male,cave,18,F_park.wav,None,732.1494436,4271,129859.2451,122142.2192,122908.849,123675.2633,124442.1905,125209.3233,125975.9425,126724.9723,130608.6613,131375.6268,132142.0964,118325.7076,119092.3009,119859.2902,120625.8146,121375.4704,131385.1494
Mixed,Male,cave,18,M_cave.wav,None,729.5004395,4271,129859.2451,122142.2192,122908.849,123675.2633,124442.1905,125209.3233,125975.9425,126724.9723,130608.6613,131375.6268,132142.0964,132908.7661,119092.3009,119859.2902,120625.8146,121375.4704,132152.1202
Mixed,Male,cave,18,F_priest.wav,space,507.4830968,4271,129859.2451,122142.2192,122908.849,123675.2633,124442.1905,125209.3233,125975.9425,126724.9723,130608.6613,131375.6268,132142.0964,132908.7661,133675.3656,119859.2902,120625.8146,121375.4704,132918.7667
Mixed,Male,cave,18,M_jaw.wav,None,724.2998211,4271,129859.2451,122142.2192,122908.849,123675.2633,124442.1905,125209.3233,125975.9425,126724.9723,130608.6613,131375.6268,132142.0964,132908.7661,133675.3656,134442.6048,120625.8146,121375.4704,133685.223
Mixed,Male,cave,18,F_gnash.wav,None,721.0865738,4271,129859.2451,122142.2192,122908.849,123675.2633,124442.1905,125209.3233,125975.9425,126724.9723,130608.6613,131375.6268,132142.0964,132908.7661,133675.3656,134442.6048,135208.9993,121375.4704,134452.7886
Mixed,Male,cave,18,M_cave.wav,None,719.2825428,4271,129859.2451,122142.2192,122908.849,123675.2633,124442.1905,125209.3233,125975.9425,126724.9723,130608.6613,131375.6268,132142.0964,132908.7661,133675.3656,134442.6048,135208.9993,135958.5568,135218.9642
Mixed,Male,cave,18,F_bluff.wav,space,418.0878629,4271,129859.2451,136725.0613,122908.849,123675.2633,124442.1905,125209.3233,125975.9425,126724.9723,130608.6613,131375.6268,132142.0964,132908.7661,133675.3656,134442.6048,135208.9993,135958.5568,135968.1031
Mixed,Male,cave,18,M_cave.wav,None,731.9398234,4271,129859.2451,136725.0613,137492.0083,123675.2633,124442.1905,125209.3233,125975.9425,126724.9723,130608.6613,131375.6268,132142.0964,132908.7661,133675.3656,134442.6048,135208.9993,135958.5568,136734.3981
Mixed,Male,cave,18,F_greet.wav,space,596.0253188,4271,129859.2451,136725.0613,137492.0083,138258.6721,124442.1905,125209.3233,125975.9425,126724.9723,130608.6613,131375.6268,132142.0964,132908.7661,133675.3656,134442.6048,135208.9993,135958.5568,137502.1832
Mixed,Male,cave,18,M_cave.wav,None,725.4082104,4271,129859.2451,136725.0613,137492.0083,138258.6721,139025.7412,125209.3233,125975.9425,126724.9723,130608.6613,131375.6268,132142.0964,132908.7661,133675.3656,134442.6048,135208.9993,135958.5568,138268.7064
Mixed,Male,cave,18,F_jaw.wav,space,541.9353005,4271,129859.2451,136725.0613,137492.0083,138258.6721,139025.7412,139792.1719,125975.9425,126724.9723,130608.6613,131375.6268,132142.0964,132908.7661,133675.3656,134442.6048,135208.9993,135958.5568,139036.1762
Mixed,Male,cave,18,F_jolt.wav,None,723.0937327,4271,129859.2451,136725.0613,137492.0083,138258.6721,139025.7412,139792.1719,140558.7504,126724.9723,130608.6613,131375.6268,132142.0964,132908.7661,133675.3656,134442.6048,135208.9993,135958.5568,139801.4518
Mixed,Male,cave,18,F_lash.wav,None,720.7814194,4271,129859.2451,136725.0613,137492.0083,138258.6721,139025.7412,139792.1719,140558.7504,141308.797,130608.6613,131375.6268,132142.0964,132908.7661,133675.3656,134442.6048,135208.9993,135958.5568,140568.5122
Mixed,Female,done,46,M_jolt.wav,None,735.6431116,4271,144442.2093,136725.0613,137492.0083,138258.6721,139025.7412,139792.1719,140558.7504,141308.797,130608.6613,131375.6268,132142.0964,132908.7661,133675.3656,134442.6048,135208.9993,135958.5568,141318.1016
Mixed,Female,done,46,F_done.wav,None,720.1210228,4271,144442.2093,136725.0613,137492.0083,138258.6721,139025.7412,139792.1719,140558.7504,141308.797,145191.5733,131375.6268,132142.0964,132908.7661,133675.3656,134442.6048,135208.9993,135958.5568,144452.4009
Mixed,Female,done,46,M_priest.wav,space,592.6717068,4271,144442.2093,136725.0613,137492.0083,138258.6721,139025.7412,139792.1719,140558.7504,141308.797,145191.5733,145958.2368,132142.0964,132908.7661,133675.3656,134442.6048,135208.9993,135958.5568,145201.4093
Mixed,Female,done,46,F_reek.wav,None,733.0006002,4271,144442.2093,136725.0613,137492.0083,138258.6721,139025.7412,139792.1719,140558.7504,141308.797,145191.5733,145958.2368,146724.925,132908.7661,133675.3656,134442.6048,135208.9993,135958.5568,145967.3555
Mixed,Female,done,46,M_dime.wav,None,730.9588143,4271,144442.2093,136725.0613,137492.0083,138258.6721,139025.7412,139792.1719,140558.7504,141308.797,145191.5733,145958.2368,146724.925,147491.59,133675.3656,134442.6048,135208.9993,135958.5568,146733.9525
Mixed,Female,done,46,F_done.wav,None,728.3877213,4271,144442.2093,136725.0613,137492.0083,138258.6721,139025.7412,139792.1719,140558.7504,141308.797,145191.5733,145958.2368,146724.925,147491.59,148258.2921,134442.6048,135208.9993,135958.5568,147500.9914
Mixed,Female,done,46,M_jolt.wav,space,422.1296967,4271,144442.2093,136725.0613,137492.0083,138258.6721,139025.7412,139792.1719,140558.7504,141308.797,145191.5733,145958.2368,146724.925,147491.59,148258.2921,149025.4082,135208.9993,135958.5568,148267.8787
Mixed,Female,done,46,F_done.wav,None,722.2113498,4271,144442.2093,136725.0613,137492.0083,138258.6721,139025.7412,139792.1719,140558.7504,141308.797,145191.5733,145958.2368,146724.925,147491.59,148258.2921,149025.4082,149792.3531,135958.5568,149035.6122
Mixed,Female,done,46,M_park.wav,space,631.5417001,4271,144442.2093,136725.0613,137492.0083,138258.6721,139025.7412,139792.1719,140558.7504,141308.797,145191.5733,145958.2368,146724.925,147491.59,148258.2921,149025.4082,149792.3531,150541.5958,149802.4646
Mixed,Female,done,46,F_done.wav,None,734.834312,4271,144442.2093,151308.2194,137492.0083,138258.6721,139025.7412,139792.1719,140558.7504,141308.797,145191.5733,145958.2368,146724.925,147491.59,148258.2921,149025.4082,149792.3531,150541.5958,150551.017
Mixed,Female,done,46,F_bluff.wav,space,444.2897546,4271,144442.2093,151308.2194,152075.1844,138258.6721,139025.7412,139792.1719,140558.7504,141308.797,145191.5733,145958.2368,146724.925,147491.59,148258.2921,149025.4082,149792.3531,150541.5958,151317.6764
Mixed,Female,done,46,M_knife.wav,None,729.0054518,4271,144442.2093,151308.2194,152075.1844,152841.696,139025.7412,139792.1719,140558.7504,141308.797,145191.5733,145958.2368,146724.925,147491.59,148258.2921,149025.4082,149792.3531,150541.5958,152084.8173
Mixed,Female,done,46,M_depth.wav,None,727.5569709,4271,144442.2093,151308.2194,152075.1844,152841.696,153608.4918,139792.1719,140558.7504,141308.797,145191.5733,145958.2368,146724.925,147491.59,148258.2921,149025.4082,149792.3531,150541.5958,152851.2866
Mixed,Female,done,46,F_reek.wav,None,730.4254882,4271,144442.2093,151308.2194,152075.1844,152841.696,153608.4918,154375.2846,140558.7504,141308.797,145191.5733,145958.2368,146724.925,147491.59,148258.2921,149025.4082,149792.3531,150541.5958,153612.8704
Mixed,Female,done,46,F_priest.wav,None,723.0810565,4271,144442.2093,151308.2194,152075.1844,152841.696,153608.4918,154375.2846,155141.5344,141308.797,145191.5733,145958.2368,146724.925,147491.59,148258.2921,149025.4082,149792.3531,150541.5958,154384.808
Mixed,Female,done,46,M_gnash.wav,None,720.8658238,4271,144442.2093,151308.2194,152075.1844,152841.696,153608.4918,154375.2846,155141.5344,155891.7795,145191.5733,145958.2368,146724.925,147491.59,148258.2921,149025.4082,149792.3531,150541.5958,155151.6017
Mixed,Male,cave,16,F_bluff.wav,None,735.6990725,4271,159025.3637,151308.2194,152075.1844,152841.696,153608.4918,154375.2846,155141.5344,155891.7795,145191.5733,145958.2368,146724.925,147491.59,148258.2921,149025.4082,149792.3531,150541.5958,155901.3419
Mixed,Male,cave,16,F_bluff.wav,None,720.1129845,4271,159025.3637,151308.2194,152075.1844,152841.696,153608.4918,154375.2846,155141.5344,155891.7795,159774.3517,145958.2368,146724.925,147491.59,148258.2921,149025.4082,149792.3531,150541.5958,159035.1645
Mixed,Male,cave,16,M_cave.wav,None,736.3257683,4271,159025.3637,151308.2194,152075.1844,152841.696,153608.4918,154375.2846,155141.5344,155891.7795,159774.3517,160541.4669,146724.925,147491.59,148258.2921,149025.4082,149792.3531,150541.5958,159783.4739
Mixed,Male,cave,16,F_lash.wav,space,635.0189815,4271,159025.3637,151308.2194,152075.1844,152841.696,153608.4918,154375.2846,155141.5344,155891.7795,159774.3517,160541.4669,161308.3477,147491.59,148258.2921,149025.4082,149792.3531,150541.5958,160550.8111
Mixed,Male,cave,16,F_priest.wav,None,729.3674946,4271,159025.3637,151308.2194,152075.1844,152841.696,153608.4918,154375.2846,155141.5344,155891.7795,159774.3517,160541.4669,161308.3477,162074.7181,148258.2921,149025.4082,149792.3531,150541.5958,161318.4546
Mixed,Male,cave,16,F_lash.wav,None,728.8258211,4271,159025.3637,151308.2194,152075.1844,152841.696,153608.4918,154375.2846,155141.5344,155891.7795,159774.3517,160541.4669,161308.3477,162074.7181,162841.265,149025.4082,149792.3531,150541.5958,162083.6304
Mixed,Male,cave,16,M_depth.wav,None,726.6350132,4271,159025.3637,151308.2194,152075.1844,152841.696,153608.4918,154375.2846,155141.5344,155891.7795,159774.3517,160541.4669,161308.3477,162074.7181,162841.265,163608.925,149792.3531,150541.5958,162850.3025
Mixed,Male,cave,16,M_depth.wav,None,722.1278725,4271,159025.3637,151308.2194,152075.1844,152841.696,153608.4918,154375.2846,155141.5344,155891.7795,159774.3517,160541.4669,161308.3477,162074.7181,162841.265,163608.925,164375.0385,150541.5958,163619.2758
Mixed,Male,cave,16,M_cave.wav,None,721.0463812,4271,159025.3637,151308.2194,152075.1844,152841.696,153608.4918,154375.2846,155141.5344,155891.7795,159774.3517,160541.4669,161308.3477,162074.7181,162841.265,163608.925,164375.0385,165124.8068,164384.8928
Mixed,Male,cave,16,M_gnash.wav,space,572.0129986,4271,159025.3637,165891.2322,152075.1844,152841.696,153608.4918,154375.2846,155141.5344,155891.7795,159774.3517,160541.4669,161308.3477,162074.7181,162841.265,163608.925,164375.0385,165124.8068,165133.7444
Mixed,Male,cave,16,M_cave.wav,None,733.6643972,4271,159025.3637,165891.2322,166657.8453,152841.696,153608.4918,154375.2846,155141.5344,155891.7795,159774.3517,160541.4669,161308.3477,162074.7181,162841.265,163608.925,164375.0385,165124.8068,165900.3541
Mixed,Male,cave,16,M_jaw.wav,space,502.946584,4271,159025.3637,165891.2322,166657.8453,167425.0356,153608.4918,154375.2846,155141.5344,155891.7795,159774.3517,160541.4669,161308.3477,162074.7181,162841.265,163608.925,164375.0385,165124.8068,166666.7829
Mixed,Male,cave,16,M_cave.wav,None,727.1194896,4271,159025.3637,165891.2322,166657.8453,167425.0356,168191.5538,154375.2846,155141.5344,155891.7795,159774.3517,160541.4669,161308.3477,162074.7181,162841.265,163608.925,164375.0385,165124.8068,167434.7554
Mixed,Male,cave,16,F_depth.wav,space,432.3039996,4271,159025.3637,165891.2322,166657.8453,167425.0356,168191.5538,168958.5685,155141.5344,155891.7795,159774.3517,160541.4669,161308.3477,162074.7181,162841.265,163608.925,164375.0385,165124.8068,168201.4084
Mixed,Male,cave,16,F_priest.wav,None,721.2856826,4271,159025.3637,165891.2322,166657.8453,167425.0356,168191.5538,168958.5685,169725.1658,155891.7795,159774.3517,160541.4669,161308.3477,162074.7181,162841.265,163608.925,164375.0385,165124.8068,168968.6757
Mixed,Male,cave,16,F_depth.wav,None,719.618306,4271,159025.3637,165891.2322,166657.8453,167425.0356,168191.5538,168958.5685,169725.1658,170474.2892,159774.3517,160541.4669,161308.3477,162074.7181,162841.265,163608.925,164375.0385,165124.8068,169735.0059
Mixed,Male,tile,30,F_greet.wav,None,735.7086567,4271,173608.6251,165891.2322,166657.8453,167425.0356,168191.5538,168958.5685,169725.1658,170474.2892,159774.3517,160541.4669,161308.3477,162074.7181,162841.265,163608.925,164375.0385,165124.8068,170483.5898
Mixed,Male,tile,30,F_gnash.wav,None,719.6291271,4271,173608.6251,165891.2322,166657.8453,167425.0356,168191.5538,168958.5685,169725.1658,170474.2892,174357.9263,160541.4669,161308.3477,162074.7181,162841.265,163608.925,164375.0385,165124.8068,173618.45
Mixed,Male,tile,30,M_tile.wav,None,734.8095779,4271,173608.6251,165891.2322,166657.8453,167425.0356,168191.5538,168958.5685,169725.1658,170474.2892,174357.9263,175124.9048,161308.3477,162074.7181,162841.265,163608.925,164375.0385,165124.8068,174368.0703
Mixed,Male,tile,30,M_park.wav,space,555.184959,4271,173608.6251,165891.2322,166657.8453,167425.0356,168191.5538,168958.5685,169725.1658,170474.2892,174357.9263,175124.9048,175890.975,162074.7181,162841.265,163608.925,164375.0385,165124.8068,175134.4397
Mixed,Male,tile,30,F_greet.wav,None,730.9631426,4271,173608.6251,165891.2322,166657.8453,167425.0356,168191.5538,168958.5685,169725.1658,170474.2892,174357.9263,175124.9048,175890.975,176658.0939,162841.265,163608.925,164375.0385,165124.8068,175900.4308
Mixed,Male,tile,30,F_bluff.wav,None,728.3645337,4271,173608.6251,165891.2322,166657.8453,167425.0356,168191.5538,168958.5685,169725.1658,170474.2892,174357.9263,175124.9048,175890.975,176658.0939,177424.6575,163608.925,164375.0385,165124.8068,176667.7457
Mixed,Male,tile,30,M_reek.wav,None,726.3944759,4271,173608.6251,165891.2322,166657.8453,167425.0356,168191.5538,168958.5685,169725.1658,170474.2892,174357.9263,175124.9048,175890.975,176658.0939,177424.6575,178191.0229,164375.0385,165124.8068,177434.4818
Mixed,Male,tile,30,F_bluff.wav,None,725.3058739,4271,173608.6251,165891.2322,166657.8453,167425.0356,168191.5538,168958.5685,169725.1658,170474.2892,174357.9263,175124.9048,175890.975,176658.0939,177424.6575,178191.0229,178958.054,165124.8068,178200.4426
Mixed,Male,tile,30,M_tile.wav,None,723.2328607,4271,173608.6251,165891.2322,166657.8453,167425.0356,168191.5538,168958.5685,169725.1658,170474.2892,174357.9263,175124.9048,175890.975,176658.0939,177424.6575,178191.0229,178958.054,179724.8381,178967.2724
Mixed,Male,tile,30,F_dime.wav,space,411.1815309,4271,173608.6251,180474.5468,166657.8453,167425.0356,168191.5538,168958.5685,169725.1658,170474.2892,174357.9263,175124.9048,175890.975,176658.0939,177424.6575,178191.0229,178958.054,179724.8381,179734.3786
Mixed,Male,tile,30,M_tile.wav,None,734.6308753,4271,173608.6251,180474.5468,181241.3961,167425.0356,168191.5538,168958.5685,169725.1658,170474.2892,174357.9263,175124.9048,175890.975,176658.0939,177424.6575,178191.0229,178958.054,179724.8381,180484.168
Mixed,Male,tile,30,F_romp.wav,space,415.0202372,4271,173608.6251,180474.5468,181241.3961,182007.7525,168191.5538,168958.5685,169725.1658,170474.2892,174357.9263,175124.9048,175890.975,176658.0939,177424.6575,178191.0229,178958.054,179724.8381,181250.5161
Mixed,Male,tile,30,M_tile.wav,None,729.9125683,4271,173608.6251,180474.5468,181241.3961,182007.7525,182774.6683,168958.5685,169725.1658,170474.2892,174357.9263,175124.9048,175890.975,176658.0939,177424.6575,178191.0229,178958.054,179724.8381,182017.2015
Mixed,Male,tile,30,M_jolt.wav,space,441.2239832,4271,173608.6251,180474.5468,181241.3961,182007.7525,182774.6683,183541.0987,169725.1658,170474.2892,174357.9263,175124.9048,175890.975,176658.0939,177424.6575,178191.0229,178958.054,179724.8381,182784.2876
Mixed,Male,tile,30,M_priest.wav,None,725.6379267,4271,173608.6251,180474.5468,181241.3961,182007.7525,182774.6683,183541.0987,184307.7563,170474.2892,174357.9263,175124.9048,175890.975,176658.0939,177424.6575,178191.0229,178958.054,179724.8381,183550.2842
Mixed,Male,tile,30,F_bluff.wav,None,723.7698967,4271,173608.6251,180474.5468,181241.3961,182007.7525,182774.6683,183541.0987,184307.7563,185074.9651,174357.9263,175124.9048,175890.975,176658.0939,177424.6575,178191.0229,178958.054,179724.8381,184316.9038
Mixed,Female,cave,22,M_park.wav,None,720.2762286,4271,188191.6694,180474.5468,181241.3961,182007.7525,182774.6683,183541.0987,184307.7563,185074.9651,174357.9263,175124.9048,175890.975,176658.0939,177424.6575,178191.0229,178958.054,179724.8381,185085.3308
Mixed,Female,cave,22,M_depth.wav,None,720.2542773,4271,188191.6694,180474.5468,181241.3961,182007.7525,182774.6683,183541.0987,184307.7563,185074.9651,188940.6185,175124.9048,175890.975,176658.0939,177424.6575,178191.0229,178958.054,179724.8381,188201.554
Mixed,Female,cave,22,F_jolt.wav,None,736.7453175,4271,188191.6694,180474.5468,181241.3961,182007.7525,182774.6683,183541.0987,184307.7563,185074.9651,188940.6185,189707.5883,175890.975,176658.0939,177424.6575,178191.0229,178958.054,179724.8381,188949.7413
Mixed,Female,cave,22,M_park.wav,None,734.5653307,4271,188191.6694,180474.5468,181241.3961,182007.7525,182774.6683,183541.0987,184307.7563,185074.9651,188940.6185,189707.5883,190474.4438,176658.0939,177424.6575,178191.0229,178958.054,179724.8381,189716.6737
Mixed,Female,cave,22,M_romp.wav,None,731.7558648,4271,188191.6694,180474.5468,181241.3961,182007.7525,182774.6683,183541.0987,184307.7563,185074.9651,188940.6185,189707.5883,190474.4438,191241.2202,177424.6575,178191.0229,178958.054,179724.8381,190484.1497
Mixed,Female,cave,22,F_cave.wav,None,729.5347583,4271,188191.6694,180474.5468,181241.3961,182007.7525,182774.6683,183541.0987,184307.7563,185074.9651,188940.6185,189707.5883,190474.4438,191241.2202,192007.8614,178191.0229,178958.054,179724.8381,191251.0272
Mixed,Female,cave,22,M_greet.wav,space,455.3603535,4271,188191.6694,180474.5468,181241.3961,182007.7525,182774.6683,183541.0987,184307.7563,185074.9651,188940.6185,189707.5883,190474.4438,191241.2202,192007.8614,192774.0707,178958.054,179724.8381,192018.0357
Mixed,Female,cave,22,F_cling.wav,None,725.9557578,4271,188191.6694,180474.5468,181241.3961,182007.7525,182774.6683,183541.0987,184307.7563,185074.9651,188940.6185,189707.5883,190474.4438,191241.2202,192007.8614,192774.0707,193541.5516,179724.8381,192782.8704
Mixed,Female,cave,22,M_greet.wav,None,721.8582723,4271,188191.6694,180474.5468,181241.3961,182007.7525,182774.6683,183541.0987,184307.7563,185074.9651,188940.6185,189707.5883,190474.4438,191241.2202,192007.8614,192774.0707,193541.5516,194308.1223,193551.6829
Mixed,Female,cave,22,M_lash.wav,None,720.0310533,4271,188191.6694,195057.7077,181241.3961,182007.7525,182774.6683,183541.0987,184307.7563,185074.9651,188940.6185,189707.5883,190474.4438,191241.2202,192007.8614,192774.0707,193541.5516,194308.1223,194318.2314
Mixed,Female,cave,22,F_cave.wav,None,735.299001,4271,188191.6694,195057.7077,195824.3053,182007.7525,182774.6683,183541.0987,184307.7563,185074.9651,188940.6185,189707.5883,190474.4438,191241.2202,192007.8614,192774.0707,193541.5516,194308.1223,195067.6025
Mixed,Female,cave,22,M_park.wav,space,559.3931284,4271,188191.6694,195057.7077,195824.3053,196590.7418,182774.6683,183541.0987,184307.7563,185074.9651,188940.6185,189707.5883,190474.4438,191241.2202,192007.8614,192774.0707,193541.5516,194308.1223,195833.9623
Mixed,Female,cave,22,F_cave.wav,None,730.870699,4271,188191.6694,195057.7077,195824.3053,196590.7418,197357.7708,183541.0987,184307.7563,185074.9651,188940.6185,189707.5883,190474.4438,191241.2202,192007.8614,192774.0707,193541.5516,194308.1223,196600.1744
Mixed,Female,cave,22,F_cad.wav,space,633.8020721,4271,188191.6694,195057.7077,195824.3053,196590.7418,197357.7708,198124.3375,184307.7563,185074.9651,188940.6185,189707.5883,190474.4438,191241.2202,192007.8614,192774.0707,193541.5516,194308.1223,197367.5268
Mixed,Female,cave,22,F_cave.wav,None,726.0033702,4271,188191.6694,195057.7077,195824.3053,196590.7418,197357.7708,198124.3375,198890.7079,185074.9651,188940.6185,189707.5883,190474.4438,191241.2202,192007.8614,192774.0707,193541.5516,194308.1223,198133.9809
Mixed,Female,cave,22,F_bluff.wav,space,573.4821949,4271,188191.6694,195057.7077,195824.3053,196590.7418,197357.7708,198124.3375,198890.7079,199657.5099,188940.6185,189707.5883,190474.4438,191241.2202,192007.8614,192774.0707,193541.5516,194308.1223,198899.8174
Mixed,Male,tile,26,F_dime.wav,None,721.2315765,4271,202774.7301,195057.7077,195824.3053,196590.7418,197357.7708,198124.3375,198890.7079,199657.5099,188940.6185,189707.5883,190474.4438,191241.2202,192007.8614,192774.0707,193541.5516,194308.1223,199667.0754
Mixed,Male,tile,26,M_tile.wav,None,720.1986257,4271,202774.7301,195057.7077,195824.3053,196590.7418,197357.7708,198124.3375,198890.7079,199657.5099,203540.7895,189707.5883,190474.4438,191241.2202,192007.8614,192774.0707,193541.5516,194308.1223,202784.5545
Mixed,Male,tile,26,M_jaw.wav,space,627.1798708,4271,202774.7301,195057.7077,195824.3053,196590.7418,197357.7708,198124.3375,198890.7079,199657.5099,203540.7895,204290.6382,190474.4438,191241.2202,192007.8614,192774.0707,193541.5516,194308.1223,203549.9627
Mixed,Male,tile,26,F_park.wav,None,733.8904035,4271,202774.7301,195057.7077,195824.3053,196590.7418,197357.7708,198124.3375,198890.7079,199657.5099,203540.7895,204290.6382,205057.2745,191241.2202,192007.8614,192774.0707,193541.5516,194308.1223,204300.3274
Mixed,Male,tile,26,M_tile.wav,None,732.501593,4271,202774.7301,195057.7077,195824.3053,196590.7418,197357.7708,198124.3375,198890.7079,199657.5099,203540.7895,204290.6382,205057.2745,205824.3313,192007.8614,192774.0707,193541.5516,194308.1223,205066.4928
Mixed,Male,tile,26,F_romp.wav,space,487.1218144,4271,202774.7301,195057.7077,195824.3053,196590.7418,197357.7708,198124.3375,198890.7079,199657.5099,203540.7895,204290.6382,205057.2745,205824.3313,206590.9947,192774.0707,193541.5516,194308.1223,205834.0316
Mixed,Male,tile,26,M_tile.wav,None,727.0592004,4271,202774.7301,195057.7077,195824.3053,196590.7418,197357.7708,198124.3375,198890.7079,199657.5099,203540.7895,204290.6382,205057.2745,205824.3313,206590.9947,207357.64,193541.5516,194308.1223,206600.5139
Mixed,Male,tile,26,M_depth.wav,space,385.7380436,4271,202774.7301,195057.7077,195824.3053,196590.7418,197357.7708,198124.3375,198890.7079,199657.5099,203540.7895,204290.6382,205057.2745,205824.3313,206590.9947,207357.64,208124.7261,194308.1223,207367.4105
Mixed,Male,tile,26,M_tile.wav,None,721.7905633,4271,202774.7301,195057.7077,195824.3053,196590.7418,197357.7708,198124.3375,198890.7079,199657.5099,203540.7895,204290.6382,205057.2745,205824.3313,206590.9947,207357.64,208124.7261,208891.307,208134.4314
Mixed,Male,tile,26,M_bluff.wav,space,443.6723338,4271,202774.7301,209640.6534,195824.3053,196590.7418,197357.7708,198124.3375,198890.7079,199657.5099,203540.7895,204290.6382,205057.2745,205824.3313,206590.9947,207357.64,208124.7261,208891.307,208901.4405
Mixed,Male,tile,26,M_cad.wav,None,734.6890001,4271,202774.7301,209640.6534,210407.6096,196590.7418,197357.7708,198124.3375,198890.7079,199657.5099,203540.7895,204290.6382,205057.2745,205824.3313,206590.9947,207357.64,208124.7261,208891.307,209650.0161
Mixed,Male,tile,26,F_romp.wav,None,731.7713238,4271,202774.7301,209640.6534,210407.6096,211173.9321,197357.7708,198124.3375,198890.7079,199657.5099,203540.7895,204290.6382,205057.2745,205824.3313,206590.9947,207357.64,208124.7261,208891.307,210417.8572
Mixed,Male,tile,26,F_gnash.wav,None,731.4510192,4271,202774.7301,209640.6534,210407.6096,211173.9321,211940.9669,198124.3375,198890.7079,199657.5099,203540.7895,204290.6382,205057.2745,205824.3313,206590.9947,207357.64,208124.7261,208891.307,211183.1594
Mixed,Male,tile,26,F_bluff.wav,None,728.59796,4271,202774.7301,209640.6534,210407.6096,211173.9321,211940.9669,212707.2581,198890.7079,199657.5099,203540.7895,204290.6382,205057.2745,205824.3313,206590.9947,207357.64,208124.7261,208891.307,211950.8701
Mixed,Male,tile,26,F_cling.wav,None,727.944057,4271,202774.7301,209640.6534,210407.6096,211173.9321,211940.9669,212707.2581,213474.2311,199657.5099,203540.7895,204290.6382,205057.2745,205824.3313,206590.9947,207357.64,208124.7261,208891.307,212716.6784
Mixed,Male,tile,26,F_knife.wav,None,725.9508111,4271,202774.7301,209640.6534,210407.6096,211173.9321,211940.9669,212707.2581,213474.2311,214240.8952,203540.7895,204290.6382,205057.2745,205824.3313,206590.9947,207357.64,208124.7261,208891.307,213484.2527
Mixed,Female,cave,19,M_reek.wav,None,725.7492295,4271,217374.3236,209640.6534,210407.6096,211173.9321,211940.9669,212707.2581,213474.2311,214240.8952,203540.7895,204290.6382,205057.2745,205824.3313,206590.9947,207357.64,208124.7261,208891.307,214250.3352
Mixed,Female,cave,19,M_greet.wav,None,720.051459,4271,217374.3236,209640.6534,210407.6096,211173.9321,211940.9669,212707.2581,213474.2311,214240.8952,218123.9501,204290.6382,205057.2745,205824.3313,206590.9947,207357.64,208124.7261,208891.307,217384.2605
Mixed,Female,cave,19,M_depth.wav,None,735.6372373,4271,217374.3236,209640.6534,210407.6096,211173.9321,211940.9669,212707.2581,213474.2311,214240.8952,218123.9501,218890.8591,205057.2745,205824.3313,206590.9947,207357.64,208124.7261,208891.307,218133.6501
Mixed,Female,cave,19,F_greet.wav,None,733.1656991,4271,217374.3236,209640.6534,210407.6096,211173.9321,211940.9669,212707.2581,213474.2311,214240.8952,218123.9501,218890.8591,219657.2158,205824.3313,206590.9947,207357.64,208124.7261,208891.307,218900.9626
Mixed,Female,cave,19,M_greet.wav,None,732.3235087,4271,217374.3236,209640.6534,210407.6096,211173.9321,211940.9669,212707.2581,213474.2311,214240.8952,218123.9501,218890.8591,219657.2158,220424.1396,206590.9947,207357.64,208124.7261,208891.307,219666.6617
Mixed,Female,cave,19,F_cave.wav,None,730.0081034,4271,217374.3236,209640.6534,210407.6096,211173.9321,211940.9669,212707.2581,213474.2311,214240.8952,218123.9501,218890.8591,219657.2158,220424.1396,221190.7564,207357.64,208124.7261,208891.307,220433.8758
Mixed,Female,cave,19,M_priest.wav,space,608.3517834,4271,217374.3236,209640.6534,210407.6096,211173.9321,211940.9669,212707.2581,213474.2311,214240.8952,218123.9501,218890.8591,219657.2158,220424.1396,221190.7564,221957.4413,208124.7261,208891.307,221200.5789
Mixed,Female,cave,19,M_park.wav,None,725.6305069,4271,217374.3236,209640.6534,210407.6096,211173.9321,211940.9669,212707.2581,213474.2311,214240.8952,218123.9501,218890.8591,219657.2158,220424.1396,221190.7564,221957.4413,222724.0015,208891.307,221966.9276
Mixed,Female,cave,19,F_cave.wav,None,723.7575292,4271,217374.3236,209640.6534,210407.6096,211173.9321,211940.9669,212707.2581,213474.2311,214240.8952,218123.9501,218890.8591,219657.2158,220424.1396,221190.7564,221957.4413,222724.0015,223490.9788,222733.644
Mixed,Female,cave,19,F_cling.wav,space,403.4163128,4271,217374.3236,224257.7093,210407.6096,211173.9321,211940.9669,212707.2581,213474.2311,214240.8952,218123.9501,218890.8591,219657.2158,220424.1396,221190.7564,221957.4413,222724.0015,223490.9788,223501.4956
Mixed,Female,cave,19,F_cave.wav,None,718.862066,4271,217374.3236,224257.7093,225006.9703,211173.9321,211940.9669,212707.2581,213474.2311,214240.8952,218123.9501,218890.8591,219657.2158,220424.1396,221190.7564,221957.4413,222724.0015,223490.9788,224267.849
Mixed,Female,cave,19,F_bluff.wav,space,432.485485,4271,217374.3236,224257.7093,225006.9703,225773.9906,211940.9669,212707.2581,213474.2311,214240.8952,218123.9501,218890.8591,219657.2158,220424.1396,221190.7564,221957.4413,222724.0015,223490.9788,225016.3794
Mixed,Female,cave,19,M_jaw.wav,None,731.6408521,4271,217374.3236,224257.7093,225006.9703,225773.9906,226540.7413,212707.2581,213474.2311,214240.8952,218123.9501,218890.8591,219657.2158,220424.1396,221190.7564,221957.4413,222724.0015,223490.9788,225783.3595
Mixed,Female,cave,19,F_cave.wav,None,729.7125328,4271,217374.3236,224257.7093,225006.9703,225773.9906,226540.7413,227307.3108,213474.2311,214240.8952,218123.9501,218890.8591,219657.2158,220424.1396,221190.7564,221957.4413,222724.0015,223490.9788,226550.4571
Mixed,Female,cave,19,F_gnash.wav,space,475.4885184,4271,217374.3236,224257.7093,225006.9703,225773.9906,226540.7413,227307.3108,228074.067,214240.8952,218123.9501,218890.8591,219657.2158,220424.1396,221190.7564,221957.4413,222724.0015,223490.9788,227317.3258
Mixed,Female,cave,19,M_jaw.wav,None,725.2301262,4271,217374.3236,224257.7093,225006.9703,225773.9906,226540.7413,227307.3108,228074.067,228841.1077,218123.9501,218890.8591,219657.2158,220424.1396,221190.7564,221957.4413,222724.0015,223490.9788,228083.3568
Mixed,Female,done,44,M_cad.wav,None,722.8961703,4271,231957.6218,224257.7093,225006.9703,225773.9906,226540.7413,227307.3108,228074.067,228841.1077,218123.9501,218890.8591,219657.2158,220424.1396,221190.7564,221957.4413,222724.0015,223490.9788,228850.7694
Mixed,Female,done,44,F_gnash.wav,None,719.4464053,4271,231957.6218,224257.7093,225006.9703,225773.9906,226540.7413,227307.3108,228074.067,228841.1077,232706.9783,218890.8591,219657.2158,220424.1396,221190.7564,221957.4413,222724.0015,223490.9788,231967.7358
Mixed,Female,done,44,F_done.wav,None,735.6703188,4271,231957.6218,224257.7093,225006.9703,225773.9906,226540.7413,227307.3108,228074.067,228841.1077,232706.9783,233473.8926,219657.2158,220424.1396,221190.7564,221957.4413,222724.0015,223490.9788,232716.5507
Mixed,Female,done,44,F_lash.wav,space,477.1837206,4271,231957.6218,224257.7093,225006.9703,225773.9906,226540.7413,227307.3108,228074.067,228841.1077,232706.9783,233473.8926,234240.569,220424.1396,221190.7564,221957.4413,222724.0015,223490.9788,233483.6
Mixed,Female,done,44,F_dime.wav,None,730.2906886,4271,231957.6218,224257.7093,225006.9703,225773.9906,226540.7413,227307.3108,228074.067,228841.1077,232706.9783,233473.8926,234240.569,235006.744,221190.7564,221957.4413,222724.0015,223490.9788,234250.5028
Mixed,Female,done,44,F_jolt.wav,space,440.8520465,4271,231957.6218,224257.7093,225006.9703,225773.9906,226540.7413,227307.3108,228074.067,228841.1077,232706.9783,233473.8926,234240.569,235006.744,235773.9213,221957.4413,222724.0015,223490.9788,235015.805
Mixed,Female,done,44,F_done.wav,None,729.1761157,4271,231957.6218,224257.7093,225006.9703,225773.9906,226540.7413,227307.3108,228074.067,228841.1077,232706.9783,233473.8926,234240.569,235006.744,235773.9213,236540.1662,222724.0015,223490.9788,235783.3623
Mixed,Female,done,44,M_depth.wav,space,635.7446136,4271,231957.6218,224257.7093,225006.9703,225773.9906,226540.7413,227307.3108,228074.067,228841.1077,232706.9783,233473.8926,234240.569,235006.744,235773.9213,236540.1662,237307.5782,223490.9788,236548.9737
Mixed,Female,done,44,F_done.wav,None,722.7780656,4271,231957.6218,224257.7093,225006.9703,225773.9906,226540.7413,227307.3108,228074.067,228841.1077,232706.9783,233473.8926,234240.569,235006.744,235773.9213,236540.1662,237307.5782,238074.2615,237318.2571
Mixed,Female,done,44,M_greet.wav,space,452.1233002,4271,231957.6218,238840.8758,225006.9703,225773.9906,226540.7413,227307.3108,228074.067,228841.1077,232706.9783,233473.8926,234240.569,235006.744,235773.9213,236540.1662,237307.5782,238074.2615,238084.6009
Mixed,Female,done,44,F_done.wav,None,718.6889285,4271,231957.6218,238840.8758,239590.27,225773.9906,226540.7413,227307.3108,228074.067,228841.1077,232706.9783,233473.8926,234240.569,235006.744,235773.9213,236540.1662,237307.5782,238074.2615,238850.8804
Mixed,Female,done,44,M_cling.wav,space,464.4683148,4271,231957.6218,238840.8758,239590.27,240357.1357,226540.7413,227307.3108,228074.067,228841.1077,232706.9783,233473.8926,234240.569,235006.744,235773.9213,236540.1662,237307.5782,238074.2615,239600.2091
Mixed,Female,done,44,M_romp.wav,None,730.6827218,4271,231957.6218,238840.8758,239590.27,240357.1357,241123.7204,227307.3108,228074.067,228841.1077,232706.9783,233473.8926,234240.569,235006.744,235773.9213,236540.1662,237307.5782,238074.2615,240367.3048
Mixed,Female,done,44,M_cad.wav,None,730.094363,4271,231957.6218,238840.8758,239590.27,240357.1357,241123.7204,241890.4686,228074.067,228841.1077,232706.9783,233473.8926,234240.569,235006.744,235773.9213,236540.1662,237307.5782,238074.2615,241133.1301
Mixed,Female,done,44,M_bluff.wav,None,728.7176107,4271,231957.6218,238840.8758,239590.27,240357.1357,241123.7204,241890.4686,242657.1082,228841.1077,232706.9783,233473.8926,234240.569,235006.744,235773.9213,236540.1662,237307.5782,238074.2615,241899.7036
Mixed,Female,done,44,M_jolt.wav,None,726.8214454,4271,231957.6218,238840.8758,239590.27,240357.1357,241123.7204,241890.4686,242657.1082,243423.7516,232706.9783,233473.8926,234240.569,235006.744,235773.9213,236540.1662,237307.5782,238074.2615,242666.6586
Mixed,Male,ball,3,F_gnash.wav,None,725.0062842,4271,246540.805,238840.8758,239590.27,240357.1357,241123.7204,241890.4686,242657.1082,243423.7516,232706.9783,233473.8926,234240.569,235006.744,235773.9213,236540.1662,237307.5782,238074.2615,243433.4445
Mixed,Male,ball,3,M_ball.wav,None,720.751429,4271,246540.805,238840.8758,239590.27,240357.1357,241123.7204,241890.4686,242657.1082,243423.7516,247307.4511,233473.8926,234240.569,235006.744,235773.9213,236540.1662,237307.5782,238074.2615,246550.4357
Mixed,Male,ball,3,M_cad.wav,space,443.2271225,4271,246540.805,238840.8758,239590.27,240357.1357,241123.7204,241890.4686,242657.1082,243423.7516,247307.4511,248056.9932,234240.569,235006.744,235773.9213,236540.1662,237307.5782,238074.2615,247317.3163
Mixed,Male,ball,3,F_jolt.wav,None,733.4594144,4271,246540.805,238840.8758,239590.27,240357.1357,241123.7204,241890.4686,242657.1082,243423.7516,247307.4511,248056.9932,248823.2581,235006.744,235773.9213,236540.1662,237307.5782,238074.2615,248066.533
Mixed,Male,ball,3,F_jaw.wav,None,732.9545328,4271,246540.805,238840.8758,239590.27,240357.1357,241123.7204,241890.4686,242657.1082,243423.7516,247307.4511,248056.9932,248823.2581,249589.9108,235773.9213,236540.1662,237307.5782,238074.2615,248832.325
Mixed,Male,ball,3,M_ball.wav,None,732.2010761,4271,246540.805,238840.8758,239590.27,240357.1357,241123.7204,241890.4686,242657.1082,243423.7516,247307.4511,248056.9932,248823.2581,249589.9108,250356.9985,236540.1662,237307.5782,238074.2615,249598.7794
Mixed,Male,ball,3,F_jolt.wav,space,401.8246839,4271,246540.805,238840.8758,239590.27,240357.1357,241123.7204,241890.4686,242657.1082,243423.7516,247307.4511,248056.9932,248823.2581,249589.9108,250356.9985,251123.7989,237307.5782,238074.2615,250366.6802
Mixed,Male,ball,3,F_romp.wav,None,726.4819723,4271,246540.805,238840.8758,239590.27,240357.1357,241123.7204,241890.4686,242657.1082,243423.7516,247307.4511,248056.9932,248823.2581,249589.9108,250356.9985,251123.7989,251889.9195,238074.2615,251133.2933
Mixed,Male,ball,3,F_greet.wav,None,726.096123,4271,246540.805,238840.8758,239590.27,240357.1357,241123.7204,241890.4686,242657.1082,243423.7516,247307.4511,248056.9932,248823.2581,249589.9108,250356.9985,251123.7989,251889.9195,252657.355,251898.8441
Mixed,Male,ball,3,M_greet.wav,None,722.7013907,4271,246540.805,253423.7411,239590.27,240357.1357,241123.7204,241890.4686,242657.1082,243423.7516,247307.4511,248056.9932,248823.2581,249589.9108,250356.9985,251123.7989,251889.9195,252657.355,252667.3756
Mixed,Male,ball,3,M_ball.wav,None,721.9844158,4271,246540.805,253423.7411,254190.6699,240357.1357,241123.7204,241890.4686,242657.1082,243423.7516,247307.4511,248056.9932,248823.2581,249589.9108,250356.9985,251123.7989,251889.9195,252657.355,253433.3107
Mixed,Male,ball,3,M_bluff.wav,space,535.8417868,4271,246540.805,253423.7411,254190.6699,254940.1439,241123.7204,241890.4686,242657.1082,243423.7516,247307.4511,248056.9932,248823.2581,249589.9108,250356.9985,251123.7989,251889.9195,252657.355,254200.5872
Mixed,Male,ball,3,F_priest.wav,None,734.2969673,4271,246540.805,253423.7411,254190.6699,254940.1439,255706.8803,241890.4686,242657.1082,243423.7516,247307.4511,248056.9932,248823.2581,249589.9108,250356.9985,251123.7989,251889.9195,252657.355,254949.7162
Mixed,Male,ball,3,M_greet.wav,None,732.9560788,4271,246540.805,253423.7411,254190.6699,254940.1439,255706.8803,256473.111,242657.1082,243423.7516,247307.4511,248056.9932,248823.2581,249589.9108,250356.9985,251123.7989,251889.9195,252657.355,255716.2594
Mixed,Male,ball,3,M_ball.wav,None,732.5754859,4271,246540.805,253423.7411,254190.6699,254940.1439,255706.8803,256473.111,257240.2326,243423.7516,247307.4511,248056.9932,248823.2581,249589.9108,250356.9985,251123.7989,251889.9195,252657.355,256481.8785
Mixed,Male,ball,3,F_jolt.wav,space,582.3536376,4271,246540.805,253423.7411,254190.6699,254940.1439,255706.8803,256473.111,257240.2326,258006.8763,247307.4511,248056.9932,248823.2581,249589.9108,250356.9985,251123.7989,251889.9195,252657.355,257250.0276
Mixed,Male,ball,1,M_priest.wav,None,725.0486412,4271,261140.4569,253423.7411,254190.6699,254940.1439,255706.8803,256473.111,257240.2326,258006.8763,247307.4511,248056.9932,248823.2581,249589.9108,250356.9985,251123.7989,251889.9195,252657.355,258018.1785
Mixed,Male,ball,1,M_greet.wav,None,721.2779531,4271,261140.4569,253423.7411,254190.6699,254940.1439,255706.8803,256473.111,257240.2326,258006.8763,261907.3114,248056.9932,248823.2581,249589.9108,250356.9985,251123.7989,251889.9195,252657.355,261149.8691
Mixed,Male,ball,1,F_jolt.wav,None,719.479796,4271,261140.4569,253423.7411,254190.6699,254940.1439,255706.8803,256473.111,257240.2326,258006.8763,261907.3114,262656.6099,248823.2581,249589.9108,250356.9985,251123.7989,251889.9195,252657.355,261916.8074
Mixed,Male,ball,1,F_bluff.wav,None,735.2934354,4271,261140.4569,253423.7411,254190.6699,254940.1439,255706.8803,256473.111,257240.2326,258006.8763,261907.3114,262656.6099,263423.3432,249589.9108,250356.9985,251123.7989,251889.9195,252657.355,262666.1884
Mixed,Male,ball,1,F_park.wav,None,733.9856289,4271,261140.4569,253423.7411,254190.6699,254940.1439,255706.8803,256473.111,257240.2326,258006.8763,261907.3114,262656.6099,263423.3432,264189.7448,250356.9985,251123.7989,251889.9195,252657.355,263432.6382
Mixed,Male,ball,1,M_ball.wav,None,732.7643908,4271,261140.4569,253423.7411,254190.6699,254940.1439,255706.8803,256473.111,257240.2326,258006.8763,261907.3114,262656.6099,263423.3432,264189.7448,264956.3202,251123.7989,251889.9195,252657.355,264199.0704
Mixed,Male,ball,1,F_knife.wav,space,467.2579928,4271,261140.4569,253423.7411,254190.6699,254940.1439,255706.8803,256473.111,257240.2326,258006.8763,261907.3114,262656.6099,263423.3432,264189.7448,264956.3202,265723.4045,251889.9195,252657.355,264965.0432
Mixed,Male,ball,1,M_ball.wav,None,727.9854859,4271,261140.4569,253423.7411,254190.6699,254940.1439,255706.8803,256473.111,257240.2326,258006.8763,261907.3114,262656.6099,263423.3432,264189.7448,264956.3202,265723.4045,266490.4232,252657.355,265732.7662
Mixed,Male,ball,1,M_greet.wav,space,396.5538829,4271,261140.4569,253423.7411,254190.6699,254940.1439,255706.8803,256473.111,257240.2326,258006.8763,261907.3114,262656.6099,263423.3432,264189.7448,264956.3202,265723.4045,266490.4232,267256.7982,266499.742
Mixed,Male,ball,1,M_ball.wav,None,723.5655324,4271,261140.4569,268023.7282,254190.6699,254940.1439,255706.8803,256473.111,257240.2326,258006.8763,261907.3114,262656.6099,263423.3432,264189.7448,264956.3202,265723.4045,266490.4232,267256.7982,267266.0975
Mixed,Male,ball,1,F_dime.wav,space,431.0280383,4271,261140.4569,268023.7282,268773.3679,254940.1439,255706.8803,256473.111,257240.2326,258006.8763,261907.3114,262656.6099,263423.3432,264189.7448,264956.3202,265723.4045,266490.4232,267256.7982,268033.2112
Mixed,Male,ball,1,M_ball.wav,None,736.0036089,4271,261140.4569,268023.7282,268773.3679,269539.6919,255706.8803,256473.111,257240.2326,258006.8763,261907.3114,262656.6099,263423.3432,264189.7448,264956.3202,265723.4045,266490.4232,267256.7982,268782.6246
Mixed,Male,ball,1,F_knife.wav,space,355.3187074,4271,261140.4569,268023.7282,268773.3679,269539.6919,270306.6293,256473.111,257240.2326,258006.8763,261907.3114,262656.6099,263423.3432,264189.7448,264956.3202,265723.4045,266490.4232,267256.7982,269548.8868
Mixed,Male,ball,1,M_dime.wav,None,730.8756462,4271,261140.4569,268023.7282,268773.3679,269539.6919,270306.6293,271073.0572,257240.2326,258006.8763,261907.3114,262656.6099,263423.3432,264189.7448,264956.3202,265723.4045,266490.4232,267256.7982,270316.5344
Mixed,Male,ball,1,F_priest.wav,None,730.6839582,4271,261140.4569,268023.7282,268773.3679,269539.6919,270306.6293,271073.0572,271839.9653,258006.8763,261907.3114,262656.6099,263423.3432,264189.7448,264956.3202,265723.4045,266490.4232,267256.7982,271082.0261
Mixed,Male,ball,1,F_gnash.wav,None,728.5719896,4271,261140.4569,268023.7282,268773.3679,269539.6919,270306.6293,271073.0572,271839.9653,272606.7626,261907.3114,262656.6099,263423.3432,264189.7448,264956.3202,265723.4045,266490.4232,267256.7982,271849.5497
Mixed,Female,ball,8,M_lash.wav,None,727.3652828,4271,275740.4492,268023.7282,268773.3679,269539.6919,270306.6293,271073.0572,271839.9653,272606.7626,261907.3114,262656.6099,263423.3432,264189.7448,264956.3202,265723.4045,266490.4232,267256.7982,272616.2005
Mixed,Female,ball,8,F_ball.wav,None,719.5512154,4271,275740.4492,268023.7282,268773.3679,269539.6919,270306.6293,271073.0572,271839.9653,272606.7626,276489.7121,262656.6099,263423.3432,264189.7448,264956.3202,265723.4045,266490.4232,267256.7982,275750.024
Mixed,Female,ball,8,M_greet.wav,space,508.9995964,4271,275740.4492,268023.7282,268773.3679,269539.6919,270306.6293,271073.0572,271839.9653,272606.7626,276489.7121,277256.5824,263423.3432,264189.7448,264956.3202,265723.4045,266490.4232,267256.7982,276499.1104
Mixed,Female,ball,8,F_lash.wav,None,732.00846,4271,275740.4492,268023.7282,268773.3679,269539.6919,270306.6293,271073.0572,271839.9653,272606.7626,276489.7121,277256.5824,278022.9024,264189.7448,264956.3202,265723.4045,266490.4232,267256.7982,277266.5424
Mixed,Female,ball,8,F_cad.wav,None,732.2551808,4271,275740.4492,268023.7282,268773.3679,269539.6919,270306.6293,271073.0572,271839.9653,272606.7626,276489.7121,277256.5824,278022.9024,278789.5139,264956.3202,265723.4045,266490.4232,267256.7982,278031.6511
Mixed,Female,ball,8,F_ball.wav,None,731.016939,4271,275740.4492,268023.7282,268773.3679,269539.6919,270306.6293,271073.0572,271839.9653,272606.7626,276489.7121,277256.5824,278022.9024,278789.5139,279556.5367,265723.4045,266490.4232,267256.7982,278798.2212
Mixed,Female,ball,8,M_cling.wav,space,330.0925698,4271,275740.4492,268023.7282,268773.3679,269539.6919,270306.6293,271073.0572,271839.9653,272606.7626,276489.7121,277256.5824,278022.9024,278789.5139,279556.5367,280323.181,266490.4232,267256.7982,279565.9625
Mixed,Female,ball,8,M_jolt.wav,None,725.7238771,4271,275740.4492,268023.7282,268773.3679,269539.6919,270306.6293,271073.0572,271839.9653,272606.7626,276489.7121,277256.5824,278022.9024,278789.5139,279556.5367,280323.181,281089.8169,267256.7982,280332.6408
Mixed,Female,ball,8,M_jolt.wav,None,724.1455428,4271,275740.4492,268023.7282,268773.3679,269539.6919,270306.6293,271073.0572,271839.9653,272606.7626,276489.7121,277256.5824,278022.9024,278789.5139,279556.5367,280323.181,281089.8169,281856.8833,281099.6904
Mixed,Female,ball,8,F_ball.wav,None,722.2515424,4271,275740.4492,282623.4945,268773.3679,269539.6919,270306.6293,271073.0572,271839.9653,272606.7626,276489.7121,277256.5824,278022.9024,278789.5139,279556.5367,280323.181,281089.8169,281856.8833,281866.9364
Mixed,Female,ball,8,F_dime.wav,space,558.937096,4271,275740.4492,282623.4945,283373.1036,269539.6919,270306.6293,271073.0572,271839.9653,272606.7626,276489.7121,277256.5824,278022.9024,278789.5139,279556.5367,280323.181,281089.8169,281856.8833,282633.0743
Mixed,Female,ball,8,M_greet.wav,None,735.6978357,4271,275740.4492,282623.4945,283373.1036,284139.7133,270306.6293,271073.0572,271839.9653,272606.7626,276489.7121,277256.5824,278022.9024,278789.5139,279556.5367,280323.181,281089.8169,281856.8833,283382.4129
Mixed,Female,ball,8,M_cling.wav,None,734.1967947,4271,275740.4492,282623.4945,283373.1036,284139.7133,284906.4739,271073.0572,271839.9653,272606.7626,276489.7121,277256.5824,278022.9024,278789.5139,279556.5367,280323.181,281089.8169,281856.8833,284149.1963
Mixed,Female,ball,8,F_ball.wav,None,732.9084659,4271,275740.4492,282623.4945,283373.1036,284139.7133,284906.4739,285672.988,271839.9653,272606.7626,276489.7121,277256.5824,278022.9024,278789.5139,279556.5367,280323.181,281089.8169,281856.8833,284915.8929
Mixed,Female,ball,8,M_park.wav,space,421.3678916,4271,275740.4492,282623.4945,283373.1036,284139.7133,284906.4739,285672.988,286439.7338,272606.7626,276489.7121,277256.5824,278022.9024,278789.5139,279556.5367,280323.181,281089.8169,281856.8833,285682.6148
Mixed,Female,ball,8,F_cling.wav,None,731.0119923,4271,275740.4492,282623.4945,283373.1036,284139.7133,284906.4739,285672.988,286439.7338,287206.7522,276489.7121,277256.5824,278022.9024,278789.5139,279556.5367,280323.181,281089.8169,281856.8833,286448.748
Mixed,Male,tile,29,M_cling.wav,None,729.0060697,4271,290340.2026,282623.4945,283373.1036,284139.7133,284906.4739,285672.988,286439.7338,287206.7522,276489.7121,277256.5824,278022.9024,278789.5139,279556.5367,280323.181,281089.8169,281856.8833,287216.0546
Mixed,Male,tile,29,F_park.wav,None,720.7025797,4271,290340.2026,282623.4945,283373.1036,284139.7133,284906.4739,285672.988,286439.7338,287206.7522,291106.7844,277256.5824,278022.9024,278789.5139,279556.5367,280323.181,281089.8169,281856.8833,290349.8179
Mixed,Male,tile,29,F_jolt.wav,None,719.2822336,4271,290340.2026,282623.4945,283373.1036,284139.7133,284906.4739,285672.988,286439.7338,287206.7522,291106.7844,291856.1159,278022.9024,278789.5139,279556.5367,280323.181,281089.8169,281856.8833,291116.6953
Mixed,Male,tile,29,M_tile.wav,None,736.549919,4271,290340.2026,282623.4945,283373.1036,284139.7133,284906.4739,285672.988,286439.7338,287206.7522,291106.7844,291856.1159,292622.4844,278789.5139,279556.5367,280323.181,281089.8169,281856.8833,291864.8556
Mixed,Male,tile,29,F_cad.wav,space,496.2900649,4271,290340.2026,282623.4945,283373.1036,284139.7133,284906.4739,285672.988,286439.7338,287206.7522,291106.7844,291856.1159,292622.4844,293389.292,279556.5367,280323.181,281089.8169,281856.8833,292631.5803
Mixed,Male,tile,29,F_jolt.wav,None,733.1854864,4271,290340.2026,282623.4945,283373.1036,284139.7133,284906.4739,285672.988,286439.7338,287206.7522,291106.7844,291856.1159,292622.4844,293389.292,294156.0897,280323.181,281089.8169,281856.8833,293398.0518
Mixed,Male,tile,29,M_reek.wav,None,731.3471367,4271,290340.2026,282623.4945,283373.1036,284139.7133,284906.4739,285672.988,286439.7338,287206.7522,291106.7844,291856.1159,292622.4844,293389.292,294156.0897,294922.9869,281089.8169,281856.8833,294165.2721
Mixed,Male,tile,29,M_tile.wav,None,729.6989295,4271,290340.2026,282623.4945,283373.1036,284139.7133,284906.4739,285672.988,286439.7338,287206.7522,291106.7844,291856.1159,292622.4844,293389.292,294156.0897,294922.9869,295689.6766,281856.8833,294932.319
Mixed,Male,tile,29,M_bluff.wav,space,548.5395696,4271,290340.2026,282623.4945,283373.1036,284139.7133,284906.4739,285672.988,286439.7338,287206.7522,291106.7844,291856.1159,292622.4844,293389.292,294156.0897,294922.9869,295689.6766,296456.2934,295699.27
Mixed,Male,tile,29,F_knife.wav,None,726.1412623,4271,290340.2026,297222.7841,283373.1036,284139.7133,284906.4739,285672.988,286439.7338,287206.7522,291106.7844,291856.1159,292622.4844,293389.292,294156.0897,294922.9869,295689.6766,296456.2934,296465.6079
Mixed,Male,tile,29,F_bluff.wav,None,724.8195424,4271,290340.2026,297222.7841,297989.5243,284139.7133,284906.4739,285672.988,286439.7338,287206.7522,291106.7844,291856.1159,292622.4844,293389.292,294156.0897,294922.9869,295689.6766,296456.2934,297232.3688
Mixed,Male,tile,29,M_tile.wav,None,723.9850815,4271,290340.2026,297222.7841,297989.5243,298755.7132,284906.4739,285672.988,286439.7338,287206.7522,291106.7844,291856.1159,292622.4844,293389.292,294156.0897,294922.9869,295689.6766,296456.2934,297998.7636
Mixed,Male,tile,29,M_jaw.wav,space,371.4260627,4271,290340.2026,297222.7841,297989.5243,298755.7132,299522.6475,285672.988,286439.7338,287206.7522,291106.7844,291856.1159,292622.4844,293389.292,294156.0897,294922.9869,295689.6766,296456.2934,298764.3988
Mixed,Male,tile,29,F_greet.wav,None,724.0561922,4271,290340.2026,297222.7841,297989.5243,298755.7132,299522.6475,300289.7991,286439.7338,287206.7522,291106.7844,291856.1159,292622.4844,293389.292,294156.0897,294922.9869,295689.6766,296456.2934,299531.5365
Mixed,Male,tile,29,M_tile.wav,None,721.1901476,4271,290340.2026,297222.7841,297989.5243,298755.7132,299522.6475,300289.7991,301056.727,287206.7522,291106.7844,291856.1159,292622.4844,293389.292,294156.0897,294922.9869,295689.6766,296456.2934,300299.9005
Mixed,Male,tile,29,F_cad.wav,space,421.5082568,4271,290340.2026,297222.7841,297989.5243,298755.7132,299522.6475,300289.7991,301056.727,301806.0334,291106.7844,291856.1159,292622.4844,293389.292,294156.0897,294922.9869,295689.6766,296456.2934,301066.2452
Mixed,Female,done,45,F_greet.wav,None,735.0822696,4271,304939.7806,297222.7841,297989.5243,298755.7132,299522.6475,300289.7991,301056.727,301806.0334,291106.7844,291856.1159,292622.4844,293389.292,294156.0897,294922.9869,295689.6766,296456.2934,301815.2777
Mixed,Female,done,45,M_knife.wav,None,720.7109276,4271,304939.7806,297222.7841,297989.5243,298755.7132,299522.6475,300289.7991,301056.727,301806.0334,305706.0718,291856.1159,292622.4844,293389.292,294156.0897,294922.9869,295689.6766,296456.2934,304949.523
Mixed,Female,done,45,M_cling.wav,None,720.4938876,4271,304939.7806,297222.7841,297989.5243,298755.7132,299522.6475,300289.7991,301056.727,301806.0334,305706.0718,306472.7372,292622.4844,293389.292,294156.0897,294922.9869,295689.6766,296456.2934,305715.1313
Mixed,Female,done,45,F_done.wav,None,720.5755091,4271,304939.7806,297222.7841,297989.5243,298755.7132,299522.6475,300289.7991,301056.727,301806.0334,305706.0718,306472.7372,307222.4956,293389.292,294156.0897,294922.9869,295689.6766,296456.2934,306481.4333
Mixed,Female,done,45,F_cling.wav,space,407.6195355,4271,304939.7806,297222.7841,297989.5243,298755.7132,299522.6475,300289.7991,301056.727,301806.0334,305706.0718,306472.7372,307222.4956,307989.2308,294156.0897,294922.9869,295689.6766,296456.2934,307232.0646
Mixed,Female,done,45,F_done.wav,None,732.6419582,4271,304939.7806,297222.7841,297989.5243,298755.7132,299522.6475,300289.7991,301056.727,301806.0334,305706.0718,306472.7372,307222.4956,307989.2308,308756.103,294922.9869,295689.6766,296456.2934,307998.2943
Mixed,Female,done,45,M_gnash.wav,space,378.0909302,4271,304939.7806,297222.7841,297989.5243,298755.7132,299522.6475,300289.7991,301056.727,301806.0334,305706.0718,306472.7372,307222.4956,307989.2308,308756.103,309522.7412,295689.6766,296456.2934,308765.5421
Mixed,Female,done,45,M_lash.wav,None,727.7588616,4271,304939.7806,297222.7841,297989.5243,298755.7132,299522.6475,300289.7991,301056.727,301806.0334,305706.0718,306472.7372,307222.4956,307989.2308,308756.103,309522.7412,310289.0543,296456.2934,309532.0349
Mixed,Female,done,45,F_done.wav,None,727.2545984,4271,304939.7806,297222.7841,297989.5243,298755.7132,299522.6475,300289.7991,301056.727,301806.0334,305706.0718,306472.7372,307222.4956,307989.2308,308756.103,309522.7412,310289.0543,311056.0557,310298.3002
Mixed,Female,done,45,M_dime.wav,space,534.0915523,4271,304939.7806,311823.3261,297989.5243,298755.7132,299522.6475,300289.7991,301056.727,301806.0334,305706.0718,306472.7372,307222.4956,307989.2308,308756.103,309522.7412,310289.0543,311056.0557,311065.5174
Mixed,Female,done,45,M_depth.wav,None,721.9788507,4271,304939.7806,311823.3261,312589.61,298755.7132,299522.6475,300289.7991,301056.727,301806.0334,305706.0718,306472.7372,307222.4956,307989.2308,308756.103,309522.7412,310289.0543,311056.0557,311832.7603
Mixed,Female,done,45,F_dime.wav,None,721.1527373,4271,304939.7806,311823.3261,312589.61,313356.373,299522.6475,300289.7991,301056.727,301806.0334,305706.0718,306472.7372,307222.4956,307989.2308,308756.103,309522.7412,310289.0543,311056.0557,312599.0558
Mixed,Female,done,45,F_done.wav,None,719.4562987,4271,304939.7806,311823.3261,312589.61,313356.373,314105.6368,300289.7991,301056.727,301806.0334,305706.0718,306472.7372,307222.4956,307989.2308,308756.103,309522.7412,310289.0543,311056.0557,313366.2659
Mixed,Female,done,45,M_reek.wav,space,613.1167752,4271,304939.7806,311823.3261,312589.61,313356.373,314105.6368,314872.5507,301056.727,301806.0334,305706.0718,306472.7372,307222.4956,307989.2308,308756.103,309522.7412,310289.0543,311056.0557,314114.4226
Mixed,Female,done,45,F_priest.wav,None,732.9570064,4271,304939.7806,311823.3261,312589.61,313356.373,314105.6368,314872.5507,315639.3746,301806.0334,305706.0718,306472.7372,307222.4956,307989.2308,308756.103,309522.7412,310289.0543,311056.0557,314881.7789
Mixed,Female,done,45,M_depth.wav,None,731.7326767,4271,304939.7806,311823.3261,312589.61,313356.373,314105.6368,314872.5507,315639.3746,316406.0202,305706.0718,306472.7372,307222.4956,307989.2308,308756.103,309522.7412,310289.0543,311056.0557,315648.4065
Mixed,Male,cave,15,F_cad.wav,None,730.1339372,4271,319539.8493,311823.3261,312589.61,313356.373,314105.6368,314872.5507,315639.3746,316406.0202,305706.0718,306472.7372,307222.4956,307989.2308,308756.103,309522.7412,310289.0543,311056.0557,316415.4518
Mixed,Male,cave,15,M_cave.wav,None,720.5767459,4271,319539.8493,311823.3261,312589.61,313356.373,314105.6368,314872.5507,315639.3746,316406.0202,320306.3415,306472.7372,307222.4956,307989.2308,308756.103,309522.7412,310289.0543,311056.0557,319549.362
Mixed,Male,cave,15,F_park.wav,space,547.3721279,4271,319539.8493,311823.3261,312589.61,313356.373,314105.6368,314872.5507,315639.3746,316406.0202,320306.3415,321055.9188,307222.4956,307989.2308,308756.103,309522.7412,310289.0543,311056.0557,320316.0913
Mixed,Male,cave,15,M_bluff.wav,None,733.2692724,4271,319539.8493,311823.3261,312589.61,313356.373,314105.6368,314872.5507,315639.3746,316406.0202,320306.3415,321055.9188,321822.0953,307989.2308,308756.103,309522.7412,310289.0543,311056.0557,321065.6596
Mixed,Male,cave,15,F_knife.wav,None,733.590195,4271,319539.8493,311823.3261,312589.61,313356.373,314105.6368,314872.5507,315639.3746,316406.0202,320306.3415,321055.9188,321822.0953,322589.2788,308756.103,309522.7412,310289.0543,311056.0557,321830.9225
Mixed,Male,cave,15,M_cave.wav,None,731.9348766,4271,319539.8493,311823.3261,312589.61,313356.373,314105.6368,314872.5507,315639.3746,316406.0202,320306.3415,321055.9188,321822.0953,322589.2788,323355.8848,309522.7412,310289.0543,311056.0557,322598.2792
Mixed,Male,cave,15,M_gnash.wav,space,458.0544969,4271,319539.8493,311823.3261,312589.61,313356.373,314105.6368,314872.5507,315639.3746,316406.0202,320306.3415,321055.9188,321822.0953,322589.2788,323355.8848,324122.4135,310289.0543,311056.0557,323365.3731
Mixed,Male,cave,15,F_knife.wav,None,728.1437833,4271,319539.8493,311823.3261,312589.61,313356.373,314105.6368,314872.5507,315639.3746,316406.0202,320306.3415,321055.9188,321822.0953,322589.2788,323355.8848,324122.4135,324888.7369,311056.0557,324131.7419
Mixed,Male,cave,15,F_knife.wav,None,727.8457396,4271,319539.8493,311823.3261,312589.61,313356.373,314105.6368,314872.5507,315639.3746,316406.0202,320306.3415,321055.9188,321822.0953,322589.2788,323355.8848,324122.4135,324888.7369,325655.8218,324897.5663
Mixed,Male,cave,15,F_bluff.wav,None,725.3590515,4271,319539.8493,326422.4797,312589.61,313356.373,314105.6368,314872.5507,315639.3746,316406.0202,320306.3415,321055.9188,321822.0953,322589.2788,323355.8848,324122.4135,324888.7369,325655.8218,325665.5917
Mixed,Male,cave,15,M_cad.wav,None,724.3465064,4271,319539.8493,326422.4797,327189.6332,313356.373,314105.6368,314872.5507,315639.3746,316406.0202,320306.3415,321055.9188,321822.0953,322589.2788,323355.8848,324122.4135,324888.7369,325655.8218,326432.1336
Mixed,Male,cave,15,M_cave.wav,None,722.1878525,4271,319539.8493,326422.4797,327189.6332,327956.1798,314105.6368,314872.5507,315639.3746,316406.0202,320306.3415,321055.9188,321822.0953,322589.2788,323355.8848,324122.4135,324888.7369,325655.8218,327199.7485
Mixed,Male,cave,15,M_cad.wav,space,545.0894949,4271,319539.8493,326422.4797,327189.6332,327956.1798,328705.9618,314872.5507,315639.3746,316406.0202,320306.3415,321055.9188,321822.0953,322589.2788,323355.8848,324122.4135,324888.7369,325655.8218,327966.2549
Mixed,Male,cave,15,F_depth.wav,None,735.451424,4271,319539.8493,326422.4797,327189.6332,327956.1798,328705.9618,329471.9018,315639.3746,316406.0202,320306.3415,321055.9188,321822.0953,322589.2788,323355.8848,324122.4135,324888.7369,325655.8218,328715.8068
Mixed,Male,cave,15,M_cave.wav,None,735.8728279,4271,319539.8493,326422.4797,327189.6332,327956.1798,328705.9618,329471.9018,330238.7152,316406.0202,320306.3415,321055.9188,321822.0953,322589.2788,323355.8848,324122.4135,324888.7369,325655.8218,329480.8824
Mixed,Male,cave,15,F_cad.wav,space,479.4623335,4271,319539.8493,326422.4797,327189.6332,327956.1798,328705.9618,329471.9018,330238.7152,331005.1561,320306.3415,321055.9188,321822.0953,322589.2788,323355.8848,324122.4135,324888.7369,325655.8218,330247.8553
Mixed,Female,cave,23,M_park.wav,None,733.5033175,4271,334139.4255,326422.4797,327189.6332,327956.1798,328705.9618,329471.9018,330238.7152,331005.1561,320306.3415,321055.9188,321822.0953,322589.2788,323355.8848,324122.4135,324888.7369,325655.8218,331013.9434
Mixed,Female,cave,23,F_greet.wav,None,720.4762646,4271,334139.4255,326422.4797,327189.6332,327956.1798,328705.9618,329471.9018,330238.7152,331005.1561,334905.6101,321055.9188,321822.0953,322589.2788,323355.8848,324122.4135,324888.7369,325655.8218,334149.1938
Mixed,Female,cave,23,F_cave.wav,None,720.7842013,4271,334139.4255,326422.4797,327189.6332,327956.1798,328705.9618,329471.9018,330238.7152,331005.1561,334905.6101,335655.2325,321822.0953,322589.2788,323355.8848,324122.4135,324888.7369,325655.8218,334914.5028
Mixed,Female,cave,23,M_reek.wav,space,551.1180819,4271,334139.4255,326422.4797,327189.6332,327956.1798,328705.9618,329471.9018,330238.7152,331005.1561,334905.6101,335655.2325,336422.3968,322589.2788,323355.8848,324122.4135,324888.7369,325655.8218,335664.1098
Mixed,Female,cave,23,M_greet.wav,None,732.9189782,4271,334139.4255,326422.4797,327189.6332,327956.1798,328705.9618,329471.9018,330238.7152,331005.1561,334905.6101,335655.2325,336422.3968,337188.6438,323355.8848,324122.4135,324888.7369,325655.8218,336431.5335
Mixed,Female,cave,23,F_cave.wav,None,732.1525356,4271,334139.4255,326422.4797,327189.6332,327956.1798,328705.9618,329471.9018,330238.7152,331005.1561,334905.6101,335655.2325,336422.3968,337188.6438,337955.6889,324122.4135,324888.7369,325655.8218,337198.0118
Mixed,Female,cave,23,M_jaw.wav,space,642.0935048,4271,334139.4255,326422.4797,327189.6332,327956.1798,328705.9618,329471.9018,330238.7152,331005.1561,334905.6101,335655.2325,336422.3968,337188.6438,337955.6889,338722.2515,324888.7369,325655.8218,337965.0955
Mixed,Female,cave,23,F_bluff.wav,None,727.9057191,4271,334139.4255,326422.4797,327189.6332,327956.1798,328705.9618,329471.9018,330238.7152,331005.1561,334905.6101,335655.2325,336422.3968,337188.6438,337955.6889,338722.2515,339488.98,325655.8218,338731.4887
Mixed,Female,cave,23,M_jaw.wav,None,726.8335032,4271,334139.4255,326422.4797,327189.6332,327956.1798,328705.9618,329471.9018,330238.7152,331005.1561,334905.6101,335655.2325,336422.3968,337188.6438,337955.6889,338722.2515,339488.98,340255.6453,339498.3158
Mixed,Female,cave,23,F_cave.wav,None,725.258261,4271,334139.4255,341022.2664,327189.6332,327956.1798,328705.9618,329471.9018,330238.7152,331005.1561,334905.6101,335655.2325,336422.3968,337188.6438,337955.6889,338722.2515,339488.98,340255.6453,340265.3846
Mixed,Female,cave,23,F_romp.wav,space,618.6800548,4271,334139.4255,341022.2664,341789.2072,327956.1798,328705.9618,329471.9018,330238.7152,331005.1561,334905.6101,335655.2325,336422.3968,337188.6438,337955.6889,338722.2515,339488.98,340255.6453,341028.4935
Mixed,Female,cave,23,M_reek.wav,None,720.7548302,4271,334139.4255,341022.2664,341789.2072,342555.4218,328705.9618,329471.9018,330238.7152,331005.1561,334905.6101,335655.2325,336422.3968,337188.6438,337955.6889,338722.2515,339488.98,340255.6453,341799.1889
Mixed,Female,cave,23,M_park.wav,None,721.1824181,4271,334139.4255,341022.2664,341789.2072,342555.4218,343322.6047,329471.9018,330238.7152,331005.1561,334905.6101,335655.2325,336422.3968,337188.6438,337955.6889,338722.2515,339488.98,340255.6453,342564.3708
Mixed,Female,cave,23,F_cave.wav,None,718.8067236,4271,334139.4255,341022.2664,341789.2072,342555.4218,343322.6047,344071.9532,330238.7152,331005.1561,334905.6101,335655.2325,336422.3968,337188.6438,337955.6889,338722.2515,339488.98,340255.6453,343332.3118
Mixed,Female,cave,23,F_cad.wav,None,735.3834054,4271,334139.4255,341022.2664,341789.2072,342555.4218,343322.6047,344071.9532,344838.7518,331005.1561,334905.6101,335655.2325,336422.3968,337188.6438,337955.6889,338722.2515,339488.98,340255.6453,344081.1758
Mixed,Female,cave,23,M_knife.wav,space,0.034009106,4271,334139.4255,341022.2664,341789.2072,342555.4218,343322.6047,344071.9532,344838.7518,345605.6026,334905.6101,335655.2325,336422.3968,337188.6438,337955.6889,338722.2515,339488.98,340255.6453,344848.59
Mixed,Female,done,43,F_priest.wav,None,730.4916517,4271,348739.0842,341022.2664,341789.2072,342555.4218,343322.6047,344071.9532,344838.7518,345605.6026,334905.6101,335655.2325,336422.3968,337188.6438,337955.6889,338722.2515,339488.98,340255.6453,345615.1842
Mixed,Female,done,43,M_dime.wav,None,720.5884946,4271,348739.0842,341022.2664,341789.2072,342555.4218,343322.6047,344071.9532,344838.7518,345605.6026,349505.7434,335655.2325,336422.3968,337188.6438,337955.6889,338722.2515,339488.98,340255.6453,348748.83
Mixed,Female,done,43,M_knife.wav,None,719.2500792,4271,348739.0842,341022.2664,341789.2072,342555.4218,343322.6047,344071.9532,344838.7518,345605.6026,349505.7434,350255.1113,336422.3968,337188.6438,337955.6889,338722.2515,339488.98,340255.6453,349515.8092
Mixed,Female,done,43,M_dime.wav,None,736.7950948,4271,348739.0842,341022.2664,341789.2072,342555.4218,343322.6047,344071.9532,344838.7518,345605.6026,349505.7434,350255.1113,351021.854,337188.6438,337955.6889,338722.2515,339488.98,340255.6453,350263.972
Mixed,Female,done,43,M_park.wav,None,734.7087874,4271,348739.0842,341022.2664,341789.2072,342555.4218,343322.6047,344071.9532,344838.7518,345605.6026,349505.7434,350255.1113,351021.854,351788.6346,337955.6889,338722.2515,339488.98,340255.6453,351031.7621
Mixed,Female,done,43,F_done.wav,None,734.1164094,4271,348739.0842,341022.2664,341789.2072,342555.4218,343322.6047,344071.9532,344838.7518,345605.6026,349505.7434,350255.1113,351021.854,351788.6346,352555.4413,338722.2515,339488.98,340255.6453,351798.3229
Mixed,Female,done,43,F_lash.wav,space,490.1099824,4271,348739.0842,341022.2664,341789.2072,342555.4218,343322.6047,344071.9532,344838.7518,345605.6026,349505.7434,350255.1113,351021.854,351788.6346,352555.4413,353321.8348,339488.98,340255.6453,352564.8773
Mixed,Female,done,43,F_dime.wav,None,730.9297514,4271,348739.0842,341022.2664,341789.2072,342555.4218,343322.6047,344071.9532,344838.7518,345605.6026,349505.7434,350255.1113,351021.854,351788.6346,352555.4413,353321.8348,354088.5574,340255.6453,353330.8974
Mixed,Female,done,43,M_bluff.wav,None,729.8244541,4271,348739.0842,341022.2664,341789.2072,342555.4218,343322.6047,344071.9532,344838.7518,345605.6026,349505.7434,350255.1113,351021.854,351788.6346,352555.4413,353321.8348,354088.5574,354855.0233,354097.8703
Mixed,Female,done,43,M_romp.wav,None,729.375842,4271,348739.0842,355621.8108,341789.2072,342555.4218,343322.6047,344071.9532,344838.7518,345605.6026,349505.7434,350255.1113,351021.854,351788.6346,352555.4413,353321.8348,354088.5574,354855.0233,354863.9263
Mixed,Female,done,43,F_done.wav,None,727.8333725,4271,348739.0842,355621.8108,356388.767,342555.4218,343322.6047,344071.9532,344838.7518,345605.6026,349505.7434,350255.1113,351021.854,351788.6346,352555.4413,353321.8348,354088.5574,354855.0233,355631.3618
Mixed,Female,done,43,F_reek.wav,space,558.1604512,4271,348739.0842,355621.8108,356388.767,357155.1952,343322.6047,344071.9532,344838.7518,345605.6026,349505.7434,350255.1113,351021.854,351788.6346,352555.4413,353321.8348,354088.5574,354855.0233,356392.7575
Mixed,Female,done,43,F_done.wav,None,725.1939527,4271,348739.0842,355621.8108,356388.767,357155.1952,357922.3614,344071.9532,344838.7518,345605.6026,349505.7434,350255.1113,351021.854,351788.6346,352555.4413,353321.8348,354088.5574,354855.0233,357164.3462
Mixed,Female,done,43,M_gnash.wav,None,723.968077,4271,348739.0842,355621.8108,356388.767,357155.1952,357922.3614,358689.0991,344838.7518,345605.6026,349505.7434,350255.1113,351021.854,351788.6346,352555.4413,353321.8348,354088.5574,354855.0233,357931.8132
Mixed,Female,done,43,F_done.wav,space,0.040501822,4271,348739.0842,355621.8108,356388.767,357155.1952,357922.3614,358689.0991,359455.7103,345605.6026,349505.7434,350255.1113,351021.854,351788.6346,352555.4413,353321.8348,354088.5574,354855.0233,358699.0796
Mixed,Female,done,43,M_romp.wav,space,717.1164686,4271,348739.0842,355621.8108,356388.767,357155.1952,357922.3614,358689.0991,359455.7103,360205.2552,349505.7434,350255.1113,351021.854,351788.6346,352555.4413,353321.8348,354088.5574,354855.0233,359465.7801
Mixed,Female,tile,31,F_knife.wav,None,733.950383,4271,367905.6326,355621.8108,356388.767,357155.1952,357922.3614,358689.0991,359455.7103,360205.2552,349505.7434,350255.1113,351021.854,351788.6346,352555.4413,353321.8348,354088.5574,354855.0233,360214.7731
Mixed,Female,tile,31,M_dime.wav,None,719.6473684,4271,367905.6326,355621.8108,356388.767,357155.1952,357922.3614,358689.0991,359455.7103,360205.2552,368671.6475,350255.1113,351021.854,351788.6346,352555.4413,353321.8348,354088.5574,354855.0233,367915.5689
Mixed,Female,tile,31,M_dime.wav,None,720.5779827,4271,367905.6326,355621.8108,356388.767,357155.1952,357922.3614,358689.0991,359455.7103,360205.2552,368671.6475,369421.6894,351021.854,351788.6346,352555.4413,353321.8348,354088.5574,354855.0233,368680.5538
Mixed,Female,tile,31,F_tile.wav,None,736.1789104,4271,367905.6326,355621.8108,356388.767,357155.1952,357922.3614,358689.0991,359455.7103,360205.2552,368671.6475,369421.6894,370188.0444,351788.6346,352555.4413,353321.8348,354088.5574,354855.0233,369430.7798
Mixed,Female,tile,31,F_park.wav,space,513.4399552,4271,367905.6326,355621.8108,356388.767,357155.1952,357922.3614,358689.0991,359455.7103,360205.2552,368671.6475,369421.6894,370188.0444,370955.1818,352555.4413,353321.8348,354088.5574,354855.0233,370197.288
Mixed,Female,tile,31,M_cad.wav,None,731.9886731,4271,367905.6326,355621.8108,356388.767,357155.1952,357922.3614,358689.0991,359455.7103,360205.2552,368671.6475,369421.6894,370188.0444,370955.1818,371721.8376,353321.8348,354088.5574,354855.0233,370964.6064
Mixed,Female,tile,31,M_dime.wav,None,731.4587482,4271,367905.6326,355621.8108,356388.767,357155.1952,357922.3614,358689.0991,359455.7103,360205.2552,368671.6475,369421.6894,370188.0444,370955.1818,371721.8376,372488.4411,354088.5574,354855.0233,371731.2773
Mixed,Female,tile,31,F_tile.wav,None,731.0787737,4271,367905.6326,355621.8108,356388.767,357155.1952,357922.3614,358689.0991,359455.7103,360205.2552,368671.6475,369421.6894,370188.0444,370955.1818,371721.8376,372488.4411,373255.4193,354855.0233,372497.699
Mixed,Female,tile,31,M_depth.wav,space,525.6288368,4271,367905.6326,355621.8108,356388.767,357155.1952,357922.3614,358689.0991,359455.7103,360205.2552,368671.6475,369421.6894,370188.0444,370955.1818,371721.8376,372488.4411,373255.4193,374021.8348,373265.0584
