"Condition","Talker","Target","Trial","current_stimulus","response_response","response_time_response","subject_nr","time_Audio1","time_Audio10","time_Audio11","time_Audio12","time_Audio13","time_Audio14","time_Audio15","time_Audio16","time_Audio2","time_Audio3","time_Audio4","time_Audio5","time_Audio6","time_Audio7","time_Audio8","time_Audio9","time_response","title"
"Mixed","Both","cave","16","F_cling.wav","NA","NA","116","2412728.30508","NA","NA","NA","NA","NA","NA","NA","NA","NA","NA","NA","NA","NA","NA","NA","NA","Mapping"
"Mixed","Both","cave","16","F_greet.wav","None","722.25394682","116","2412728.30508","NA","NA","NA","NA","NA","NA","NA","2413495.22683","NA","NA","NA","NA","NA","NA","NA","2412742.81149","Mapping"
"Mixed","Both","cave","16","M_dime.wav","None","729.454281478","116","2412728.30508","NA","NA","NA","NA","NA","NA","NA","2413495.22683","2414261.59577","NA","NA","NA","NA","NA","NA","2413504.88478","Mapping"
"Mixed","Both","cave","16","M_cave.wav","None","732.008670457","116","2412728.30508","NA","NA","NA","NA","NA","NA","NA","2413495.22683","2414261.59577","2415028.07324","NA","NA","NA","NA","NA","2414271.13779","Mapping"
"Mixed","Both","cave","16","M_gnash.wav","None","733.996963274","116","2412728.30508","NA","NA","NA","NA","NA","NA","NA","2413495.22683","2414261.59577","2415028.07324","2415811.34066","NA","NA","NA","NA","2415038.10034","Mapping"
"Mixed","Both","cave","16","F_cave.wav","space","0.0268980804831","116","2412728.30508","NA","NA","NA","NA","NA","NA","NA","2413495.22683","2414261.59577","2415028.07324","2415811.34066","2416578.44574","NA","NA","NA","2415820.9006","Mapping"
"Mixed","Both","cave","16","M_tile.wav","None","720.979225734","116","2412728.30508","NA","NA","NA","NA","NA","NA","NA","2413495.22683","2414261.59577","2415028.07324","2415811.34066","2416578.44574","2417344.79614","NA","NA","2416588.79501","Mapping"
"Mixed","Both","cave","16","F_depth.wav","space","0.0340090477839","116","2412728.30508","NA","NA","NA","NA","NA","NA","NA","2413495.22683","2414261.59577","2415028.07324","2415811.34066","2416578.44574","2417344.79614","2418110.83643","NA","2417354.70576","Mapping"
"Mixed","Both","cave","16","M_cave.wav","None","731.104648002","116","2412728.30508","NA","NA","NA","NA","NA","NA","NA","2413495.22683","2414261.59577","2415028.07324","2415811.34066","2416578.44574","2417344.79614","2418110.83643","2418877.84196","2418119.64044","Mapping"
"Mixed","Both","cave","16","M_jaw.wav","space","588.057937828","116","2412728.30508","2419644.76092","NA","NA","NA","NA","NA","NA","2413495.22683","2414261.59577","2415028.07324","2415811.34066","2416578.44574","2417344.79614","2418110.83643","2418877.84196","2418887.05501","Mapping"
"Mixed","Both","cave","16","F_depth.wav","None","731.10959481","116","2412728.30508","2419644.76092","2420411.44337","NA","NA","NA","NA","NA","2413495.22683","2414261.59577","2415028.07324","2415811.34066","2416578.44574","2417344.79614","2418110.83643","2418877.84196","2419654.46092","Mapping"
"Mixed","Both","cave","16","F_cave.wav","None","730.844633363","116","2412728.30508","2419644.76092","2420411.44337","2421177.95793","NA","NA","NA","NA","2413495.22683","2414261.59577","2415028.07324","2415811.34066","2416578.44574","2417344.79614","2418110.83643","2418877.84196","2420420.78411","Mapping"
"Mixed","Both","cave","16","F_depth.wav","space","647.232142393","116","2412728.30508","2419644.76092","2420411.44337","2421177.95793","2421944.74209","NA","NA","NA","2413495.22683","2414261.59577","2415028.07324","2415811.34066","2416578.44574","2417344.79614","2418110.83643","2418877.84196","2421187.88857","Mapping"
"Mixed","Both","cave","16","F_knife.wav","None","729.457064037","116","2412728.30508","2419644.76092","2420411.44337","2421177.95793","2421944.74209","2422711.3896","NA","NA","2413495.22683","2414261.59577","2415028.07324","2415811.34066","2416578.44574","2417344.79614","2418110.83643","2418877.84196","2421954.13879","Mapping"
"Mixed","Both","cave","16","M_greet.wav","None","731.829040829","116","2412728.30508","2419644.76092","2420411.44337","2421177.95793","2421944.74209","2422711.3896","2423477.77431","NA","2413495.22683","2414261.59577","2415028.07324","2415811.34066","2416578.44574","2417344.79614","2418110.83643","2418877.84196","2422720.80269","Mapping"
"Mixed","Both","cave","16","M_tile.wav","None","734.742379893","116","2412728.30508","2419644.76092","2420411.44337","2421177.95793","2421944.74209","2422711.3896","2423477.77431","2424244.68956","2413495.22683","2414261.59577","2415028.07324","2415811.34066","2416578.44574","2417344.79614","2418110.83643","2418877.84196","2423487.06991","Mapping"
"Mixed","Both","done","42","F_reek.wav","None","734.279238415","116","2427411.24364","2419644.76092","2420411.44337","2421177.95793","2421944.74209","2422711.3896","2423477.77431","2424244.68956","2413495.22683","2414261.59577","2415028.07324","2415811.34066","2416578.44574","2417344.79614","2418110.83643","2418877.84196","2424253.95116","Mapping"
"Mixed","Both","done","42","F_reek.wav","None","726.320192741","116","2427411.24364","2419644.76092","2420411.44337","2421177.95793","2421944.74209","2422711.3896","2423477.77431","2424244.68956","2428177.92052","2414261.59577","2415028.07324","2415811.34066","2416578.44574","2417344.79614","2418110.83643","2418877.84196","2427420.50956","Mapping"
"Mixed","Both","done","42","F_done.wav","None","726.068525779","116","2427411.24364","2419644.76092","2420411.44337","2421177.95793","2421944.74209","2422711.3896","2423477.77431","2424244.68956","2428177.92052","2428944.7894","2415028.07324","2415811.34066","2416578.44574","2417344.79614","2418110.83643","2418877.84196","2428186.96013","Mapping"
"Mixed","Both","done","42","M_cave.wav","space","440.872944368","116","2427411.24364","2419644.76092","2420411.44337","2421177.95793","2421944.74209","2422711.3896","2423477.77431","2424244.68956","2428177.92052","2428944.7894","2429711.79956","2415811.34066","2416578.44574","2417344.79614","2418110.83643","2418877.84196","2428954.06645","Mapping"
"Mixed","Both","done","42","F_ball.wav","None","727.252040786","116","2427411.24364","2419644.76092","2420411.44337","2421177.95793","2421944.74209","2422711.3896","2423477.77431","2424244.68956","2428177.92052","2428944.7894","2429711.79956","2430477.96816","2416578.44574","2417344.79614","2418110.83643","2418877.84196","2429720.9514","Mapping"
"Mixed","Both","done","42","F_romp.wav","None","729.926388944","116","2427411.24364","2419644.76092","2420411.44337","2421177.95793","2421944.74209","2422711.3896","2423477.77431","2424244.68956","2428177.92052","2428944.7894","2429711.79956","2430477.96816","2431244.56991","2417344.79614","2418110.83643","2418877.84196","2430487.41619","Mapping"
"Mixed","Both","done","42","M_gnash.wav","None","732.500874176","116","2427411.24364","2419644.76092","2420411.44337","2421177.95793","2421944.74209","2422711.3896","2423477.77431","2424244.68956","2428177.92052","2428944.7894","2429711.79956","2430477.96816","2431244.56991","2432011.26163","2418110.83643","2418877.84196","2431253.94281","Mapping"
"Mixed","Both","done","42","M_jaw.wav","None","732.186754234","116","2427411.24364","2419644.76092","2420411.44337","2421177.95793","2421944.74209","2422711.3896","2423477.77431","2424244.68956","2428177.92052","2428944.7894","2429711.79956","2430477.96816","2431244.56991","2432011.26163","2432777.80279","2418877.84196","2432020.68585","Mapping"
"Mixed","Both","done","42","M_park.wav","None","732.546013489","116","2427411.24364","2419644.76092","2420411.44337","2421177.95793","2421944.74209","2422711.3896","2423477.77431","2424244.68956","2428177.92052","2428944.7894","2429711.79956","2430477.96816","2431244.56991","2432011.26163","2432777.80279","2433544.40083","2432787.03964","Mapping"
"Mixed","Both","done","42","F_done.wav","None","734.385903197","116","2427411.24364","2434310.93394","2420411.44337","2421177.95793","2421944.74209","2422711.3896","2423477.77431","2424244.68956","2428177.92052","2428944.7894","2429711.79956","2430477.96816","2431244.56991","2432011.26163","2432777.80279","2433544.40083","2433554.30643","Mapping"
"Mixed","Both","done","42","M_reek.wav","space","346.513592958","116","2427411.24364","2434310.93394","2435094.65492","2421177.95793","2421944.74209","2422711.3896","2423477.77431","2424244.68956","2428177.92052","2428944.7894","2429711.79956","2430477.96816","2431244.56991","2432011.26163","2432777.80279","2433544.40083","2434320.32477","Mapping"
"Mixed","Both","done","42","M_done.wav","None","720.078913349","116","2427411.24364","2434310.93394","2435094.65492","2435861.67498","2421944.74209","2422711.3896","2423477.77431","2424244.68956","2428177.92052","2428944.7894","2429711.79956","2430477.96816","2431244.56991","2432011.26163","2432777.80279","2433544.40083","2435103.81387","Mapping"
"Mixed","Both","done","42","M_reek.wav","None","721.486269758","116","2427411.24364","2434310.93394","2435094.65492","2435861.67498","2436628.25942","2422711.3896","2423477.77431","2424244.68956","2428177.92052","2428944.7894","2429711.79956","2430477.96816","2431244.56991","2432011.26163","2432777.80279","2433544.40083","2435871.45599","Mapping"
"Mixed","Both","done","42","F_park.wav","space","0.0405016760342","116","2427411.24364","2434310.93394","2435094.65492","2435861.67498","2436628.25942","2437394.72483","2423477.77431","2424244.68956","2428177.92052","2428944.7894","2429711.79956","2430477.96816","2431244.56991","2432011.26163","2432777.80279","2433544.40083","2436637.8475","Mapping"
"Mixed","Both","done","42","M_done.wav","None","723.387066595","116","2427411.24364","2434310.93394","2435094.65492","2435861.67498","2436628.25942","2437394.72483","2438161.56186","2424244.68956","2428177.92052","2428944.7894","2429711.79956","2430477.96816","2431244.56991","2432011.26163","2432777.80279","2433544.40083","2437404.86447","Mapping"
"Mixed","Both","done","42","F_ball.wav","space","487.793687498","116","2427411.24364","2434310.93394","2435094.65492","2435861.67498","2436628.25942","2437394.72483","2438161.56186","2438928.14877","2428177.92052","2428944.7894","2429711.79956","2430477.96816","2431244.56991","2432011.26163","2432777.80279","2433544.40083","2438170.98793","Mapping"
"Mixed","Both","tile","36","M_park.wav","None","722.323819966","116","2442061.35759","2434310.93394","2435094.65492","2435861.67498","2436628.25942","2437394.72483","2438161.56186","2438928.14877","2428177.92052","2428944.7894","2429711.79956","2430477.96816","2431244.56991","2432011.26163","2432777.80279","2433544.40083","2438938.21885","Mapping"
"Mixed","Both","tile","36","M_tile.wav","None","722.839520866","116","2442061.35759","2434310.93394","2435094.65492","2435861.67498","2436628.25942","2437394.72483","2438161.56186","2438928.14877","2442828.11114","2428944.7894","2429711.79956","2430477.96816","2431244.56991","2432011.26163","2432777.80279","2433544.40083","2442070.80499","Mapping"
"Mixed","Both","tile","36","F_cad.wav","space","508.913927129","116","2442061.35759","2434310.93394","2435094.65492","2435861.67498","2436628.25942","2437394.72483","2438161.56186","2438928.14877","2442828.11114","2443594.12824","2429711.79956","2430477.96816","2431244.56991","2432011.26163","2432777.80279","2433544.40083","2442837.79661","Mapping"
"Mixed","Both","tile","36","M_jaw.wav","None","725.570447743","116","2442061.35759","2434310.93394","2435094.65492","2435861.67498","2436628.25942","2437394.72483","2438161.56186","2438928.14877","2442828.11114","2443594.12824","2444360.90591","2430477.96816","2431244.56991","2432011.26163","2432777.80279","2433544.40083","2443603.19939","Mapping"
"Mixed","Both","tile","36","F_knife.wav","None","725.259728671","116","2442061.35759","2434310.93394","2435094.65492","2435861.67498","2436628.25942","2437394.72483","2438161.56186","2438928.14877","2442828.11114","2443594.12824","2444360.90591","2445127.62484","2431244.56991","2432011.26163","2432777.80279","2433544.40083","2444370.1202","Mapping"
"Mixed","Both","tile","36","F_tile.wav","None","724.781128549","116","2442061.35759","2434310.93394","2435094.65492","2435861.67498","2436628.25942","2437394.72483","2438161.56186","2438928.14877","2442828.11114","2443594.12824","2444360.90591","2445127.62484","2445894.27606","2432011.26163","2432777.80279","2433544.40083","2445136.98475","Mapping"
"Mixed","Both","tile","36","M_romp.wav","space","482.97336814","116","2442061.35759","2434310.93394","2435094.65492","2435861.67498","2436628.25942","2437394.72483","2438161.56186","2438928.14877","2442828.11114","2443594.12824","2444360.90591","2445127.62484","2445894.27606","2446661.02158","2432777.80279","2433544.40083","2445903.70213","Mapping"
"Mixed","Both","tile","36","F_jaw.wav","None","729.804883886","116","2442061.35759","2434310.93394","2435094.65492","2435861.67498","2436628.25942","2437394.72483","2438161.56186","2438928.14877","2442828.11114","2443594.12824","2444360.90591","2445127.62484","2445894.27606","2446661.02158","2447427.58932","2433544.40083","2446670.33882","Mapping"
"Mixed","Both","tile","36","M_jolt.wav","None","732.190155104","116","2442061.35759","2434310.93394","2435094.65492","2435861.67498","2436628.25942","2437394.72483","2438161.56186","2438928.14877","2442828.11114","2443594.12824","2444360.90591","2445127.62484","2445894.27606","2446661.02158","2447427.58932","2448194.1617","2447437.27695","Mapping"
"Mixed","Both","tile","36","F_knife.wav","None","735.177077382","116","2442061.35759","2448960.7214","2435094.65492","2435861.67498","2436628.25942","2437394.72483","2438161.56186","2438928.14877","2442828.11114","2443594.12824","2444360.90591","2445127.62484","2445894.27606","2446661.02158","2447427.58932","2448194.1617","2448203.62054","Mapping"
"Mixed","Both","tile","36","M_done.wav","None","735.118025303","116","2442061.35759","2448960.7214","2449743.83455","2435861.67498","2436628.25942","2437394.72483","2438161.56186","2438928.14877","2442828.11114","2443594.12824","2444360.90591","2445127.62484","2445894.27606","2446661.02158","2447427.58932","2448194.1617","2448969.93662","Mapping"
"Mixed","Both","tile","36","F_reek.wav","None","720.809180464","116","2442061.35759","2448960.7214","2449743.83455","2450511.16038","2436628.25942","2437394.72483","2438161.56186","2438928.14877","2442828.11114","2443594.12824","2444360.90591","2445127.62484","2445894.27606","2446661.02158","2447427.58932","2448194.1617","2449752.68803","Mapping"
"Mixed","Both","tile","36","F_tile.wav","None","719.137790147","116","2442061.35759","2448960.7214","2449743.83455","2450511.16038","2451261.49158","2437394.72483","2438161.56186","2438928.14877","2442828.11114","2443594.12824","2444360.90591","2445127.62484","2445894.27606","2446661.02158","2447427.58932","2448194.1617","2450520.68601","Mapping"
"Mixed","Both","tile","36","F_park.wav","space","523.792268999","116","2442061.35759","2448960.7214","2449743.83455","2450511.16038","2451261.49158","2452027.01896","2438161.56186","2438928.14877","2442828.11114","2443594.12824","2444360.90591","2445127.62484","2445894.27606","2446661.02158","2447427.58932","2448194.1617","2451270.78811","Mapping"
"Mixed","Both","tile","36","M_tile.wav","None","736.106452038","116","2442061.35759","2448960.7214","2449743.83455","2450511.16038","2451261.49158","2452027.01896","2452793.97162","2438928.14877","2442828.11114","2443594.12824","2444360.90591","2445127.62484","2445894.27606","2446661.02158","2447427.58932","2448194.1617","2452036.18841","Mapping"
"Mixed","Both","tile","36","M_cling.wav","space","639.096249651","116","2442061.35759","2448960.7214","2449743.83455","2450511.16038","2451261.49158","2452027.01896","2452793.97162","2453577.81225","2442828.11114","2443594.12824","2444360.90591","2445127.62484","2445894.27606","2446661.02158","2447427.58932","2448194.1617","2452803.3946","Mapping"
"Mixed","Both","ball","6","F_done.wav","None","720.24895862","116","2456694.47412","2448960.7214","2449743.83455","2450511.16038","2451261.49158","2452027.01896","2452793.97162","2453577.81225","2442828.11114","2443594.12824","2444360.90591","2445127.62484","2445894.27606","2446661.02158","2447427.58932","2448194.1617","2453587.47824","Mapping"
"Mixed","Both","ball","6","F_gnash.wav","None","721.955594694","116","2456694.47412","2448960.7214","2449743.83455","2450511.16038","2451261.49158","2452027.01896","2452793.97162","2453577.81225","2457460.72681","2443594.12824","2444360.90591","2445127.62484","2445894.27606","2446661.02158","2447427.58932","2448194.1617","2456704.41249","Mapping"
"Mixed","Both","ball","6","M_ball.wav","None","725.928470317","116","2456694.47412","2448960.7214","2449743.83455","2450511.16038","2451261.49158","2452027.01896","2452793.97162","2453577.81225","2457460.72681","2458227.38236","2444360.90591","2445127.62484","2445894.27606","2446661.02158","2447427.58932","2448194.1617","2457469.93028","Mapping"
"Mixed","Both","ball","6","M_park.wav","space","469.674592139","116","2456694.47412","2448960.7214","2449743.83455","2450511.16038","2451261.49158","2452027.01896","2452793.97162","2453577.81225","2457460.72681","2458227.38236","2458994.07871","2445127.62484","2445894.27606","2446661.02158","2447427.58932","2448194.1617","2458236.76855","Mapping"
"Mixed","Both","ball","6","M_ball.wav","None","732.756869577","116","2456694.47412","2448960.7214","2449743.83455","2450511.16038","2451261.49158","2452027.01896","2452793.97162","2453577.81225","2457460.72681","2458227.38236","2458994.07871","2459760.79177","2445894.27606","2446661.02158","2447427.58932","2448194.1617","2458998.35118","Mapping"
"Mixed","Both","ball","6","F_priest.wav","space","576.919973275","116","2456694.47412","2448960.7214","2449743.83455","2450511.16038","2451261.49158","2452027.01896","2452793.97162","2453577.81225","2457460.72681","2458227.38236","2458994.07871","2459760.79177","2460527.06703","2446661.02158","2447427.58932","2448194.1617","2459769.45326","Mapping"
"Mixed","Both","ball","6","M_cave.wav","None","730.081903079","116","2456694.47412","2448960.7214","2449743.83455","2450511.16038","2451261.49158","2452027.01896","2452793.97162","2453577.81225","2457460.72681","2458227.38236","2458994.07871","2459760.79177","2460527.06703","2461293.74855","2447427.58932","2448194.1617","2460536.33172","Mapping"
"Mixed","Both","ball","6","F_ball.wav","None","729.964108061","116","2456694.47412","2448960.7214","2449743.83455","2450511.16038","2451261.49158","2452027.01896","2452793.97162","2453577.81225","2457460.72681","2458227.38236","2458994.07871","2459760.79177","2460527.06703","2461293.74855","2462060.60197","2448194.1617","2461302.87225","Mapping"
"Mixed","Both","ball","6","M_cave.wav","space","532.288039365","116","2456694.47412","2448960.7214","2449743.83455","2450511.16038","2451261.49158","2452027.01896","2452793.97162","2453577.81225","2457460.72681","2458227.38236","2458994.07871","2459760.79177","2460527.06703","2461293.74855","2462060.60197","2462827.30296","2462070.02557","Mapping"
"Mixed","Both","ball","6","M_jolt.wav","None","729.014018842","116","2456694.47412","2463593.73188","2449743.83455","2450511.16038","2451261.49158","2452027.01896","2452793.97162","2453577.81225","2457460.72681","2458227.38236","2458994.07871","2459760.79177","2460527.06703","2461293.74855","2462060.60197","2462827.30296","2462836.38029","Mapping"
"Mixed","Both","ball","6","M_tile.wav","None","728.809346183","116","2456694.47412","2463593.73188","2464360.58376","2450511.16038","2451261.49158","2452027.01896","2452793.97162","2453577.81225","2457460.72681","2458227.38236","2458994.07871","2459760.79177","2460527.06703","2461293.74855","2462060.60197","2462827.30296","2463602.95328","Mapping"
"Mixed","Both","ball","6","F_ball.wav","None","728.558297531","116","2456694.47412","2463593.73188","2464360.58376","2465127.27022","2451261.49158","2452027.01896","2452793.97162","2453577.81225","2457460.72681","2458227.38236","2458994.07871","2459760.79177","2460527.06703","2461293.74855","2462060.60197","2462827.30296","2464369.85864","Mapping"
"Mixed","Both","ball","6","F_done.wav","space","409.456927999","116","2456694.47412","2463593.73188","2464360.58376","2465127.27022","2465893.87475","2452027.01896","2452793.97162","2453577.81225","2457460.72681","2458227.38236","2458994.07871","2459760.79177","2460527.06703","2461293.74855","2462060.60197","2462827.30296","2465136.84315","Mapping"
"Mixed","Both","ball","6","F_lash.wav","None","727.500306879","116","2456694.47412","2463593.73188","2464360.58376","2465127.27022","2465893.87475","2466660.64531","2452793.97162","2453577.81225","2457460.72681","2458227.38236","2458994.07871","2459760.79177","2460527.06703","2461293.74855","2462060.60197","2462827.30296","2465903.33051","Mapping"
"Mixed","Both","ball","6","F_romp.wav","None","730.539788579","116","2456694.47412","2463593.73188","2464360.58376","2465127.27022","2465893.87475","2466660.64531","2467427.18554","2453577.81225","2457460.72681","2458227.38236","2458994.07871","2459760.79177","2460527.06703","2461293.74855","2462060.60197","2462827.30296","2466669.85064","Mapping"
"Mixed","Both","ball","6","M_romp.wav","None","730.413336743","116","2456694.47412","2463593.73188","2464360.58376","2465127.27022","2465893.87475","2466660.64531","2467427.18554","2468193.86891","2457460.72681","2458227.38236","2458994.07871","2459760.79177","2460527.06703","2461293.74855","2462060.60197","2462827.30296","2467436.51082","Mapping"
"Mixed","Both","cave","22","M_greet.wav","None","729.675031151","116","2471327.69484","2463593.73188","2464360.58376","2465127.27022","2465893.87475","2466660.64531","2467427.18554","2468193.86891","2457460.72681","2458227.38236","2458994.07871","2459760.79177","2460527.06703","2461293.74855","2462060.60197","2462827.30296","2468203.71175","Mapping"
"Mixed","Both","cave","22","F_jaw.wav","None","722.489536798","116","2471327.69484","2463593.73188","2464360.58376","2465127.27022","2465893.87475","2466660.64531","2467427.18554","2468193.86891","2472094.35008","2458227.38236","2458994.07871","2459760.79177","2460527.06703","2461293.74855","2462060.60197","2462827.30296","2471337.61652","Mapping"
"Mixed","Both","cave","22","M_cave.wav","None","722.208189196","116","2471327.69484","2463593.73188","2464360.58376","2465127.27022","2465893.87475","2466660.64531","2467427.18554","2468193.86891","2472094.35008","2472860.68285","2458994.07871","2459760.79177","2460527.06703","2461293.74855","2462060.60197","2462827.30296","2472104.19137","Mapping"
"Mixed","Both","cave","22","F_depth.wav","space","444.295491674","116","2471327.69484","2463593.73188","2464360.58376","2465127.27022","2465893.87475","2466660.64531","2467427.18554","2468193.86891","2472094.35008","2472860.68285","2473627.64633","2459760.79177","2460527.06703","2461293.74855","2462060.60197","2462827.30296","2472869.86993","Mapping"
"Mixed","Both","cave","22","M_tile.wav","None","720.982626633","116","2471327.69484","2463593.73188","2464360.58376","2465127.27022","2465893.87475","2466660.64531","2467427.18554","2468193.86891","2472094.35008","2472860.68285","2473627.64633","2474394.13245","2460527.06703","2461293.74855","2462060.60197","2462827.30296","2473637.77917","Mapping"
"Mixed","Both","cave","22","M_park.wav","None","721.153908583","116","2471327.69484","2463593.73188","2464360.58376","2465127.27022","2465893.87475","2466660.64531","2467427.18554","2468193.86891","2472094.35008","2472860.68285","2473627.64633","2474394.13245","2475160.91538","2461293.74855","2462060.60197","2462827.30296","2474404.06928","Mapping"
"Mixed","Both","cave","22","F_park.wav","None","721.185753442","116","2471327.69484","2463593.73188","2464360.58376","2465127.27022","2465893.87475","2466660.64531","2467427.18554","2468193.86891","2472094.35008","2472860.68285","2473627.64633","2474394.13245","2475160.91538","2475927.32482","2462060.60197","2462827.30296","2475170.6231","Mapping"
"Mixed","Both","cave","22","F_cave.wav","None","721.205849695","116","2471327.69484","2463593.73188","2464360.58376","2465127.27022","2465893.87475","2466660.64531","2467427.18554","2468193.86891","2472094.35008","2472860.68285","2473627.64633","2474394.13245","2475160.91538","2475927.32482","2476694.04962","2462827.30296","2475937.07831","Mapping"
"Mixed","Both","cave","22","M_park.wav","space","482.037810027","116","2471327.69484","2463593.73188","2464360.58376","2465127.27022","2465893.87475","2466660.64531","2467427.18554","2468193.86891","2472094.35008","2472860.68285","2473627.64633","2474394.13245","2475160.91538","2475927.32482","2476694.04962","2477460.68043","2476704.03221","Mapping"
"Mixed","Both","cave","22","F_jolt.wav","None","719.632467255","116","2471327.69484","2478227.29332","2464360.58376","2465127.27022","2465893.87475","2466660.64531","2467427.18554","2468193.86891","2472094.35008","2472860.68285","2473627.64633","2474394.13245","2475160.91538","2475927.32482","2476694.04962","2477460.68043","2477471.02908","Mapping"
"Mixed","Both","cave","22","M_romp.wav","None","723.639661097","116","2471327.69484","2478227.29332","2478993.90898","2465127.27022","2465893.87475","2466660.64531","2467427.18554","2468193.86891","2472094.35008","2472860.68285","2473627.64633","2474394.13245","2475160.91538","2475927.32482","2476694.04962","2477460.68043","2478237.10307","Mapping"
"Mixed","Both","cave","22","M_cave.wav","None","723.183012306","116","2471327.69484","2478227.29332","2478993.90898","2479760.80444","2465893.87475","2466660.64531","2467427.18554","2468193.86891","2472094.35008","2472860.68285","2473627.64633","2474394.13245","2475160.91538","2475927.32482","2476694.04962","2477460.68043","2479004.05975","Mapping"
"Mixed","Both","cave","22","F_jolt.wav","space","407.925902313","116","2471327.69484","2478227.29332","2478993.90898","2479760.80444","2480527.45906","2466660.64531","2467427.18554","2468193.86891","2472094.35008","2472860.68285","2473627.64633","2474394.13245","2475160.91538","2475927.32482","2476694.04962","2477460.68043","2479770.10808","Mapping"
"Mixed","Both","cave","22","F_cave.wav","None","722.780159616","116","2471327.69484","2478227.29332","2478993.90898","2479760.80444","2480527.45906","2481293.79152","2467427.18554","2468193.86891","2472094.35008","2472860.68285","2473627.64633","2474394.13245","2475160.91538","2475927.32482","2476694.04962","2477460.68043","2480536.93955","Mapping"
"Mixed","Both","cave","22","F_jolt.wav","space","595.146660955","116","2471327.69484","2478227.29332","2478993.90898","2479760.80444","2480527.45906","2481293.79152","2482060.74542","2468193.86891","2472094.35008","2472860.68285","2473627.64633","2474394.13245","2475160.91538","2475927.32482","2476694.04962","2477460.68043","2481302.85617","Mapping"
"Mixed","Both","cave","22","M_priest.wav","None","721.392899461","116","2471327.69484","2478227.29332","2478993.90898","2479760.80444","2480527.45906","2481293.79152","2482060.74542","2482826.77118","2472094.35008","2472860.68285","2473627.64633","2474394.13245","2475160.91538","2475927.32482","2476694.04962","2477460.68043","2482070.75398","Mapping"
"Mixed","Both","tile","31","F_romp.wav","None","725.386489677","116","2485960.72387","2478227.29332","2478993.90898","2479760.80444","2480527.45906","2481293.79152","2482060.74542","2482826.77118","2472094.35008","2472860.68285","2473627.64633","2474394.13245","2475160.91538","2475927.32482","2476694.04962","2477460.68043","2482836.13171","Mapping"
"Mixed","Both","tile","31","M_tile.wav","None","722.277134802","116","2485960.72387","2478227.29332","2478993.90898","2479760.80444","2480527.45906","2481293.79152","2482060.74542","2482826.77118","2486726.86248","2472860.68285","2473627.64633","2474394.13245","2475160.91538","2475927.32482","2476694.04962","2477460.68043","2485970.58928","Mapping"
"Mixed","Both","tile","31","F_depth.wav","space","513.387972489","116","2485960.72387","2478227.29332","2478993.90898","2479760.80444","2480527.45906","2481293.79152","2482060.74542","2482826.77118","2486726.86248","2487493.78732","2473627.64633","2474394.13245","2475160.91538","2475927.32482","2476694.04962","2477460.68043","2486736.52013","Mapping"
"Mixed","Both","tile","31","M_greet.wav","None","722.53962286","116","2485960.72387","2478227.29332","2478993.90898","2479760.80444","2480527.45906","2481293.79152","2482060.74542","2482826.77118","2486726.86248","2487493.78732","2488261.00432","2474394.13245","2475160.91538","2475927.32482","2476694.04962","2477460.68043","2487503.06623","Mapping"
"Mixed","Both","tile","31","F_dime.wav","None","721.227182628","116","2485960.72387","2478227.29332","2478993.90898","2479760.80444","2480527.45906","2481293.79152","2482060.74542","2482826.77118","2486726.86248","2487493.78732","2488261.00432","2489026.97227","2475160.91538","2475927.32482","2476694.04962","2477460.68043","2488270.89663","Mapping"
"Mixed","Both","tile","31","M_tile.wav","None","725.219845335","116","2485960.72387","2478227.29332","2478993.90898","2479760.80444","2480527.45906","2481293.79152","2482060.74542","2482826.77118","2486726.86248","2487493.78732","2488261.00432","2489026.97227","2489793.50384","2475927.32482","2476694.04962","2477460.68043","2489036.5418","Mapping"
"Mixed","Both","tile","31","M_gnash.wav","space","550.627266057","116","2485960.72387","2478227.29332","2478993.90898","2479760.80444","2480527.45906","2481293.79152","2482060.74542","2482826.77118","2486726.86248","2487493.78732","2488261.00432","2489026.97227","2489793.50384","2490560.15196","2476694.04962","2477460.68043","2489803.21435","Mapping"
"Mixed","Both","tile","31","F_tile.wav","None","725.088137551","116","2485960.72387","2478227.29332","2478993.90898","2479760.80444","2480527.45906","2481293.79152","2482060.74542","2482826.77118","2486726.86248","2487493.78732","2488261.00432","2489026.97227","2489793.50384","2490560.15196","2491326.5747","2477460.68043","2490569.76385","Mapping"
"Mixed","Both","tile","31","M_jaw.wav","space","490.292116127","116","2485960.72387","2478227.29332","2478993.90898","2479760.80444","2480527.45906","2481293.79152","2482060.74542","2482826.77118","2486726.86248","2487493.78732","2488261.00432","2489026.97227","2489793.50384","2490560.15196","2491326.5747","2492093.44636","2491335.5262","Mapping"
"Mixed","Both","tile","31","M_gnash.wav","None","724.713419622","116","2485960.72387","2492860.41325","2478993.90898","2479760.80444","2480527.45906","2481293.79152","2482060.74542","2482826.77118","2486726.86248","2487493.78732","2488261.00432","2489026.97227","2489793.50384","2490560.15196","2491326.5747","2492093.44636","2492102.83101","Mapping"
"Mixed","Both","tile","31","M_dime.wav","None","723.350893328","116","2485960.72387","2492860.41325","2493626.78745","2479760.80444","2480527.45906","2481293.79152","2482060.74542","2482826.77118","2486726.86248","2487493.78732","2488261.00432","2489026.97227","2489793.50384","2490560.15196","2491326.5747","2492093.44636","2492870.74891","Mapping"
"Mixed","Both","tile","31","F_knife.wav","None","724.525442347","116","2485960.72387","2492860.41325","2493626.78745","2494393.40342","2480527.45906","2481293.79152","2482060.74542","2482826.77118","2486726.86248","2487493.78732","2488261.00432","2489026.97227","2489793.50384","2490560.15196","2491326.5747","2492093.44636","2493636.31245","Mapping"
"Mixed","Both","tile","31","F_tile.wav","None","724.590987055","116","2485960.72387","2492860.41325","2493626.78745","2494393.40342","2495160.1916","2481293.79152","2482060.74542","2482826.77118","2486726.86248","2487493.78732","2488261.00432","2489026.97227","2489793.50384","2490560.15196","2491326.5747","2492093.44636","2494402.89998","Mapping"
"Mixed","Both","tile","31","M_ball.wav","space","464.130807464","116","2485960.72387","2492860.41325","2493626.78745","2494393.40342","2495160.1916","2495927.16529","2482060.74542","2482826.77118","2486726.86248","2487493.78732","2488261.00432","2489026.97227","2489793.50384","2490560.15196","2491326.5747","2492093.44636","2495169.63097","Mapping"
"Mixed","Both","tile","31","F_greet.wav","None","723.402525269","116","2485960.72387","2492860.41325","2493626.78745","2494393.40342","2495160.1916","2495927.16529","2496693.69376","2482826.77118","2486726.86248","2487493.78732","2488261.00432","2489026.97227","2489793.50384","2490560.15196","2491326.5747","2492093.44636","2495936.83004","Mapping"
"Mixed","Both","tile","31","F_priest.wav","None","723.281947721","116","2485960.72387","2492860.41325","2493626.78745","2494393.40342","2495160.1916","2495927.16529","2496693.69376","2497460.19751","2486726.86248","2487493.78732","2488261.00432","2489026.97227","2489793.50384","2490560.15196","2491326.5747","2492093.44636","2496703.74467","Mapping"
"Mixed","Both","ball","8","F_depth.wav","None","723.473325924","116","2500593.64624","2492860.41325","2493626.78745","2494393.40342","2495160.1916","2495927.16529","2496693.69376","2497460.19751","2486726.86248","2487493.78732","2488261.00432","2489026.97227","2489793.50384","2490560.15196","2491326.5747","2492093.44636","2497470.21812","Mapping"
"Mixed","Both","ball","8","F_cad.wav","None","723.42973249","116","2500593.64624","2492860.41325","2493626.78745","2494393.40342","2495160.1916","2495927.16529","2496693.69376","2497460.19751","2501360.33333","2487493.78732","2488261.00432","2489026.97227","2489793.50384","2490560.15196","2491326.5747","2492093.44636","2500603.58833","Mapping"
"Mixed","Both","ball","8","M_ball.wav","None","722.982358886","116","2500593.64624","2492860.41325","2493626.78745","2494393.40342","2495160.1916","2495927.16529","2496693.69376","2497460.19751","2501360.33333","2502127.08039","2488261.00432","2489026.97227","2489793.50384","2490560.15196","2491326.5747","2492093.44636","2501370.59107","Mapping"
"Mixed","Both","ball","8","M_reek.wav","space","392.375727068","116","2500593.64624","2492860.41325","2493626.78745","2494393.40342","2495160.1916","2495927.16529","2496693.69376","2497460.19751","2501360.33333","2502127.08039","2502893.6908","2489026.97227","2489793.50384","2490560.15196","2491326.5747","2492093.44636","2502137.26424","Mapping"
"Mixed","Both","ball","8","M_park.wav","None","722.616916173","116","2500593.64624","2492860.41325","2493626.78745","2494393.40342","2495160.1916","2495927.16529","2496693.69376","2497460.19751","2501360.33333","2502127.08039","2502893.6908","2503660.43538","2489793.50384","2490560.15196","2491326.5747","2492093.44636","2502903.64586","Mapping"
"Mixed","Both","ball","8","M_gnash.wav","None","722.429866379","116","2500593.64624","2492860.41325","2493626.78745","2494393.40342","2495160.1916","2495927.16529","2496693.69376","2497460.19751","2501360.33333","2502127.08039","2502893.6908","2503660.43538","2504426.85843","2490560.15196","2491326.5747","2492093.44636","2503670.59327","Mapping"
"Mixed","Both","ball","8","F_jolt.wav","None","722.91372245","116","2500593.64624","2492860.41325","2493626.78745","2494393.40342","2495160.1916","2495927.16529","2496693.69376","2497460.19751","2501360.33333","2502127.08039","2502893.6908","2503660.43538","2504426.85843","2505193.48523","2491326.5747","2492093.44636","2504436.98509","Mapping"
"Mixed","Both","ball","8","M_ball.wav","None","723.374081339","116","2500593.64624","2492860.41325","2493626.78745","2494393.40342","2495160.1916","2495927.16529","2496693.69376","2497460.19751","2501360.33333","2502127.08039","2502893.6908","2503660.43538","2504426.85843","2505193.48523","2505960.24929","2492093.44636","2505203.2214","Mapping"
"Mixed","Both","ball","8","M_jolt.wav","None","723.624820792","116","2500593.64624","2492860.41325","2493626.78745","2494393.40342","2495160.1916","2495927.16529","2496693.69376","2497460.19751","2501360.33333","2502127.08039","2502893.6908","2503660.43538","2504426.85843","2505193.48523","2505960.24929","2506727.06221","2505969.57457","Mapping"
"Mixed","Both","ball","8","F_dime.wav","space","152.938706713","116","2500593.64624","2507493.55235","2493626.78745","2494393.40342","2495160.1916","2495927.16529","2496693.69376","2497460.19751","2501360.33333","2502127.08039","2502893.6908","2503660.43538","2504426.85843","2505193.48523","2505960.24929","2506727.06221","2506736.62586","Mapping"
"Mixed","Both","ball","8","F_ball.wav","None","722.001352318","116","2500593.64624","2507493.55235","2508259.91542","2494393.40342","2495160.1916","2495927.16529","2496693.69376","2497460.19751","2501360.33333","2502127.08039","2502893.6908","2503660.43538","2504426.85843","2505193.48523","2505960.24929","2506727.06221","2507503.9384","Mapping"
"Mixed","Both","ball","8","M_cave.wav","space","548.341548594","116","2500593.64624","2507493.55235","2508259.91542","2509026.96794","2495160.1916","2495927.16529","2496693.69376","2497460.19751","2501360.33333","2502127.08039","2502893.6908","2503660.43538","2504426.85843","2505193.48523","2505960.24929","2506727.06221","2508269.22338","Mapping"
"Mixed","Both","ball","8","M_lash.wav","None","722.220556112","116","2500593.64624","2507493.55235","2508259.91542","2509026.96794","2509793.16746","2495927.16529","2496693.69376","2497460.19751","2501360.33333","2502127.08039","2502893.6908","2503660.43538","2504426.85843","2505193.48523","2505960.24929","2506727.06221","2509036.5217","Mapping"
"Mixed","Both","ball","8","F_ball.wav","None","726.376462262","116","2500593.64624","2507493.55235","2508259.91542","2509026.96794","2509793.16746","2510559.79332","2496693.69376","2497460.19751","2501360.33333","2502127.08039","2502893.6908","2503660.43538","2504426.85843","2505193.48523","2505960.24929","2506727.06221","2509802.45966","Mapping"
"Mixed","Both","ball","8","F_cling.wav","space","415.997796197","116","2500593.64624","2507493.55235","2508259.91542","2509026.96794","2509793.16746","2510559.79332","2511326.4365","2497460.19751","2501360.33333","2502127.08039","2502893.6908","2503660.43538","2504426.85843","2505193.48523","2505960.24929","2506727.06221","2510569.43304","Mapping"
"Mixed","Both","ball","8","F_park.wav","None","725.740183843","116","2500593.64624","2507493.55235","2508259.91542","2509026.96794","2509793.16746","2510559.79332","2511326.4365","2512093.07505","2501360.33333","2502127.08039","2502893.6908","2503660.43538","2504426.85843","2505193.48523","2505960.24929","2506727.06221","2511335.73674","Mapping"
"Mixed","Both","cave","20","M_tile.wav","None","725.810366159","116","2515226.6793","2507493.55235","2508259.91542","2509026.96794","2509793.16746","2510559.79332","2511326.4365","2512093.07505","2501360.33333","2502127.08039","2502893.6908","2503660.43538","2504426.85843","2505193.48523","2505960.24929","2506727.06221","2512102.51132","Mapping"
"Mixed","Both","cave","20","F_cave.wav","None","723.115921719","116","2515226.6793","2507493.55235","2508259.91542","2509026.96794","2509793.16746","2510559.79332","2511326.4365","2512093.07505","2515993.20839","2502127.08039","2502893.6908","2503660.43538","2504426.85843","2505193.48523","2505960.24929","2506727.06221","2515236.42907","Mapping"
"Mixed","Both","cave","20","M_jaw.wav","space","446.503915853","116","2515226.6793","2507493.55235","2508259.91542","2509026.96794","2509793.16746","2510559.79332","2511326.4365","2512093.07505","2515993.20839","2516760.18239","2502893.6908","2503660.43538","2504426.85843","2505193.48523","2505960.24929","2506727.06221","2516002.86202","Mapping"
"Mixed","Both","cave","20","F_cling.wav","None","722.870129015","116","2515226.6793","2507493.55235","2508259.91542","2509026.96794","2509793.16746","2510559.79332","2511326.4365","2512093.07505","2515993.20839","2516760.18239","2517526.74054","2503660.43538","2504426.85843","2505193.48523","2505960.24929","2506727.06221","2516769.69379","Mapping"
"Mixed","Both","cave","20","M_priest.wav","None","722.752952366","116","2515226.6793","2507493.55235","2508259.91542","2509026.96794","2509793.16746","2510559.79332","2511326.4365","2512093.07505","2515993.20839","2516760.18239","2517526.74054","2518293.18214","2504426.85843","2505193.48523","2505960.24929","2506727.06221","2517536.49898","Mapping"
"Mixed","Both","cave","20","F_cave.wav","None","722.405132547","116","2515226.6793","2507493.55235","2508259.91542","2509026.96794","2509793.16746","2510559.79332","2511326.4365","2512093.07505","2515993.20839","2516760.18239","2517526.74054","2518293.18214","2519060.04082","2505193.48523","2505960.24929","2506727.06221","2518303.44917","Mapping"
"Mixed","Both","cave","20","F_greet.wav","space","435.314628558","116","2515226.6793","2507493.55235","2508259.91542","2509026.96794","2509793.16746","2510559.79332","2511326.4365","2512093.07505","2515993.20839","2516760.18239","2517526.74054","2518293.18214","2519060.04082","2519826.77675","2505960.24929","2506727.06221","2519070.02062","Mapping"
"Mixed","Both","cave","20","M_cave.wav","None","721.812756645","116","2515226.6793","2507493.55235","2508259.91542","2509026.96794","2509793.16746","2510559.79332","2511326.4365","2512093.07505","2515993.20839","2516760.18239","2517526.74054","2518293.18214","2519060.04082","2519826.77675","2520593.40292","2506727.06221","2519836.71729","Mapping"
"Mixed","Both","cave","20","M_reek.wav","space","485.966783075","116","2515226.6793","2507493.55235","2508259.91542","2509026.96794","2509793.16746","2510559.79332","2511326.4365","2512093.07505","2515993.20839","2516760.18239","2517526.74054","2518293.18214","2519060.04082","2519826.77675","2520593.40292","2521360.11845","2520603.34655","Mapping"
"Mixed","Both","cave","20","F_cling.wav","None","721.046934661","116","2515226.6793","2522126.53841","2508259.91542","2509026.96794","2509793.16746","2510559.79332","2511326.4365","2512093.07505","2515993.20839","2516760.18239","2517526.74054","2518293.18214","2519060.04082","2519826.77675","2520593.40292","2521360.11845","2521370.0089","Mapping"
"Mixed","Both","cave","20","F_cad.wav","None","721.646421501","116","2515226.6793","2522126.53841","2522893.25919","2509026.96794","2509793.16746","2510559.79332","2511326.4365","2512093.07505","2515993.20839","2516760.18239","2517526.74054","2518293.18214","2519060.04082","2519826.77675","2520593.40292","2521360.11845","2522136.14195","Mapping"
"Mixed","Both","cave","20","M_cave.wav","None","720.826184988","116","2515226.6793","2522126.53841","2522893.25919","2523660.26101","2509793.16746","2510559.79332","2511326.4365","2512093.07505","2515993.20839","2516760.18239","2517526.74054","2518293.18214","2519060.04082","2519826.77675","2520593.40292","2521360.11845","2522903.67493","Mapping"
"Mixed","Both","cave","20","F_ball.wav","space","499.091494538","116","2515226.6793","2522126.53841","2522893.25919","2523660.26101","2524426.68437","2510559.79332","2511326.4365","2512093.07505","2515993.20839","2516760.18239","2517526.74054","2518293.18214","2519060.04082","2519826.77675","2520593.40292","2521360.11845","2523670.15734","Mapping"
"Mixed","Both","cave","20","M_depth.wav","None","720.753220113","116","2515226.6793","2522126.53841","2522893.25919","2523660.26101","2524426.68437","2525192.82019","2511326.4365","2512093.07505","2515993.20839","2516760.18239","2517526.74054","2518293.18214","2519060.04082","2519826.77675","2520593.40292","2521360.11845","2524436.49011","Mapping"
"Mixed","Both","cave","20","M_priest.wav","None","724.385696055","116","2515226.6793","2522126.53841","2522893.25919","2523660.26101","2524426.68437","2525192.82019","2525959.46585","2512093.07505","2515993.20839","2516760.18239","2517526.74054","2518293.18214","2519060.04082","2519826.77675","2520593.40292","2521360.11845","2525202.61573","Mapping"
"Mixed","Both","cave","20","F_reek.wav","None","724.60675487","116","2515226.6793","2522126.53841","2522893.25919","2523660.26101","2524426.68437","2525192.82019","2525959.46585","2526726.21384","2515993.20839","2516760.18239","2517526.74054","2518293.18214","2519060.04082","2519826.77675","2520593.40292","2521360.11845","2525969.12998","Mapping"
"Mixed","Both","done","47","F_park.wav","None","725.173160172","116","2529859.84808","2522126.53841","2522893.25919","2523660.26101","2524426.68437","2525192.82019","2525959.46585","2526726.21384","2515993.20839","2516760.18239","2517526.74054","2518293.18214","2519060.04082","2519826.77675","2520593.40292","2521360.11845","2526735.22624","Mapping"
"Mixed","Both","done","47","F_bluff.wav","None","722.956697515","116","2529859.84808","2522126.53841","2522893.25919","2523660.26101","2524426.68437","2525192.82019","2525959.46585","2526726.21384","2530626.11314","2516760.18239","2517526.74054","2518293.18214","2519060.04082","2519826.77675","2520593.40292","2521360.11845","2529869.323","Mapping"
"Mixed","Both","done","47","M_done.wav","None","726.78302502","116","2529859.84808","2522126.53841","2522893.25919","2523660.26101","2524426.68437","2525192.82019","2525959.46585","2526726.21384","2530626.11314","2531392.89266","2517526.74054","2518293.18214","2519060.04082","2519826.77675","2520593.40292","2521360.11845","2530635.6805","Mapping"
"Mixed","Both","done","47","M_cling.wav","space","574.341778004","116","2529859.84808","2522126.53841","2522893.25919","2523660.26101","2524426.68437","2525192.82019","2525959.46585","2526726.21384","2530626.11314","2531392.89266","2532159.45237","2518293.18214","2519060.04082","2519826.77675","2520593.40292","2521360.11845","2531402.71757","Mapping"
"Mixed","Both","done","47","F_done.wav","None","726.35420179","116","2529859.84808","2522126.53841","2522893.25919","2523660.26101","2524426.68437","2525192.82019","2525959.46585","2526726.21384","2530626.11314","2531392.89266","2532159.45237","2532925.81605","2519060.04082","2519826.77675","2520593.40292","2521360.11845","2532168.84567","Mapping"
"Mixed","Both","done","47","F_knife.wav","space","521.980514051","116","2529859.84808","2522126.53841","2522893.25919","2523660.26101","2524426.68437","2525192.82019","2525959.46585","2526726.21384","2530626.11314","2531392.89266","2532159.45237","2532925.81605","2533692.7613","2519826.77675","2520593.40292","2521360.11845","2532935.07548","Mapping"
"Mixed","Both","done","47","F_done.wav","None","725.765226875","116","2529859.84808","2522126.53841","2522893.25919","2523660.26101","2524426.68437","2525192.82019","2525959.46585","2526726.21384","2530626.11314","2531392.89266","2532159.45237","2532925.81605","2533692.7613","2534459.24773","2520593.40292","2521360.11845","2533702.12894","Mapping"
"Mixed","Both","done","47","M_greet.wav","space","484.413187718","116","2529859.84808","2522126.53841","2522893.25919","2523660.26101","2524426.68437","2525192.82019","2525959.46585","2526726.21384","2530626.11314","2531392.89266","2532159.45237","2532925.81605","2533692.7613","2534459.24773","2535225.77899","2521360.11845","2534468.64381","Mapping"
"Mixed","Both","done","47","M_bluff.wav","None","725.684532663","116","2529859.84808","2522126.53841","2522893.25919","2523660.26101","2524426.68437","2525192.82019","2525959.46585","2526726.21384","2530626.11314","2531392.89266","2532159.45237","2532925.81605","2533692.7613","2534459.24773","2535225.77899","2535992.63642","2535234.96452","Mapping"
"Mixed","Both","done","47","F_cling.wav","None","729.070906701","116","2529859.84808","2536759.01619","2522893.25919","2523660.26101","2524426.68437","2525192.82019","2525959.46585","2526726.21384","2530626.11314","2531392.89266","2532159.45237","2532925.81605","2533692.7613","2534459.24773","2535225.77899","2535992.63642","2536002.2616","Mapping"
"Mixed","Both","done","47","M_tile.wav","None","730.400042288","116","2529859.84808","2536759.01619","2537525.92958","2523660.26101","2524426.68437","2525192.82019","2525959.46585","2526726.21384","2530626.11314","2531392.89266","2532159.45237","2532925.81605","2533692.7613","2534459.24773","2535225.77899","2535992.63642","2536767.79671","Mapping"
"Mixed","Both","done","47","M_done.wav","None","729.020511469","116","2529859.84808","2536759.01619","2537525.92958","2538292.30595","2524426.68437","2525192.82019","2525959.46585","2526726.21384","2530626.11314","2531392.89266","2532159.45237","2532925.81605","2533692.7613","2534459.24773","2535225.77899","2535992.63642","2537535.90691","Mapping"
"Mixed","Both","done","47","F_tile.wav","space","563.482687692","116","2529859.84808","2536759.01619","2537525.92958","2538292.30595","2539059.28303","2525192.82019","2525959.46585","2526726.21384","2530626.11314","2531392.89266","2532159.45237","2532925.81605","2533692.7613","2534459.24773","2535225.77899","2535992.63642","2538301.48406","Mapping"
"Mixed","Both","done","47","M_lash.wav","None","729.267540883","116","2529859.84808","2536759.01619","2537525.92958","2538292.30595","2539059.28303","2539826.00289","2525959.46585","2526726.21384","2530626.11314","2531392.89266","2532159.45237","2532925.81605","2533692.7613","2534459.24773","2535225.77899","2535992.63642","2539068.63707","Mapping"
"Mixed","Both","done","47","M_depth.wav","None","729.121920274","116","2529859.84808","2536759.01619","2537525.92958","2538292.30595","2539059.28303","2539826.00289","2540592.56197","2526726.21384","2530626.11314","2531392.89266","2532159.45237","2532925.81605","2533692.7613","2534459.24773","2535225.77899","2535992.63642","2539835.51769","Mapping"
"Mixed","Both","done","47","F_ball.wav","None","728.794815048","116","2529859.84808","2536759.01619","2537525.92958","2538292.30595","2539059.28303","2539826.00289","2540592.56197","2541359.15878","2530626.11314","2531392.89266","2532159.45237","2532925.81605","2533692.7613","2534459.24773","2535225.77899","2535992.63642","2540602.58475","Mapping"
"Mixed","Both","tile","32","M_bluff.wav","None","729.709967709","116","2544492.85454","2536759.01619","2537525.92958","2538292.30595","2539059.28303","2539826.00289","2540592.56197","2541359.15878","2530626.11314","2531392.89266","2532159.45237","2532925.81605","2533692.7613","2534459.24773","2535225.77899","2535992.63642","2541368.56352","Mapping"
"Mixed","Both","tile","32","F_priest.wav","None","722.206334176","116","2544492.85454","2536759.01619","2537525.92958","2538292.30595","2539059.28303","2539826.00289","2540592.56197","2541359.15878","2545259.3957","2531392.89266","2532159.45237","2532925.81605","2533692.7613","2534459.24773","2535225.77899","2535992.63642","2544502.77962","Mapping"
"Mixed","Both","tile","32","M_tile.wav","None","722.429248009","116","2544492.85454","2536759.01619","2537525.92958","2538292.30595","2539059.28303","2539826.00289","2540592.56197","2541359.15878","2545259.3957","2546026.34217","2532159.45237","2532925.81605","2533692.7613","2534459.24773","2535225.77899","2535992.63642","2545269.54183","Mapping"
"Mixed","Both","tile","32","F_ball.wav","space","443.911807728","116","2544492.85454","2536759.01619","2537525.92958","2538292.30595","2539059.28303","2539826.00289","2540592.56197","2541359.15878","2545259.3957","2546026.34217","2546792.5924","2532925.81605","2533692.7613","2534459.24773","2535225.77899","2535992.63642","2546036.91868","Mapping"
"Mixed","Both","tile","32","F_tile.wav","None","723.195688391","116","2544492.85454","2536759.01619","2537525.92958","2538292.30595","2539059.28303","2539826.00289","2540592.56197","2541359.15878","2545259.3957","2546026.34217","2546792.5924","2547559.44489","2533692.7613","2534459.24773","2535225.77899","2535992.63642","2546802.2689","Mapping"
"Mixed","Both","tile","32","F_cave.wav","space","527.636837767","116","2544492.85454","2536759.01619","2537525.92958","2538292.30595","2539059.28303","2539826.00289","2540592.56197","2541359.15878","2545259.3957","2546026.34217","2546792.5924","2547559.44489","2548326.26244","2534459.24773","2535225.77899","2535992.63642","2547569.18601","Mapping"
"Mixed","Both","tile","32","F_romp.wav","None","722.261676157","116","2544492.85454","2536759.01619","2537525.92958","2538292.30595","2539059.28303","2539826.00289","2540592.56197","2541359.15878","2545259.3957","2546026.34217","2546792.5924","2547559.44489","2548326.26244","2549092.70466","2535225.77899","2535992.63642","2548336.22555","Mapping"
"Mixed","Both","tile","32","F_tile.wav","None","722.05422094","116","2544492.85454","2536759.01619","2537525.92958","2538292.30595","2539059.28303","2539826.00289","2540592.56197","2541359.15878","2545259.3957","2546026.34217","2546792.5924","2547559.44489","2548326.26244","2549092.70466","2549859.5219","2535992.63642","2549103.37948","Mapping"
"Mixed","Both","tile","32","F_jaw.wav","space","443.84811804","116","2544492.85454","2536759.01619","2537525.92958","2538292.30595","2539059.28303","2539826.00289","2540592.56197","2541359.15878","2545259.3957","2546026.34217","2546792.5924","2547559.44489","2548326.26244","2549092.70466","2549859.5219","2550625.99689","2549868.94735","Mapping"
"Mixed","Both","tile","32","M_ball.wav","None","722.889606928","116","2544492.85454","2551392.73468","2537525.92958","2538292.30595","2539059.28303","2539826.00289","2540592.56197","2541359.15878","2545259.3957","2546026.34217","2546792.5924","2547559.44489","2548326.26244","2549092.70466","2549859.5219","2550625.99689","2550635.54323","Mapping"
"Mixed","Both","tile","32","M_bluff.wav","None","722.734092793","116","2544492.85454","2551392.73468","2552159.37786","2538292.30595","2539059.28303","2539826.00289","2540592.56197","2541359.15878","2545259.3957","2546026.34217","2546792.5924","2547559.44489","2548326.26244","2549092.70466","2549859.5219","2550625.99689","2551402.70149","Mapping"
"Mixed","Both","tile","32","M_gnash.wav","None","723.388612474","116","2544492.85454","2551392.73468","2552159.37786","2552925.45772","2539059.28303","2539826.00289","2540592.56197","2541359.15878","2545259.3957","2546026.34217","2546792.5924","2547559.44489","2548326.26244","2549092.70466","2549859.5219","2550625.99689","2552169.10692","Mapping"
"Mixed","Both","tile","32","M_greet.wav","None","725.115344773","116","2544492.85454","2551392.73468","2552159.37786","2552925.45772","2553692.36648","2539826.00289","2540592.56197","2541359.15878","2545259.3957","2546026.34217","2546792.5924","2547559.44489","2548326.26244","2549092.70466","2549859.5219","2550625.99689","2552934.55824","Mapping"
"Mixed","Both","tile","32","M_done.wav","None","724.624377763","116","2544492.85454","2551392.73468","2552159.37786","2552925.45772","2553692.36648","2554458.65782","2540592.56197","2541359.15878","2545259.3957","2546026.34217","2546792.5924","2547559.44489","2548326.26244","2549092.70466","2549859.5219","2550625.99689","2553702.0872","Mapping"
"Mixed","Both","tile","32","M_tile.wav","None","726.215383009","116","2544492.85454","2551392.73468","2552159.37786","2552925.45772","2553692.36648","2554458.65782","2555225.66861","2541359.15878","2545259.3957","2546026.34217","2546792.5924","2547559.44489","2548326.26244","2549092.70466","2549859.5219","2550625.99689","2554467.45844","Mapping"
"Mixed","Both","tile","32","F_depth.wav","space","541.379277274","116","2544492.85454","2551392.73468","2552159.37786","2552925.45772","2553692.36648","2554458.65782","2555225.66861","2555992.27036","2545259.3957","2546026.34217","2546792.5924","2547559.44489","2548326.26244","2549092.70466","2549859.5219","2550625.99689","2555235.29966","Mapping"
"Mixed","Both","done","39","M_priest.wav","None","725.182744558","116","2559126.00477","2551392.73468","2552159.37786","2552925.45772","2553692.36648","2554458.65782","2555225.66861","2555992.27036","2545259.3957","2546026.34217","2546792.5924","2547559.44489","2548326.26244","2549092.70466","2549859.5219","2550625.99689","2556001.69798","Mapping"
"Mixed","Both","done","39","F_done.wav","None","723.042647675","116","2559126.00477","2551392.73468","2552159.37786","2552925.45772","2553692.36648","2554458.65782","2555225.66861","2555992.27036","2559892.69247","2546026.34217","2546792.5924","2547559.44489","2548326.26244","2549092.70466","2549859.5219","2550625.99689","2559135.5978","Mapping"
"Mixed","Both","done","39","F_jaw.wav","space","633.952844277","116","2559126.00477","2551392.73468","2552159.37786","2552925.45772","2553692.36648","2554458.65782","2555225.66861","2555992.27036","2559892.69247","2560659.11552","2546792.5924","2547559.44489","2548326.26244","2549092.70466","2549859.5219","2550625.99689","2559902.63425","Mapping"
"Mixed","Both","done","39","M_done.wav","None","722.018356842","116","2559126.00477","2551392.73468","2552159.37786","2552925.45772","2553692.36648","2554458.65782","2555225.66861","2555992.27036","2559892.69247","2560659.11552","2561425.84125","2547559.44489","2548326.26244","2549092.70466","2549859.5219","2550625.99689","2560669.59495","Mapping"
"Mixed","Both","done","39","F_cave.wav","space","573.059636721","116","2559126.00477","2551392.73468","2552159.37786","2552925.45772","2553692.36648","2554458.65782","2555225.66861","2555992.27036","2559892.69247","2560659.11552","2561425.84125","2562192.57409","2548326.26244","2549092.70466","2549859.5219","2550625.99689","2561435.53167","Mapping"
"Mixed","Both","done","39","F_done.wav","None","721.793897101","116","2559126.00477","2551392.73468","2552159.37786","2552925.45772","2553692.36648","2554458.65782","2555225.66861","2555992.27036","2559892.69247","2560659.11552","2561425.84125","2562192.57409","2562959.1372","2549092.70466","2549859.5219","2550625.99689","2562202.57554","Mapping"
"Mixed","Both","done","39","F_priest.wav","space","463.290783867","116","2559126.00477","2551392.73468","2552159.37786","2552925.45772","2553692.36648","2554458.65782","2555225.66861","2555992.27036","2559892.69247","2560659.11552","2561425.84125","2562192.57409","2562959.1372","2563725.97794","2549859.5219","2550625.99689","2562969.2048","Mapping"
"Mixed","Both","done","39","F_cling.wav","None","721.669918654","116","2559126.00477","2551392.73468","2552159.37786","2552925.45772","2553692.36648","2554458.65782","2555225.66861","2555992.27036","2559892.69247","2560659.11552","2561425.84125","2562192.57409","2562959.1372","2563725.97794","2564492.22909","2550625.99689","2563735.71937","Mapping"
"Mixed","Both","done","39","M_jaw.wav","None","722.850032762","116","2559126.00477","2551392.73468","2552159.37786","2552925.45772","2553692.36648","2554458.65782","2555225.66861","2555992.27036","2559892.69247","2560659.11552","2561425.84125","2562192.57409","2562959.1372","2563725.97794","2564492.22909","2565259.20896","2564501.55159","Mapping"
"Mixed","Both","done","39","M_done.wav","None","722.895481217","116","2559126.00477","2566025.65983","2552159.37786","2552925.45772","2553692.36648","2554458.65782","2555225.66861","2555992.27036","2559892.69247","2560659.11552","2561425.84125","2562192.57409","2562959.1372","2563725.97794","2564492.22909","2565259.20896","2565268.53424","Mapping"
"Mixed","Both","done","39","F_cling.wav","space","453.327059193","116","2559126.00477","2566025.65983","2566792.47769","2552925.45772","2553692.36648","2554458.65782","2555225.66861","2555992.27036","2559892.69247","2560659.11552","2561425.84125","2562192.57409","2562959.1372","2563725.97794","2564492.22909","2565259.20896","2566035.10167","Mapping"
"Mixed","Both","done","39","M_jolt.wav","None","722.562501702","116","2559126.00477","2566025.65983","2566792.47769","2567559.27206","2553692.36648","2554458.65782","2555225.66861","2555992.27036","2559892.69247","2560659.11552","2561425.84125","2562192.57409","2562959.1372","2563725.97794","2564492.22909","2565259.20896","2566802.62043","Mapping"
"Mixed","Both","done","39","M_romp.wav","None","723.298952246","116","2559126.00477","2566025.65983","2566792.47769","2567559.27206","2568325.4456","2554458.65782","2555225.66861","2555992.27036","2559892.69247","2560659.11552","2561425.84125","2562192.57409","2562959.1372","2563725.97794","2564492.22909","2565259.20896","2567569.10036","Mapping"
"Mixed","Both","done","39","M_lash.wav","None","724.552649568","116","2559126.00477","2566025.65983","2566792.47769","2567559.27206","2568325.4456","2569092.06807","2555225.66861","2555992.27036","2559892.69247","2560659.11552","2561425.84125","2562192.57409","2562959.1372","2563725.97794","2564492.22909","2565259.20896","2568334.79995","Mapping"
"Mixed","Both","done","39","F_park.wav","None","724.880063965","116","2559126.00477","2566025.65983","2566792.47769","2567559.27206","2568325.4456","2569092.06807","2569858.70166","2555992.27036","2559892.69247","2560659.11552","2561425.84125","2562192.57409","2562959.1372","2563725.97794","2564492.22909","2565259.20896","2569101.48919","Mapping"
"Mixed","Both","done","39","M_knife.wav","None","725.324964209","116","2559126.00477","2566025.65983","2566792.47769","2567559.27206","2568325.4456","2569092.06807","2569858.70166","2570625.35628","2559892.69247","2560659.11552","2561425.84125","2562192.57409","2562959.1372","2563725.97794","2564492.22909","2565259.20896","2569868.04148","Mapping"
"Mixed","Both","cave","14","F_tile.wav","None","728.41916958","116","2573758.93055","2566025.65983","2566792.47769","2567559.27206","2568325.4456","2569092.06807","2569858.70166","2570625.35628","2559892.69247","2560659.11552","2561425.84125","2562192.57409","2562959.1372","2563725.97794","2564492.22909","2565259.20896","2570634.86614","Mapping"
"Mixed","Both","cave","14","M_cave.wav","None","723.358931864","116","2573758.93055","2566025.65983","2566792.47769","2567559.27206","2568325.4456","2569092.06807","2569858.70166","2570625.35628","2574525.79076","2560659.11552","2561425.84125","2562192.57409","2562959.1372","2563725.97794","2564492.22909","2565259.20896","2573768.09258","Mapping"
"Mixed","Both","cave","14","F_dime.wav","space","432.747563493","116","2573758.93055","2566025.65983","2566792.47769","2567559.27206","2568325.4456","2569092.06807","2569858.70166","2570625.35628","2574525.79076","2575292.56163","2561425.84125","2562192.57409","2562959.1372","2563725.97794","2564492.22909","2565259.20896","2574535.5829","Mapping"
"Mixed","Both","cave","14","M_dime.wav","None","721.644257283","116","2573758.93055","2566025.65983","2566792.47769","2567559.27206","2568325.4456","2569092.06807","2569858.70166","2570625.35628","2574525.79076","2575292.56163","2576058.74445","2562192.57409","2562959.1372","2563725.97794","2564492.22909","2565259.20896","2575302.68644","Mapping"
"Mixed","Both","cave","14","M_romp.wav","None","723.452302162","116","2573758.93055","2566025.65983","2566792.47769","2567559.27206","2568325.4456","2569092.06807","2569858.70166","2570625.35628","2574525.79076","2575292.56163","2576058.74445","2576825.29797","2562959.1372","2563725.97794","2564492.22909","2565259.20896","2576067.95225","Mapping"
"Mixed","Both","cave","14","F_cave.wav","None","723.730248865","116","2573758.93055","2566025.65983","2566792.47769","2567559.27206","2568325.4456","2569092.06807","2569858.70166","2570625.35628","2574525.79076","2575292.56163","2576058.74445","2576825.29797","2577592.391","2563725.97794","2564492.22909","2565259.20896","2576834.73085","Mapping"
"Mixed","Both","cave","14","F_ball.wav","space","381.981014914","116","2573758.93055","2566025.65983","2566792.47769","2567559.27206","2568325.4456","2569092.06807","2569858.70166","2570625.35628","2574525.79076","2575292.56163","2576058.74445","2576825.29797","2577592.391","2578358.79364","2564492.22909","2565259.20896","2577602.3034","Mapping"
"Mixed","Both","cave","14","M_done.wav","None","722.68060586","116","2573758.93055","2566025.65983","2566792.47769","2567559.27206","2568325.4456","2569092.06807","2569858.70166","2570625.35628","2574525.79076","2575292.56163","2576058.74445","2576825.29797","2577592.391","2578358.79364","2579125.61614","2565259.20896","2578368.97193","Mapping"
"Mixed","Both","cave","14","M_cave.wav","None","723.639042757","116","2573758.93055","2566025.65983","2566792.47769","2567559.27206","2568325.4456","2569092.06807","2569858.70166","2570625.35628","2574525.79076","2575292.56163","2576058.74445","2576825.29797","2577592.391","2578358.79364","2579125.61614","2579892.31188","2579135.03139","Mapping"
"Mixed","Both","cave","14","F_romp.wav","space","513.885741326","116","2573758.93055","2580658.90961","2566792.47769","2567559.27206","2568325.4456","2569092.06807","2569858.70166","2570625.35628","2574525.79076","2575292.56163","2576058.74445","2576825.29797","2577592.391","2578358.79364","2579125.61614","2579892.31188","2579902.38629","Mapping"
"Mixed","Both","cave","14","F_tile.wav","None","722.940620501","116","2573758.93055","2580658.90961","2581425.58557","2567559.27206","2568325.4456","2569092.06807","2569858.70166","2570625.35628","2574525.79076","2575292.56163","2576058.74445","2576825.29797","2577592.391","2578358.79364","2579125.61614","2579892.31188","2580668.78832","Mapping"
"Mixed","Both","cave","14","M_knife.wav","None","723.579681508","116","2573758.93055","2580658.90961","2581425.58557","2582191.87629","2568325.4456","2569092.06807","2569858.70166","2570625.35628","2574525.79076","2575292.56163","2576058.74445","2576825.29797","2577592.391","2578358.79364","2579125.61614","2579892.31188","2581435.27258","Mapping"
"Mixed","Both","cave","14","M_jaw.wav","None","724.614793406","116","2573758.93055","2580658.90961","2581425.58557","2582191.87629","2582958.55131","2569092.06807","2569858.70166","2570625.35628","2574525.79076","2575292.56163","2576058.74445","2576825.29797","2577592.391","2578358.79364","2579125.61614","2579892.31188","2582201.32091","Mapping"
"Mixed","Both","cave","14","F_cave.wav","None","725.340113685","116","2573758.93055","2580658.90961","2581425.58557","2582191.87629","2582958.55131","2583725.16265","2569858.70166","2570625.35628","2574525.79076","2575292.56163","2576058.74445","2576825.29797","2577592.391","2578358.79364","2579125.61614","2579892.31188","2582967.73778","Mapping"
"Mixed","Both","cave","14","F_gnash.wav","space","409.439305135","116","2573758.93055","2580658.90961","2581425.58557","2582191.87629","2582958.55131","2583725.16265","2584491.82407","2570625.35628","2574525.79076","2575292.56163","2576058.74445","2576825.29797","2577592.391","2578358.79364","2579125.61614","2579892.31188","2583734.72105","Mapping"
"Mixed","Both","cave","14","M_cad.wav","None","724.510292843","116","2573758.93055","2580658.90961","2581425.58557","2582191.87629","2582958.55131","2583725.16265","2584491.82407","2585258.10892","2574525.79076","2575292.56163","2576058.74445","2576825.29797","2577592.391","2578358.79364","2579125.61614","2579892.31188","2584501.60384","Mapping"
"Mixed","Both","done","38","F_gnash.wav","None","729.204160365","116","2588392.15065","2580658.90961","2581425.58557","2582191.87629","2582958.55131","2583725.16265","2584491.82407","2585258.10892","2574525.79076","2575292.56163","2576058.74445","2576825.29797","2577592.391","2578358.79364","2579125.61614","2579892.31188","2585267.0366","Mapping"
"Mixed","Both","done","38","F_jolt.wav","None","722.193658032","116","2588392.15065","2580658.90961","2581425.58557","2582191.87629","2582958.55131","2583725.16265","2584491.82407","2585258.10892","2589158.76106","2575292.56163","2576058.74445","2576825.29797","2577592.391","2578358.79364","2579125.61614","2579892.31188","2588402.08748","Mapping"
"Mixed","Both","done","38","F_done.wav","None","722.651852731","116","2588392.15065","2580658.90961","2581425.58557","2582191.87629","2582958.55131","2583725.16265","2584491.82407","2585258.10892","2589158.76106","2589925.6624","2576058.74445","2576825.29797","2577592.391","2578358.79364","2579125.61614","2579892.31188","2589168.75261","Mapping"
"Mixed","Both","done","38","F_cave.wav","space","584.290662373","116","2588392.15065","2580658.90961","2581425.58557","2582191.87629","2582958.55131","2583725.16265","2584491.82407","2585258.10892","2589158.76106","2589925.6624","2590691.93395","2576825.29797","2577592.391","2578358.79364","2579125.61614","2579892.31188","2589935.7603","Mapping"
"Mixed","Both","done","38","F_greet.wav","None","722.449035122","116","2588392.15065","2580658.90961","2581425.58557","2582191.87629","2582958.55131","2583725.16265","2584491.82407","2585258.10892","2589158.76106","2589925.6624","2590691.93395","2591458.68348","2577592.391","2578358.79364","2579125.61614","2579892.31188","2590702.10049","Mapping"
"Mixed","Both","done","38","M_done.wav","None","723.764567083","116","2588392.15065","2580658.90961","2581425.58557","2582191.87629","2582958.55131","2583725.16265","2584491.82407","2585258.10892","2589158.76106","2589925.6624","2590691.93395","2591458.68348","2592225.01378","2578358.79364","2579125.61614","2579892.31188","2591468.05174","Mapping"
"Mixed","Both","done","38","F_gnash.wav","space","437.967643782","116","2588392.15065","2580658.90961","2581425.58557","2582191.87629","2582958.55131","2583725.16265","2584491.82407","2585258.10892","2589158.76106","2589925.6624","2590691.93395","2591458.68348","2592225.01378","2592991.4393","2579125.61614","2579892.31188","2592234.03113","Mapping"
"Mixed","Both","done","38","M_lash.wav","None","724.705381115","116","2588392.15065","2580658.90961","2581425.58557","2582191.87629","2582958.55131","2583725.16265","2584491.82407","2585258.10892","2589158.76106","2589925.6624","2590691.93395","2591458.68348","2592225.01378","2592991.4393","2593758.34281","2579892.31188","2593000.69286","Mapping"
"Mixed","Both","done","38","F_cave.wav","None","725.276424026","116","2588392.15065","2580658.90961","2581425.58557","2582191.87629","2582958.55131","2583725.16265","2584491.82407","2585258.10892","2589158.76106","2589925.6624","2590691.93395","2591458.68348","2592225.01378","2592991.4393","2593758.34281","2594524.9832","2593767.29059","Mapping"
"Mixed","Both","done","38","M_tile.wav","None","725.308578054","116","2588392.15065","2595291.6134","2581425.58557","2582191.87629","2582958.55131","2583725.16265","2584491.82407","2585258.10892","2589158.76106","2589925.6624","2590691.93395","2591458.68348","2592225.01378","2592991.4393","2593758.34281","2594524.9832","2594534.51718","Mapping"
"Mixed","Both","done","38","M_jaw.wav","None","726.007927821","116","2588392.15065","2595291.6134","2596058.27977","2582191.87629","2582958.55131","2583725.16265","2584491.82407","2585258.10892","2589158.76106","2589925.6624","2590691.93395","2591458.68348","2592225.01378","2592991.4393","2593758.34281","2594524.9832","2595301.03081","Mapping"
"Mixed","Both","done","38","M_done.wav","None","726.422529086","116","2588392.15065","2595291.6134","2596058.27977","2596824.9013","2582958.55131","2583725.16265","2584491.82407","2585258.10892","2589158.76106","2589925.6624","2590691.93395","2591458.68348","2592225.01378","2592991.4393","2593758.34281","2594524.9832","2596067.74016","Mapping"
"Mixed","Both","done","38","M_jaw.wav","space","373.944366759","116","2588392.15065","2595291.6134","2596058.27977","2596824.9013","2597591.55902","2583725.16265","2584491.82407","2585258.10892","2589158.76106","2589925.6624","2590691.93395","2591458.68348","2592225.01378","2592991.4393","2593758.34281","2594524.9832","2596833.97554","Mapping"
"Mixed","Both","done","38","F_done.wav","None","726.302569878","116","2588392.15065","2595291.6134","2596058.27977","2596824.9013","2597591.55902","2598358.29278","2584491.82407","2585258.10892","2589158.76106","2589925.6624","2590691.93395","2591458.68348","2592225.01378","2592991.4393","2593758.34281","2594524.9832","2597600.94953","Mapping"
"Mixed","Both","done","38","M_dime.wav","space","568.36174996","116","2588392.15065","2595291.6134","2596058.27977","2596824.9013","2597591.55902","2598358.29278","2599124.8463","2585258.10892","2589158.76106","2589925.6624","2590691.93395","2591458.68348","2592225.01378","2592991.4393","2593758.34281","2594524.9832","2598367.53768","Mapping"
"Mixed","Both","done","38","M_romp.wav","None","725.986285688","116","2588392.15065","2595291.6134","2596058.27977","2596824.9013","2597591.55902","2598358.29278","2599124.8463","2599891.52071","2589158.76106","2589925.6624","2590691.93395","2591458.68348","2592225.01378","2592991.4393","2593758.34281","2594524.9832","2599134.55187","Mapping"
"Mixed","Both","done","46","F_knife.wav","None","726.897109941","116","2603025.24677","2595291.6134","2596058.27977","2596824.9013","2597591.55902","2598358.29278","2599124.8463","2599891.52071","2589158.76106","2589925.6624","2590691.93395","2591458.68348","2592225.01378","2592991.4393","2593758.34281","2594524.9832","2599900.99965","Mapping"
"Mixed","Both","done","46","M_done.wav","None","723.093042878","116","2603025.24677","2595291.6134","2596058.27977","2596824.9013","2597591.55902","2598358.29278","2599124.8463","2599891.52071","2603791.44536","2589925.6624","2590691.93395","2591458.68348","2592225.01378","2592991.4393","2593758.34281","2594524.9832","2603034.81476","Mapping"
"Mixed","Both","done","46","M_park.wav","space","558.807370573","116","2603025.24677","2595291.6134","2596058.27977","2596824.9013","2597591.55902","2598358.29278","2599124.8463","2599891.52071","2603791.44536","2604558.54303","2590691.93395","2591458.68348","2592225.01378","2592991.4393","2593758.34281","2594524.9832","2603800.98861","Mapping"
"Mixed","Both","done","46","F_done.wav","None","723.067999876","116","2603025.24677","2595291.6134","2596058.27977","2596824.9013","2597591.55902","2598358.29278","2599124.8463","2599891.52071","2603791.44536","2604558.54303","2605324.78459","2591458.68348","2592225.01378","2592991.4393","2593758.34281","2594524.9832","2604568.70029","Mapping"
"Mixed","Both","done","46","F_greet.wav","space","545.541985252","116","2603025.24677","2595291.6134","2596058.27977","2596824.9013","2597591.55902","2598358.29278","2599124.8463","2599891.52071","2603791.44536","2604558.54303","2605324.78459","2606091.76013","2592225.01378","2592991.4393","2593758.34281","2594524.9832","2605334.23138","Mapping"
"Mixed","Both","done","46","F_depth.wav","None","723.309773311","116","2603025.24677","2595291.6134","2596058.27977","2596824.9013","2597591.55902","2598358.29278","2599124.8463","2599891.52071","2603791.44536","2604558.54303","2605324.78459","2606091.76013","2606857.97294","2592991.4393","2593758.34281","2594524.9832","2606101.79126","Mapping"
"Mixed","Both","done","46","M_done.wav","None","724.970342563","116","2603025.24677","2595291.6134","2596058.27977","2596824.9013","2597591.55902","2598358.29278","2599124.8463","2599891.52071","2603791.44536","2604558.54303","2605324.78459","2606091.76013","2606857.97294","2607624.74598","2593758.34281","2594524.9832","2606867.27133","Mapping"
"Mixed","Both","done","46","F_ball.wav","space","557.148038002","116","2603025.24677","2595291.6134","2596058.27977","2596824.9013","2597591.55902","2598358.29278","2599124.8463","2599891.52071","2603791.44536","2604558.54303","2605324.78459","2606091.76013","2606857.97294","2607624.74598","2608391.36597","2594524.9832","2607634.56408","Mapping"
"Mixed","Both","done","46","M_lash.wav","None","724.906962074","116","2603025.24677","2595291.6134","2596058.27977","2596824.9013","2597591.55902","2598358.29278","2599124.8463","2599891.52071","2603791.44536","2604558.54303","2605324.78459","2606091.76013","2606857.97294","2607624.74598","2608391.36597","2609157.99956","2608400.81306","Mapping"
"Mixed","Both","done","46","M_park.wav","None","725.533346937","116","2603025.24677","2609924.7154","2596058.27977","2596824.9013","2597591.55902","2598358.29278","2599124.8463","2599891.52071","2603791.44536","2604558.54303","2605324.78459","2606091.76013","2606857.97294","2607624.74598","2608391.36597","2609157.99956","2609167.36813","Mapping"
"Mixed","Both","done","46","F_greet.wav","None","726.077491796","116","2603025.24677","2609924.7154","2610691.35456","2596824.9013","2597591.55902","2598358.29278","2599124.8463","2599891.52071","2603791.44536","2604558.54303","2605324.78459","2606091.76013","2606857.97294","2607624.74598","2608391.36597","2609157.99956","2609934.05057","Mapping"
"Mixed","Both","done","46","M_cave.wav","None","726.100061409","116","2603025.24677","2609924.7154","2610691.35456","2611457.63632","2597591.55902","2598358.29278","2599124.8463","2599891.52071","2603791.44536","2604558.54303","2605324.78459","2606091.76013","2606857.97294","2607624.74598","2608391.36597","2609157.99956","2610701.22151","Mapping"
"Mixed","Both","done","46","F_cad.wav","None","728.10257625","116","2603025.24677","2609924.7154","2610691.35456","2611457.63632","2612224.40193","2598358.29278","2599124.8463","2599891.52071","2603791.44536","2604558.54303","2605324.78459","2606091.76013","2606857.97294","2607624.74598","2608391.36597","2609157.99956","2611466.59925","Mapping"
"Mixed","Both","done","46","M_cling.wav","None","728.594779968","116","2603025.24677","2609924.7154","2610691.35456","2611457.63632","2612224.40193","2612991.30914","2599124.8463","2599891.52071","2603791.44536","2604558.54303","2605324.78459","2606091.76013","2606857.97294","2607624.74598","2608391.36597","2609157.99956","2612233.35466","Mapping"
"Mixed","Both","done","46","F_done.wav","None","728.567881918","116","2603025.24677","2609924.7154","2610691.35456","2611457.63632","2612224.40193","2612991.30914","2613757.82247","2599891.52071","2603791.44536","2604558.54303","2605324.78459","2606091.76013","2606857.97294","2607624.74598","2608391.36597","2609157.99956","2613000.70986","Mapping"
"Mixed","Both","done","46","M_jolt.wav","space","449.063251581","116","2603025.24677","2609924.7154","2610691.35456","2611457.63632","2612224.40193","2612991.30914","2613757.82247","2614524.64775","2603791.44536","2604558.54303","2605324.78459","2606091.76013","2606857.97294","2607624.74598","2608391.36597","2609157.99956","2613766.56991","Mapping"
"Mixed","Both","ball","7","F_done.wav","None","728.800070996","116","2617658.71298","2609924.7154","2610691.35456","2611457.63632","2612224.40193","2612991.30914","2613757.82247","2614524.64775","2603791.44536","2604558.54303","2605324.78459","2606091.76013","2606857.97294","2607624.74598","2608391.36597","2609157.99956","2614533.83514","Mapping"
"Mixed","Both","ball","7","M_jaw.wav","None","724.911290483","116","2617658.71298","2609924.7154","2610691.35456","2611457.63632","2612224.40193","2612991.30914","2613757.82247","2614524.64775","2618424.67412","2604558.54303","2605324.78459","2606091.76013","2606857.97294","2607624.74598","2608391.36597","2609157.99956","2617665.79768","Mapping"
"Mixed","Both","ball","7","M_romp.wav","None","729.351326794","116","2617658.71298","2609924.7154","2610691.35456","2611457.63632","2612224.40193","2612991.30914","2613757.82247","2614524.64775","2618424.67412","2619191.29628","2605324.78459","2606091.76013","2606857.97294","2607624.74598","2608391.36597","2609157.99956","2618428.78304","Mapping"
"Mixed","Both","ball","7","F_dime.wav","None","724.702907756","116","2617658.71298","2609924.7154","2610691.35456","2611457.63632","2612224.40193","2612991.30914","2613757.82247","2614524.64775","2618424.67412","2619191.29628","2619957.87237","2606091.76013","2606857.97294","2607624.74598","2608391.36597","2609157.99956","2619200.75945","Mapping"
"Mixed","Both","ball","7","F_bluff.wav","None","725.359900796","116","2617658.71298","2609924.7154","2610691.35456","2611457.63632","2612224.40193","2612991.30914","2613757.82247","2614524.64775","2618424.67412","2619191.29628","2619957.87237","2620724.47999","2606857.97294","2607624.74598","2608391.36597","2609157.99956","2619967.4453","Mapping"
"Mixed","Both","ball","7","M_ball.wav","None","726.202397753","116","2617658.71298","2609924.7154","2610691.35456","2611457.63632","2612224.40193","2612991.30914","2613757.82247","2614524.64775","2618424.67412","2619191.29628","2619957.87237","2620724.47999","2621490.87676","2607624.74598","2608391.36597","2609157.99956","2620733.91163","Mapping"
"Mixed","Both","ball","7","M_knife.wav","space","403.535642865","116","2617658.71298","2609924.7154","2610691.35456","2611457.63632","2612224.40193","2612991.30914","2613757.82247","2614524.64775","2618424.67412","2619191.29628","2619957.87237","2620724.47999","2621490.87676","2622257.65691","2608391.36597","2609157.99956","2621499.93121","Mapping"
"Mixed","Both","ball","7","F_ball.wav","None","726.443552878","116","2617658.71298","2609924.7154","2610691.35456","2611457.63632","2612224.40193","2612991.30914","2613757.82247","2614524.64775","2618424.67412","2619191.29628","2619957.87237","2620724.47999","2621490.87676","2622257.65691","2623024.42159","2609157.99956","2622267.00321","Mapping"
"Mixed","Both","ball","7","F_cave.wav","space","565.983898879","116","2617658.71298","2609924.7154","2610691.35456","2611457.63632","2612224.40193","2612991.30914","2613757.82247","2614524.64775","2618424.67412","2619191.29628","2619957.87237","2620724.47999","2621490.87676","2622257.65691","2623024.42159","2623791.1028","2623033.51747","Mapping"
"Mixed","Both","ball","7","F_ball.wav","None","726.423456596","116","2617658.71298","2624557.54687","2610691.35456","2611457.63632","2612224.40193","2612991.30914","2613757.82247","2614524.64775","2618424.67412","2619191.29628","2619957.87237","2620724.47999","2621490.87676","2622257.65691","2623024.42159","2623791.1028","2623800.75148","Mapping"
"Mixed","Both","ball","7","M_romp.wav","space","576.322959823","116","2617658.71298","2624557.54687","2625324.41358","2611457.63632","2612224.40193","2612991.30914","2613757.82247","2614524.64775","2618424.67412","2619191.29628","2619957.87237","2620724.47999","2621490.87676","2622257.65691","2623024.42159","2623791.1028","2624567.12506","Mapping"
"Mixed","Both","ball","7","M_ball.wav","None","726.715625264","116","2617658.71298","2624557.54687","2625324.41358","2626090.79489","2612224.40193","2612991.30914","2613757.82247","2614524.64775","2618424.67412","2619191.29628","2619957.87237","2620724.47999","2621490.87676","2622257.65691","2623024.42159","2623791.1028","2625333.82791","Mapping"
"Mixed","Both","ball","7","M_park.wav","space","459.345733863","116","2617658.71298","2624557.54687","2625324.41358","2626090.79489","2626857.54659","2612991.30914","2613757.82247","2614524.64775","2618424.67412","2619191.29628","2619957.87237","2620724.47999","2621490.87676","2622257.65691","2623024.42159","2623791.1028","2626100.06854","Mapping"
"Mixed","Both","ball","7","M_greet.wav","None","726.925244701","116","2617658.71298","2624557.54687","2625324.41358","2626090.79489","2626857.54659","2627624.37682","2613757.82247","2614524.64775","2618424.67412","2619191.29628","2619957.87237","2620724.47999","2621490.87676","2622257.65691","2623024.42159","2623791.1028","2626866.99462","Mapping"
"Mixed","Both","ball","7","F_dime.wav","None","727.004393062","116","2617658.71298","2624557.54687","2625324.41358","2626090.79489","2626857.54659","2627624.37682","2628391.01536","2614524.64775","2618424.67412","2619191.29628","2619957.87237","2620724.47999","2621490.87676","2622257.65691","2623024.42159","2623791.1028","2627634.28737","Mapping"
"Mixed","Both","ball","7","F_cave.wav","None","728.3316736","116","2617658.71298","2624557.54687","2625324.41358","2626090.79489","2626857.54659","2627624.37682","2628391.01536","2629157.4851","2618424.67412","2619191.29628","2619957.87237","2620724.47999","2621490.87676","2622257.65691","2623024.42159","2623791.1028","2628400.44793","Mapping"
"Mixed","Both","tile","33","M_jolt.wav","None","729.266304174","116","2632291.34998","2624557.54687","2625324.41358","2626090.79489","2626857.54659","2627624.37682","2628391.01536","2629157.4851","2618424.67412","2619191.29628","2619957.87237","2620724.47999","2621490.87676","2622257.65691","2623024.42159","2623791.1028","2629166.83728","Mapping"
"Mixed","Both","tile","33","F_lash.wav","None","722.161504032","116","2632291.34998","2624557.54687","2625324.41358","2626090.79489","2626857.54659","2627624.37682","2628391.01536","2629157.4851","2633057.88372","2619191.29628","2619957.87237","2620724.47999","2621490.87676","2622257.65691","2623024.42159","2623791.1028","2632301.32793","Mapping"
"Mixed","Both","tile","33","F_gnash.wav","None","723.705205834","116","2632291.34998","2624557.54687","2625324.41358","2626090.79489","2626857.54659","2627624.37682","2628391.01536","2629157.4851","2633057.88372","2633824.29223","2619957.87237","2620724.47999","2621490.87676","2622257.65691","2623024.42159","2623791.1028","2633067.31659","Mapping"
"Mixed","Both","tile","33","M_tile.wav","None","725.043307437","116","2632291.34998","2624557.54687","2625324.41358","2626090.79489","2626857.54659","2627624.37682","2628391.01536","2629157.4851","2633057.88372","2633824.29223","2634590.88131","2620724.47999","2621490.87676","2622257.65691","2623024.42159","2623791.1028","2633833.60391","Mapping"
"Mixed","Both","tile","33","M_ball.wav","space","407.01631477","116","2632291.34998","2624557.54687","2625324.41358","2626090.79489","2626857.54659","2627624.37682","2628391.01536","2629157.4851","2633057.88372","2633824.29223","2634590.88131","2635357.4846","2621490.87676","2622257.65691","2623024.42159","2623791.1028","2634600.25358","Mapping"
"Mixed","Both","tile","33","F_tile.wav","None","725.290027651","116","2632291.34998","2624557.54687","2625324.41358","2626090.79489","2626857.54659","2627624.37682","2628391.01536","2629157.4851","2633057.88372","2633824.29223","2634590.88131","2635357.4846","2636124.206","2622257.65691","2623024.42159","2623791.1028","2635366.90944","Mapping"
"Mixed","Both","tile","33","F_gnash.wav","space","689.386053127","116","2632291.34998","2624557.54687","2625324.41358","2626090.79489","2626857.54659","2627624.37682","2628391.01536","2629157.4851","2633057.88372","2633824.29223","2634590.88131","2635357.4846","2636124.206","2636890.89772","2623024.42159","2623791.1028","2636133.85035","Mapping"
"Mixed","Both","tile","33","M_greet.wav","None","725.423590484","116","2632291.34998","2624557.54687","2625324.41358","2626090.79489","2626857.54659","2627624.37682","2628391.01536","2629157.4851","2633057.88372","2633824.29223","2634590.88131","2635357.4846","2636124.206","2636890.89772","2637657.54369","2623791.1028","2636900.29597","Mapping"
"Mixed","Both","tile","33","M_tile.wav","None","726.201779413","116","2632291.34998","2624557.54687","2625324.41358","2626090.79489","2626857.54659","2627624.37682","2628391.01536","2629157.4851","2633057.88372","2633824.29223","2634590.88131","2635357.4846","2636124.206","2636890.89772","2637657.54369","2638424.18563","2637667.00191","Mapping"
"Mixed","Both","tile","33","F_priest.wav","space","589.62822851","116","2632291.34998","2639190.7744","2625324.41358","2626090.79489","2626857.54659","2627624.37682","2628391.01536","2629157.4851","2633057.88372","2633824.29223","2634590.88131","2635357.4846","2636124.206","2636890.89772","2637657.54369","2638424.18563","2638433.53286","Mapping"
"Mixed","Both","tile","33","F_tile.wav","None","726.040391019","116","2632291.34998","2639190.7744","2639957.49827","2626090.79489","2626857.54659","2627624.37682","2628391.01536","2629157.4851","2633057.88372","2633824.29223","2634590.88131","2635357.4846","2636124.206","2636890.89772","2637657.54369","2638424.18563","2639200.69762","Mapping"
"Mixed","Both","tile","33","M_cave.wav","space","504.27169152","116","2632291.34998","2639190.7744","2639957.49827","2640724.13094","2626857.54659","2627624.37682","2628391.01536","2629157.4851","2633057.88372","2633824.29223","2634590.88131","2635357.4846","2636124.206","2636890.89772","2637657.54369","2638424.18563","2639966.91909","Mapping"
"Mixed","Both","tile","33","M_romp.wav","None","729.011854623","116","2632291.34998","2639190.7744","2639957.49827","2640724.13094","2641490.73578","2627624.37682","2628391.01536","2629157.4851","2633057.88372","2633824.29223","2634590.88131","2635357.4846","2636124.206","2636890.89772","2637657.54369","2638424.18563","2640733.72025","Mapping"
"Mixed","Both","tile","33","F_priest.wav","None","730.285957368","116","2632291.34998","2639190.7744","2639957.49827","2640724.13094","2641490.73578","2642257.29054","2628391.01536","2629157.4851","2633057.88372","2633824.29223","2634590.88131","2635357.4846","2636124.206","2636890.89772","2637657.54369","2638424.18563","2641500.20977","Mapping"
"Mixed","Both","tile","33","M_lash.wav","None","731.262635527","116","2632291.34998","2639190.7744","2639957.49827","2640724.13094","2641490.73578","2642257.29054","2643024.10098","2629157.4851","2633057.88372","2633824.29223","2634590.88131","2635357.4846","2636124.206","2636890.89772","2637657.54369","2638424.18563","2642266.74505","Mapping"
"Mixed","Both","tile","33","F_gnash.wav","None","732.145325019","116","2632291.34998","2639190.7744","2639957.49827","2640724.13094","2641490.73578","2642257.29054","2643024.10098","2643790.7321","2633057.88372","2633824.29223","2634590.88131","2635357.4846","2636124.206","2636890.89772","2637657.54369","2638424.18563","2643033.69679","Mapping"
"Mixed","Both","cave","13","F_knife.wav","None","733.160031465","116","2646924.37562","2639190.7744","2639957.49827","2640724.13094","2641490.73578","2642257.29054","2643024.10098","2643790.7321","2633057.88372","2633824.29223","2634590.88131","2635357.4846","2636124.206","2636890.89772","2637657.54369","2638424.18563","2643800.13591","Mapping"
"Mixed","Both","cave","13","M_cave.wav","None","715.31826444","116","2646924.37562","2639190.7744","2639957.49827","2640724.13094","2641490.73578","2642257.29054","2643024.10098","2643790.7321","2647690.65428","2633824.29223","2634590.88131","2635357.4846","2636124.206","2636890.89772","2637657.54369","2638424.18563","2646941.8538","Mapping"
"Mixed","Both","cave","13","M_greet.wav","space","650.210407824","116","2646924.37562","2639190.7744","2639957.49827","2640724.13094","2641490.73578","2642257.29054","2643024.10098","2643790.7321","2647690.65428","2648457.79863","2634590.88131","2635357.4846","2636124.206","2636890.89772","2637657.54369","2638424.18563","2647700.81959","Mapping"
"Mixed","Both","cave","13","F_cave.wav","None","722.865800577","116","2646924.37562","2639190.7744","2639957.49827","2640724.13094","2641490.73578","2642257.29054","2643024.10098","2643790.7321","2647690.65428","2648457.79863","2649224.064","2635357.4846","2636124.206","2636890.89772","2637657.54369","2638424.18563","2648467.83439","Mapping"
"Mixed","Both","cave","13","F_knife.wav","space","573.397253844","116","2646924.37562","2639190.7744","2639957.49827","2640724.13094","2641490.73578","2642257.29054","2643024.10098","2643790.7321","2647690.65428","2648457.79863","2649224.064","2649990.96936","2636124.206","2636890.89772","2637657.54369","2638424.18563","2649233.61962","Mapping"
"Mixed","Both","cave","13","F_gnash.wav","None","722.923925146","116","2646924.37562","2639190.7744","2639957.49827","2640724.13094","2641490.73578","2642257.29054","2643024.10098","2643790.7321","2647690.65428","2648457.79863","2649224.064","2649990.96936","2650757.13239","2636890.89772","2637657.54369","2638424.18563","2650001.35418","Mapping"
"Mixed","Both","cave","13","F_depth.wav","None","723.94388754","116","2646924.37562","2639190.7744","2639957.49827","2640724.13094","2641490.73578","2642257.29054","2643024.10098","2643790.7321","2647690.65428","2648457.79863","2649224.064","2649990.96936","2650757.13239","2651523.87451","2637657.54369","2638424.18563","2650767.96799","Mapping"
"Mixed","Both","cave","13","M_dime.wav","None","725.720705901","116","2646924.37562","2639190.7744","2639957.49827","2640724.13094","2641490.73578","2642257.29054","2643024.10098","2643790.7321","2647690.65428","2648457.79863","2649224.064","2649990.96936","2650757.13239","2651523.87451","2652290.34208","2638424.18563","2651533.72508","Mapping"
"Mixed","Both","cave","13","M_dime.wav","None","727.479592228","116","2646924.37562","2639190.7744","2639957.49827","2640724.13094","2641490.73578","2642257.29054","2643024.10098","2643790.7321","2647690.65428","2648457.79863","2649224.064","2649990.96936","2650757.13239","2651523.87451","2652290.34208","2653056.89003","2652299.56348","Mapping"
"Mixed","Both","cave","13","F_greet.wav","None","728.055581916","116","2646924.37562","2653823.88814","2639957.49827","2640724.13094","2641490.73578","2642257.29054","2643024.10098","2643790.7321","2647690.65428","2648457.79863","2649224.064","2649990.96936","2650757.13239","2651523.87451","2652290.34208","2653056.89003","2653066.47966","Mapping"
"Mixed","Both","cave","13","M_priest.wav","None","728.30415715","116","2646924.37562","2653823.88814","2654590.25214","2640724.13094","2641490.73578","2642257.29054","2643024.10098","2643790.7321","2647690.65428","2648457.79863","2649224.064","2649990.96936","2650757.13239","2651523.87451","2652290.34208","2653056.89003","2653833.63823","Mapping"
"Mixed","Both","cave","13","F_cave.wav","None","729.64967892","116","2646924.37562","2653823.88814","2654590.25214","2655357.18069","2641490.73578","2642257.29054","2643024.10098","2643790.7321","2647690.65428","2648457.79863","2649224.064","2649990.96936","2650757.13239","2651523.87451","2652290.34208","2653056.89003","2654599.72181","Mapping"
"Mixed","Both","cave","13","F_cling.wav","space","431.245909247","116","2646924.37562","2653823.88814","2654590.25214","2655357.18069","2656123.81768","2642257.29054","2643024.10098","2643790.7321","2647690.65428","2648457.79863","2649224.064","2649990.96936","2650757.13239","2651523.87451","2652290.34208","2653056.89003","2655367.65022","Mapping"
"Mixed","Both","cave","13","M_cave.wav","None","729.790661921","116","2646924.37562","2653823.88814","2654590.25214","2655357.18069","2656123.81768","2656890.49209","2643024.10098","2643790.7321","2647690.65428","2648457.79863","2649224.064","2649990.96936","2650757.13239","2651523.87451","2652290.34208","2653056.89003","2656133.41566","Mapping"
"Mixed","Both","cave","13","M_priest.wav","space","642.323708686","116","2646924.37562","2653823.88814","2654590.25214","2655357.18069","2656123.81768","2656890.49209","2657657.21906","2643790.7321","2647690.65428","2648457.79863","2649224.064","2649990.96936","2650757.13239","2651523.87451","2652290.34208","2653056.89003","2656900.54269","Mapping"
"Mixed","Both","cave","13","M_cad.wav","None","729.692344844","116","2646924.37562","2653823.88814","2654590.25214","2655357.18069","2656123.81768","2656890.49209","2657657.21906","2658423.77567","2647690.65428","2648457.79863","2649224.064","2649990.96936","2650757.13239","2651523.87451","2652290.34208","2653056.89003","2657666.85135","Mapping"
"Mixed","Both","tile","27","M_gnash.wav","None","730.429104588","116","2661557.24543","2653823.88814","2654590.25214","2655357.18069","2656123.81768","2656890.49209","2657657.21906","2658423.77567","2647690.65428","2648457.79863","2649224.064","2649990.96936","2650757.13239","2651523.87451","2652290.34208","2653056.89003","2658433.75392","Mapping"
"Mixed","Both","tile","27","M_tile.wav","None","722.08080985","116","2661557.24543","2653823.88814","2654590.25214","2655357.18069","2656123.81768","2656890.49209","2657657.21906","2658423.77567","2662324.21695","2648457.79863","2649224.064","2649990.96936","2650757.13239","2651523.87451","2652290.34208","2653056.89003","2661567.76628","Mapping"
"Mixed","Both","tile","27","F_knife.wav","space","559.901534521","116","2661557.24543","2653823.88814","2654590.25214","2655357.18069","2656123.81768","2656890.49209","2657657.21906","2658423.77567","2662324.21695","2663090.55621","2649224.064","2649990.96936","2650757.13239","2651523.87451","2652290.34208","2653056.89003","2662334.82375","Mapping"
"Mixed","Both","tile","27","M_park.wav","None","723.105409823","116","2661557.24543","2653823.88814","2654590.25214","2655357.18069","2656123.81768","2656890.49209","2657657.21906","2658423.77567","2662324.21695","2663090.55621","2663857.0043","2649990.96936","2650757.13239","2651523.87451","2652290.34208","2653056.89003","2663100.36968","Mapping"
"Mixed","Both","tile","27","F_knife.wav","None","724.633034581","116","2661557.24543","2653823.88814","2654590.25214","2655357.18069","2656123.81768","2656890.49209","2657657.21906","2658423.77567","2662324.21695","2663090.55621","2663857.0043","2664623.68118","2650757.13239","2651523.87451","2652290.34208","2653056.89003","2663866.68637","Mapping"
"Mixed","Both","tile","27","M_tile.wav","None","725.647122686","116","2661557.24543","2653823.88814","2654590.25214","2655357.18069","2656123.81768","2656890.49209","2657657.21906","2658423.77567","2662324.21695","2663090.55621","2663857.0043","2664623.68118","2665390.34631","2651523.87451","2652290.34208","2653056.89003","2664633.28565","Mapping"
"Mixed","Both","tile","27","F_lash.wav","space","462.442103453","116","2661557.24543","2653823.88814","2654590.25214","2655357.18069","2656123.81768","2656890.49209","2657657.21906","2658423.77567","2662324.21695","2663090.55621","2663857.0043","2664623.68118","2665390.34631","2666156.63858","2652290.34208","2653056.89003","2665400.26212","Mapping"
"Mixed","Both","tile","27","M_cling.wav","None","726.294531371","116","2661557.24543","2653823.88814","2654590.25214","2655357.18069","2656123.81768","2656890.49209","2657657.21906","2658423.77567","2662324.21695","2663090.55621","2663857.0043","2664623.68118","2665390.34631","2666156.63858","2666923.66854","2653056.89003","2666166.3324","Mapping"
"Mixed","Both","tile","27","F_tile.wav","None","726.979659172","116","2661557.24543","2653823.88814","2654590.25214","2655357.18069","2656123.81768","2656890.49209","2657657.21906","2658423.77567","2662324.21695","2663090.55621","2663857.0043","2664623.68118","2665390.34631","2666156.63858","2666923.66854","2667690.2944","2666933.38956","Mapping"
"Mixed","Both","tile","27","F_cad.wav","None","728.143387125","116","2661557.24543","2668456.64387","2654590.25214","2655357.18069","2656123.81768","2656890.49209","2657657.21906","2658423.77567","2662324.21695","2663090.55621","2663857.0043","2664623.68118","2665390.34631","2666156.63858","2666923.66854","2667690.2944","2667699.89145","Mapping"
"Mixed","Both","tile","27","F_jolt.wav","space","388.890108385","116","2661557.24543","2668456.64387","2669223.36774","2655357.18069","2656123.81768","2656890.49209","2657657.21906","2658423.77567","2662324.21695","2663090.55621","2663857.0043","2664623.68118","2665390.34631","2666156.63858","2666923.66854","2667690.2944","2668465.76819","Mapping"
"Mixed","Both","tile","27","M_gnash.wav","None","729.015564721","116","2661557.24543","2668456.64387","2669223.36774","2669989.88478","2656123.81768","2656890.49209","2657657.21906","2658423.77567","2662324.21695","2663090.55621","2663857.0043","2664623.68118","2665390.34631","2666156.63858","2666923.66854","2667690.2944","2669232.85967","Mapping"
"Mixed","Both","tile","27","F_tile.wav","None","728.736690478","116","2661557.24543","2668456.64387","2669223.36774","2669989.88478","2670756.54187","2656890.49209","2657657.21906","2658423.77567","2662324.21695","2663090.55621","2663857.0043","2664623.68118","2665390.34631","2666156.63858","2666923.66854","2667690.2944","2670001.3514","Mapping"
"Mixed","Both","tile","27","M_gnash.wav","space","617.17494225","116","2661557.24543","2668456.64387","2669223.36774","2669989.88478","2670756.54187","2671522.93215","2657657.21906","2658423.77567","2662324.21695","2663090.55621","2663857.0043","2664623.68118","2665390.34631","2666156.63858","2666923.66854","2667690.2944","2670765.34898","Mapping"
"Mixed","Both","tile","27","F_reek.wav","None","734.508954134","116","2661557.24543","2668456.64387","2669223.36774","2669989.88478","2670756.54187","2671522.93215","2672290.07774","2658423.77567","2662324.21695","2663090.55621","2663857.0043","2664623.68118","2665390.34631","2666156.63858","2666923.66854","2667690.2944","2671532.03235","Mapping"
"Mixed","Both","tile","27","M_romp.wav","None","734.044885146","116","2661557.24543","2668456.64387","2669223.36774","2669989.88478","2670756.54187","2671522.93215","2672290.07774","2673056.53077","2662324.21695","2663090.55621","2663857.0043","2664623.68118","2665390.34631","2666156.63858","2666923.66854","2667690.2944","2672300.23995","Mapping"
