Condition,Talker,Target,Trial,current_stimulus,response_response,response_time_response,subject_nr,time_Audio1,time_Audio10,time_Audio11,time_Audio12,time_Audio13,time_Audio14,time_Audio15,time_Audio16,time_Audio2,time_Audio3,time_Audio4,time_Audio5,time_Audio6,time_Audio7,time_Audio8,time_Audio9,time_response
Mixed,Male,cave,13,F_gnash.wav,NA,NA,4390,197222.1374,NA,NA,NA,NA,NA,NA,NA,NA,NA,NA,NA,NA,NA,NA,NA,NA
Mixed,Male,cave,13,F_priest.wav,None,740.4317405,4390,197222.1374,NA,NA,NA,NA,NA,NA,NA,197988.746,NA,NA,NA,NA,NA,NA,NA,197229.2677
Mixed,Male,cave,13,F_depth.wav,None,740.8124955,4390,197222.1374,NA,NA,NA,NA,NA,NA,NA,197988.746,198755.3355,NA,NA,NA,NA,NA,NA,197993.8021
Mixed,Male,cave,13,F_jaw.wav,None,738.8660572,4390,197222.1374,NA,NA,NA,NA,NA,NA,NA,197988.746,198755.3355,199522.0099,NA,NA,NA,NA,NA,198760.8493
Mixed,Male,cave,13,F_gnash.wav,None,737.4146296,4390,197222.1374,NA,NA,NA,NA,NA,NA,NA,197988.746,198755.3355,199522.0099,200288.5965,NA,NA,NA,NA,199527.2084
Mixed,Male,cave,13,M_depth.wav,None,736.0526196,4390,197222.1374,NA,NA,NA,NA,NA,NA,NA,197988.746,198755.3355,199522.0099,200288.5965,201055.2393,NA,NA,NA,200293.7184
Mixed,Male,cave,13,M_cave.wav,None,734.1117333,4390,197222.1374,NA,NA,NA,NA,NA,NA,NA,197988.746,198755.3355,199522.0099,200288.5965,201055.2393,201821.8633,NA,NA,201060.5906
Mixed,Male,cave,13,F_lash.wav,None,732.5726415,4390,197222.1374,NA,NA,NA,NA,NA,NA,NA,197988.746,198755.3355,199522.0099,200288.5965,201055.2393,201821.8633,202588.5032,NA,201826.9856
Mixed,Male,cave,13,F_dime.wav,space,97.73686001,4390,197222.1374,NA,NA,NA,NA,NA,NA,NA,197988.746,198755.3355,199522.0099,200288.5965,201055.2393,201821.8633,202588.5032,203355.1369,202593.6476
Mixed,Male,cave,13,M_cave.wav,None,728.9848364,4390,197222.1374,204122.0801,NA,NA,NA,NA,NA,NA,197988.746,198755.3355,199522.0099,200288.5965,201055.2393,201821.8633,202588.5032,203355.1369,203360.4648
Mixed,Male,cave,13,M_cad.wav,None,726.9998258,4390,197222.1374,204122.0801,204871.7291,NA,NA,NA,NA,NA,197988.746,198755.3355,199522.0099,200288.5965,201055.2393,201821.8633,202588.5032,203355.1369,204127.3595
Mixed,Male,cave,13,M_bluff.wav,space,38.308688,4390,197222.1374,204122.0801,204871.7291,205638.3871,NA,NA,NA,NA,197988.746,198755.3355,199522.0099,200288.5965,201055.2393,201821.8633,202588.5032,203355.1369,204876.9396
Mixed,Male,cave,13,M_cave.wav,None,740.8992831,4390,197222.1374,204122.0801,204871.7291,205638.3871,206404.9857,NA,NA,NA,197988.746,198755.3355,199522.0099,200288.5965,201055.2393,201821.8633,202588.5032,203355.1369,205643.492
Mixed,Male,cave,13,F_romp.wav,space,688.9450719,4390,197222.1374,204122.0801,204871.7291,205638.3871,206404.9857,207171.6413,NA,NA,197988.746,198755.3355,199522.0099,200288.5965,201055.2393,201821.8633,202588.5032,203355.1369,206410.0492
Mixed,Male,cave,13,M_cave.wav,None,737.5753474,4390,197222.1374,204122.0801,204871.7291,205638.3871,206404.9857,207171.6413,207938.259,NA,197988.746,198755.3355,199522.0099,200288.5965,201055.2393,201821.8633,202588.5032,203355.1369,207176.7954
Mixed,Male,cave,13,M_jolt.wav,space,699.3294855,4390,197222.1374,204122.0801,204871.7291,205638.3871,206404.9857,207171.6413,207938.259,208704.9464,197988.746,198755.3355,199522.0099,200288.5965,201055.2393,201821.8633,202588.5032,203355.1369,207943.5676
Mixed,Male,ball,1,F_lash.wav,None,734.1368637,4390,211838.0403,204122.0801,204871.7291,205638.3871,206404.9857,207171.6413,207938.259,208704.9464,197988.746,198755.3355,199522.0099,200288.5965,201055.2393,201821.8633,202588.5032,203355.1369,208710.0362
Mixed,Male,ball,1,F_reek.wav,None,742.5800988,4390,211838.0403,204122.0801,204871.7291,205638.3871,206404.9857,207171.6413,207938.259,208704.9464,212604.7012,198755.3355,199522.0099,200288.5965,201055.2393,201821.8633,202588.5032,203355.1369,211843.1956
Mixed,Male,ball,1,M_ball.wav,None,740.7701245,4390,211838.0403,204122.0801,204871.7291,205638.3871,206404.9857,207171.6413,207938.259,208704.9464,212604.7012,213371.3209,199522.0099,200288.5965,201055.2393,201821.8633,202588.5032,203355.1369,212610.0522
Mixed,Male,ball,1,F_cling.wav,space,561.9710194,4390,211838.0403,204122.0801,204871.7291,205638.3871,206404.9857,207171.6413,207938.259,208704.9464,212604.7012,213371.3209,214137.9151,200288.5965,201055.2393,201821.8633,202588.5032,203355.1369,213376.4837
Mixed,Male,ball,1,F_greet.wav,None,737.8403856,4390,211838.0403,204122.0801,204871.7291,205638.3871,206404.9857,207171.6413,207938.259,208704.9464,212604.7012,213371.3209,214137.9151,214904.6213,201055.2393,201821.8633,202588.5032,203355.1369,214142.9532
Mixed,Male,ball,1,M_ball.wav,None,736.433959,4390,211838.0403,204122.0801,204871.7291,205638.3871,206404.9857,207171.6413,207938.259,208704.9464,212604.7012,213371.3209,214137.9151,214904.6213,215671.215,201821.8633,202588.5032,203355.1369,214909.5486
Mixed,Male,ball,1,F_dime.wav,space,494.1180218,4390,211838.0403,204122.0801,204871.7291,205638.3871,206404.9857,207171.6413,207938.259,208704.9464,212604.7012,213371.3209,214137.9151,214904.6213,215671.215,216437.8443,202588.5032,203355.1369,215676.2259
Mixed,Male,ball,1,M_ball.wav,None,732.6588447,4390,211838.0403,204122.0801,204871.7291,205638.3871,206404.9857,207171.6413,207938.259,208704.9464,212604.7012,213371.3209,214137.9151,214904.6213,215671.215,216437.8443,217204.4748,203355.1369,216443.243
Mixed,Male,ball,1,M_priest.wav,space,440.6074781,4390,211838.0403,204122.0801,204871.7291,205638.3871,206404.9857,207171.6413,207938.259,208704.9464,212604.7012,213371.3209,214137.9151,214904.6213,215671.215,216437.8443,217204.4748,217971.169,217209.5862
Mixed,Male,ball,1,F_lash.wav,None,729.588843,4390,211838.0403,218738.1621,204871.7291,205638.3871,206404.9857,207171.6413,207938.259,208704.9464,212604.7012,213371.3209,214137.9151,214904.6213,215671.215,216437.8443,217204.4748,217971.169,217976.2252
Mixed,Male,ball,1,M_ball.wav,None,727.3136638,4390,211838.0403,218738.1621,219487.6791,205638.3871,206404.9857,207171.6413,207938.259,208704.9464,212604.7012,213371.3209,214137.9151,214904.6213,215671.215,216437.8443,217204.4748,217971.169,218743.6861
Mixed,Male,ball,1,F_jaw.wav,space,597.3876641,4390,211838.0403,218738.1621,219487.6791,220254.368,206404.9857,207171.6413,207938.259,208704.9464,212604.7012,213371.3209,214137.9151,214904.6213,215671.215,216437.8443,217204.4748,217971.169,219492.6339
Mixed,Male,ball,1,F_jolt.wav,None,741.318026,4390,211838.0403,218738.1621,219487.6791,220254.368,221020.9558,207171.6413,207938.259,208704.9464,212604.7012,213371.3209,214137.9151,214904.6213,215671.215,216437.8443,217204.4748,217971.169,220259.3617
Mixed,Male,ball,1,M_dime.wav,None,739.684549,4390,211838.0403,218738.1621,219487.6791,220254.368,221020.9558,221787.6234,207938.259,208704.9464,212604.7012,213371.3209,214137.9151,214904.6213,215671.215,216437.8443,217204.4748,217971.169,221026.0488
Mixed,Male,ball,1,M_cling.wav,None,738.0098698,4390,211838.0403,218738.1621,219487.6791,220254.368,221020.9558,221787.6234,222554.2235,208704.9464,212604.7012,213371.3209,214137.9151,214904.6213,215671.215,216437.8443,217204.4748,217971.169,221792.8702
Mixed,Male,ball,1,M_knife.wav,None,737.0815055,4390,211838.0403,218738.1621,219487.6791,220254.368,221020.9558,221787.6234,222554.2235,223320.864,212604.7012,213371.3209,214137.9151,214904.6213,215671.215,216437.8443,217204.4748,217971.169,222558.9814
Mixed,Male,done,37,F_lash.wav,None,735.1108134,4390,226420.7428,218738.1621,219487.6791,220254.368,221020.9558,221787.6234,222554.2235,223320.864,212604.7012,213371.3209,214137.9151,214904.6213,215671.215,216437.8443,217204.4748,217971.169,223326.1624
Mixed,Male,done,37,M_lash.wav,None,742.680036,4390,226420.7428,218738.1621,219487.6791,220254.368,221020.9558,221787.6234,222554.2235,223320.864,227187.3329,213371.3209,214137.9151,214904.6213,215671.215,216437.8443,217204.4748,217971.169,226425.6885
Mixed,Male,done,37,F_jaw.wav,None,741.1421131,4390,226420.7428,218738.1621,219487.6791,220254.368,221020.9558,221787.6234,222554.2235,223320.864,227187.3329,227953.9397,214137.9151,214904.6213,215671.215,216437.8443,217204.4748,217971.169,227192.3435
Mixed,Male,done,37,M_bluff.wav,None,739.4978242,4390,226420.7428,218738.1621,219487.6791,220254.368,221020.9558,221787.6234,222554.2235,223320.864,227187.3329,227953.9397,228720.5962,214904.6213,215671.215,216437.8443,217204.4748,217971.169,227959.0769
Mixed,Male,done,37,F_cling.wav,None,741.3612737,4390,226420.7428,218738.1621,219487.6791,220254.368,221020.9558,221787.6234,222554.2235,223320.864,227187.3329,227953.9397,228720.5962,229487.2183,215671.215,216437.8443,217204.4748,217971.169,228722.3305
Mixed,Male,done,37,F_cad.wav,None,736.4997072,4390,226420.7428,218738.1621,219487.6791,220254.368,221020.9558,221787.6234,222554.2235,223320.864,227187.3329,227953.9397,228720.5962,229487.2183,230253.8584,216437.8443,217204.4748,217971.169,229492.4439
Mixed,Male,done,37,M_done.wav,None,735.1482169,4390,226420.7428,218738.1621,219487.6791,220254.368,221020.9558,221787.6234,222554.2235,223320.864,227187.3329,227953.9397,228720.5962,229487.2183,230253.8584,231020.4877,217204.4748,217971.169,230258.8535
Mixed,Male,done,37,F_jaw.wav,None,733.811045,4390,226420.7428,218738.1621,219487.6791,220254.368,221020.9558,221787.6234,222554.2235,223320.864,227187.3329,227953.9397,228720.5962,229487.2183,230253.8584,231020.4877,231787.1167,217971.169,231025.5036
Mixed,Male,done,37,F_knife.wav,None,732.3365325,4390,226420.7428,218738.1621,219487.6791,220254.368,221020.9558,221787.6234,222554.2235,223320.864,227187.3329,227953.9397,228720.5962,229487.2183,230253.8584,231020.4877,231787.1167,232553.7318,231792.1761
Mixed,Male,done,37,M_done.wav,None,730.6606845,4390,226420.7428,233320.3555,219487.6791,220254.368,221020.9558,221787.6234,222554.2235,223320.864,227187.3329,227953.9397,228720.5962,229487.2183,230253.8584,231020.4877,231787.1167,232553.7318,232558.953
Mixed,Male,done,37,F_priest.wav,space,675.4988387,4390,226420.7428,233320.3555,234087.3083,220254.368,221020.9558,221787.6234,222554.2235,223320.864,227187.3329,227953.9397,228720.5962,229487.2183,230253.8584,231020.4877,231787.1167,232553.7318,233325.3723
Mixed,Male,done,37,M_done.wav,None,726.9007653,4390,226420.7428,233320.3555,234087.3083,234837.0269,221020.9558,221787.6234,222554.2235,223320.864,227187.3329,227953.9397,228720.5962,229487.2183,230253.8584,231020.4877,231787.1167,232553.7318,234092.7584
Mixed,Male,done,37,M_cad.wav,space,614.483944,4390,226420.7428,233320.3555,234087.3083,234837.0269,235603.6007,221787.6234,222554.2235,223320.864,227187.3329,227953.9397,228720.5962,229487.2183,230253.8584,231020.4877,231787.1167,232553.7318,234842.2409
Mixed,Male,done,37,M_gnash.wav,None,741.0617542,4390,226420.7428,233320.3555,234087.3083,234837.0269,235603.6007,236370.2338,222554.2235,223320.864,227187.3329,227953.9397,228720.5962,229487.2183,230253.8584,231020.4877,231787.1167,232553.7318,235608.815
Mixed,Male,done,37,M_done.wav,None,739.7079261,4390,226420.7428,233320.3555,234087.3083,234837.0269,235603.6007,236370.2338,237136.8898,223320.864,227187.3329,227953.9397,228720.5962,229487.2183,230253.8584,231020.4877,231787.1167,232553.7318,236375.3824
Mixed,Male,done,37,F_cling.wav,space,570.5816931,4390,226420.7428,233320.3555,234087.3083,234837.0269,235603.6007,236370.2338,237136.8898,237903.5281,227187.3329,227953.9397,228720.5962,229487.2183,230253.8584,231020.4877,231787.1167,232553.7318,237141.9924
Mixed,Male,tile,28,F_depth.wav,None,736.6884775,4390,241003.3245,233320.3555,234087.3083,234837.0269,235603.6007,236370.2338,237136.8898,237903.5281,227187.3329,227953.9397,228720.5962,229487.2183,230253.8584,231020.4877,231787.1167,232553.7318,237908.5624
Mixed,Male,tile,28,M_tile.wav,None,743.0981945,4390,241003.3245,233320.3555,234087.3083,234837.0269,235603.6007,236370.2338,237136.8898,237903.5281,241769.9521,227953.9397,228720.5962,229487.2183,230253.8584,231020.4877,231787.1167,232553.7318,241008.4061
Mixed,Male,tile,28,M_priest.wav,space,696.8368989,4390,241003.3245,233320.3555,234087.3083,234837.0269,235603.6007,236370.2338,237136.8898,237903.5281,241769.9521,242536.5762,228720.5962,229487.2183,230253.8584,231020.4877,231787.1167,232553.7318,241775.2406
Mixed,Male,tile,28,M_tile.wav,None,740.2464768,4390,241003.3245,233320.3555,234087.3083,234837.0269,235603.6007,236370.2338,237136.8898,237903.5281,241769.9521,242536.5762,243303.2183,229487.2183,230253.8584,231020.4877,231787.1167,232553.7318,242541.6437
Mixed,Male,tile,28,F_cling.wav,space,630.874819,4390,241003.3245,233320.3555,234087.3083,234837.0269,235603.6007,236370.2338,237136.8898,237903.5281,241769.9521,242536.5762,243303.2183,244069.8281,230253.8584,231020.4877,231787.1167,232553.7318,243305.1987
Mixed,Male,tile,28,F_jolt.wav,None,737.5852827,4390,241003.3245,233320.3555,234087.3083,234837.0269,235603.6007,236370.2338,237136.8898,237903.5281,241769.9521,242536.5762,243303.2183,244069.8281,244836.5378,231020.4877,231787.1167,232553.7318,244074.8913
Mixed,Male,tile,28,F_bluff.wav,None,736.1922979,4390,241003.3245,233320.3555,234087.3083,234837.0269,235603.6007,236370.2338,237136.8898,237903.5281,241769.9521,242536.5762,243303.2183,244069.8281,244836.5378,245603.1902,231787.1167,232553.7318,244841.5215
Mixed,Male,tile,28,M_jolt.wav,None,735.2145495,4390,241003.3245,233320.3555,234087.3083,234837.0269,235603.6007,236370.2338,237136.8898,237903.5281,241769.9521,242536.5762,243303.2183,244069.8281,244836.5378,245603.1902,246369.7456,232553.7318,245608.1081
Mixed,Male,tile,28,M_tile.wav,None,733.8835141,4390,241003.3245,233320.3555,234087.3083,234837.0269,235603.6007,236370.2338,237136.8898,237903.5281,241769.9521,242536.5762,243303.2183,244069.8281,244836.5378,245603.1902,246369.7456,247136.3372,246374.7196
Mixed,Male,tile,28,F_jaw.wav,None,732.6980014,4390,241003.3245,247903.0141,234087.3083,234837.0269,235603.6007,236370.2338,237136.8898,237903.5281,241769.9521,242536.5762,243303.2183,244069.8281,244836.5378,245603.1902,246369.7456,247136.3372,247141.4392
Mixed,Male,tile,28,M_greet.wav,space,0.020454991,4390,241003.3245,247903.0141,248669.6879,234837.0269,235603.6007,236370.2338,237136.8898,237903.5281,241769.9521,242536.5762,243303.2183,244069.8281,244836.5378,245603.1902,246369.7456,247136.3372,247908.1033
Mixed,Male,tile,28,M_jaw.wav,None,729.7670937,4390,241003.3245,247903.0141,248669.6879,249436.8242,235603.6007,236370.2338,237136.8898,237903.5281,241769.9521,242536.5762,243303.2183,244069.8281,244836.5378,245603.1902,246369.7456,247136.3372,248674.6619
Mixed,Male,tile,28,F_park.wav,None,727.5769487,4390,241003.3245,247903.0141,248669.6879,249436.8242,250186.2441,236370.2338,237136.8898,237903.5281,241769.9521,242536.5762,243303.2183,244069.8281,244836.5378,245603.1902,246369.7456,247136.3372,249442.2436
Mixed,Male,tile,28,M_tile.wav,None,743.9549663,4390,241003.3245,247903.0141,248669.6879,249436.8242,250186.2441,250952.8533,237136.8898,237903.5281,241769.9521,242536.5762,243303.2183,244069.8281,244836.5378,245603.1902,246369.7456,247136.3372,250191.1761
Mixed,Male,tile,28,F_cling.wav,space,521.2740653,4390,241003.3245,247903.0141,248669.6879,249436.8242,250186.2441,250952.8533,251719.511,237903.5281,241769.9521,242536.5762,243303.2183,244069.8281,244836.5378,245603.1902,246369.7456,247136.3372,250958.2175
Mixed,Male,tile,28,F_jaw.wav,None,740.8317817,4390,241003.3245,247903.0141,248669.6879,249436.8242,250186.2441,250952.8533,251719.511,252486.1344,241769.9521,242536.5762,243303.2183,244069.8281,244836.5378,245603.1902,246369.7456,247136.3372,251724.623
Mixed,Male,cave,17,F_dime.wav,None,739.766369,4390,255602.6954,247903.0141,248669.6879,249436.8242,250186.2441,250952.8533,251719.511,252486.1344,241769.9521,242536.5762,243303.2183,244069.8281,244836.5378,245603.1902,246369.7456,247136.3372,252491.209
Mixed,Male,cave,17,F_jolt.wav,None,742.8235132,4390,255602.6954,247903.0141,248669.6879,249436.8242,250186.2441,250952.8533,251719.511,252486.1344,256369.3134,242536.5762,243303.2183,244069.8281,244836.5378,245603.1902,246369.7456,247136.3372,255607.9819
Mixed,Male,cave,17,M_cave.wav,None,741.8013482,4390,255602.6954,247903.0141,248669.6879,249436.8242,250186.2441,250952.8533,251719.511,252486.1344,256369.3134,257135.9079,243303.2183,244069.8281,244836.5378,245603.1902,246369.7456,247136.3372,256374.3774
Mixed,Male,cave,17,F_park.wav,None,740.279497,4390,255602.6954,247903.0141,248669.6879,249436.8242,250186.2441,250952.8533,251719.511,252486.1344,256369.3134,257135.9079,257902.5399,244069.8281,244836.5378,245603.1902,246369.7456,247136.3372,257141.1055
Mixed,Male,cave,17,M_greet.wav,space,27.36760654,4390,255602.6954,247903.0141,248669.6879,249436.8242,250186.2441,250952.8533,251719.511,252486.1344,256369.3134,257135.9079,257902.5399,258669.1823,244836.5378,245603.1902,246369.7456,247136.3372,257907.5937
Mixed,Male,cave,17,F_gnash.wav,None,737.3675832,4390,255602.6954,247903.0141,248669.6879,249436.8242,250186.2441,250952.8533,251719.511,252486.1344,256369.3134,257135.9079,257902.5399,258669.1823,259435.8564,245603.1902,246369.7456,247136.3372,258674.1102
Mixed,Male,cave,17,M_cave.wav,None,735.684722,4390,255602.6954,247903.0141,248669.6879,249436.8242,250186.2441,250952.8533,251719.511,252486.1344,256369.3134,257135.9079,257902.5399,258669.1823,259435.8564,260202.3966,246369.7456,247136.3372,259440.94
Mixed,Male,cave,17,M_greet.wav,None,734.7233375,4390,255602.6954,247903.0141,248669.6879,249436.8242,250186.2441,250952.8533,251719.511,252486.1344,256369.3134,257135.9079,257902.5399,258669.1823,259435.8564,260202.3966,260969.0642,247136.3372,260207.4113
Mixed,Male,cave,17,M_cave.wav,space,8.447033852,4390,255602.6954,247903.0141,248669.6879,249436.8242,250186.2441,250952.8533,251719.511,252486.1344,256369.3134,257135.9079,257902.5399,258669.1823,259435.8564,260202.3966,260969.0642,261735.735,260974.2276
Mixed,Male,cave,17,F_reek.wav,space,641.8831097,4390,255602.6954,262502.326,248669.6879,249436.8242,250186.2441,250952.8533,251719.511,252486.1344,256369.3134,257135.9079,257902.5399,258669.1823,259435.8564,260202.3966,260969.0642,261735.735,261740.7488
Mixed,Male,cave,17,F_greet.wav,None,729.3296491,4390,255602.6954,262502.326,263269.2461,249436.8242,250186.2441,250952.8533,251719.511,252486.1344,256369.3134,257135.9079,257902.5399,258669.1823,259435.8564,260202.3966,260969.0642,261735.735,262507.7568
Mixed,Male,cave,17,F_reek.wav,None,727.8212398,4390,255602.6954,262502.326,263269.2461,264018.8981,250186.2441,250952.8533,251719.511,252486.1344,256369.3134,257135.9079,257902.5399,258669.1823,259435.8564,260202.3966,260969.0642,261735.735,263274.6646
Mixed,Male,cave,17,M_gnash.wav,None,743.7118441,4390,255602.6954,262502.326,263269.2461,264018.8981,264785.5405,250952.8533,251719.511,252486.1344,256369.3134,257135.9079,257902.5399,258669.1823,259435.8564,260202.3966,260969.0642,261735.735,264024.0121
Mixed,Male,cave,17,M_cling.wav,None,742.0216776,4390,255602.6954,262502.326,263269.2461,264018.8981,264785.5405,265552.1947,251719.511,252486.1344,256369.3134,257135.9079,257902.5399,258669.1823,259435.8564,260202.3966,260969.0642,261735.735,264790.9746
Mixed,Male,cave,17,M_cave.wav,None,744.5908242,4390,255602.6954,262502.326,263269.2461,264018.8981,264785.5405,265552.1947,266318.8147,252486.1344,256369.3134,257135.9079,257902.5399,258669.1823,259435.8564,260202.3966,260969.0642,261735.735,265553.7832
Mixed,Male,cave,17,F_bluff.wav,space,562.4306722,4390,255602.6954,262502.326,263269.2461,264018.8981,264785.5405,265552.1947,266318.8147,267085.4513,256369.3134,257135.9079,257902.5399,258669.1823,259435.8564,260202.3966,260969.0642,261735.735,266323.8373
Mixed,Female,tile,35,M_cling.wav,None,738.2208484,4390,270185.2705,262502.326,263269.2461,264018.8981,264785.5405,265552.1947,266318.8147,267085.4513,256369.3134,257135.9079,257902.5399,258669.1823,259435.8564,260202.3966,260969.0642,261735.735,267090.5499
Mixed,Female,tile,35,F_jolt.wav,None,742.4217188,4390,270185.2705,262502.326,263269.2461,264018.8981,264785.5405,265552.1947,266318.8147,267085.4513,270951.9504,257135.9079,257902.5399,258669.1823,259435.8564,260202.3966,260969.0642,261735.735,270190.3752
Mixed,Female,tile,35,M_jolt.wav,None,741.095651,4390,270185.2705,262502.326,263269.2461,264018.8981,264785.5405,265552.1947,266318.8147,267085.4513,270951.9504,271718.554,257902.5399,258669.1823,259435.8564,260202.3966,260969.0642,261735.735,270957.1734
Mixed,Female,tile,35,M_greet.wav,None,740.2569965,4390,270185.2705,262502.326,263269.2461,264018.8981,264785.5405,265552.1947,266318.8147,267085.4513,270951.9504,271718.554,272485.1494,258669.1823,259435.8564,260202.3966,260969.0642,261735.735,271723.5681
Mixed,Female,tile,35,M_park.wav,None,739.150966,4390,270185.2705,262502.326,263269.2461,264018.8981,264785.5405,265552.1947,266318.8147,267085.4513,270951.9504,271718.554,272485.1494,273251.7927,259435.8564,260202.3966,260969.0642,261735.735,272490.188
Mixed,Female,tile,35,F_tile.wav,None,737.8687304,4390,270185.2705,262502.326,263269.2461,264018.8981,264785.5405,265552.1947,266318.8147,267085.4513,270951.9504,271718.554,272485.1494,273251.7927,274018.4858,260202.3966,260969.0642,261735.735,273256.9196
Mixed,Female,tile,35,M_lash.wav,space,641.3696894,4390,270185.2705,262502.326,263269.2461,264018.8981,264785.5405,265552.1947,266318.8147,267085.4513,270951.9504,271718.554,272485.1494,273251.7927,274018.4858,274785.0528,260969.0642,261735.735,274020.2732
Mixed,Female,tile,35,F_tile.wav,None,734.8054497,4390,270185.2705,262502.326,263269.2461,264018.8981,264785.5405,265552.1947,266318.8147,267085.4513,270951.9504,271718.554,272485.1494,273251.7927,274018.4858,274785.0528,275551.6903,261735.735,274790.2002
Mixed,Female,tile,35,M_park.wav,space,480.825201,4390,270185.2705,262502.326,263269.2461,264018.8981,264785.5405,265552.1947,266318.8147,267085.4513,270951.9504,271718.554,272485.1494,273251.7927,274018.4858,274785.0528,275551.6903,276318.3375,275556.7214
Mixed,Female,tile,35,M_park.wav,None,731.78454,4390,270185.2705,277084.9639,263269.2461,264018.8981,264785.5405,265552.1947,266318.8147,267085.4513,270951.9504,271718.554,272485.1494,273251.7927,274018.4858,274785.0528,275551.6903,276318.3375,276323.5126
Mixed,Female,tile,35,M_knife.wav,None,730.5478898,4390,270185.2705,277084.9639,277851.6026,264018.8981,264785.5405,265552.1947,266318.8147,267085.4513,270951.9504,271718.554,272485.1494,273251.7927,274018.4858,274785.0528,275551.6903,276318.3375,277090.2591
Mixed,Female,tile,35,F_tile.wav,None,729.8462837,4390,270185.2705,277084.9639,277851.6026,278618.5554,264785.5405,265552.1947,266318.8147,267085.4513,270951.9504,271718.554,272485.1494,273251.7927,274018.4858,274785.0528,275551.6903,276318.3375,277856.4977
Mixed,Female,tile,35,F_jaw.wav,None,727.6342227,4390,270185.2705,277084.9639,277851.6026,278618.5554,279385.0769,265552.1947,266318.8147,267085.4513,270951.9504,271718.554,272485.1494,273251.7927,274018.4858,274785.0528,275551.6903,276318.3375,278624.1632
Mixed,Female,tile,35,F_jolt.wav,space,62.72960725,4390,270185.2705,277084.9639,277851.6026,278618.5554,279385.0769,280134.8399,266318.8147,267085.4513,270951.9504,271718.554,272485.1494,273251.7927,274018.4858,274785.0528,275551.6903,276318.3375,279390.4732
Mixed,Female,tile,35,F_tile.wav,None,742.4006793,4390,270185.2705,277084.9639,277851.6026,278618.5554,279385.0769,280134.8399,280901.4157,267085.4513,270951.9504,271718.554,272485.1494,273251.7927,274018.4858,274785.0528,275551.6903,276318.3375,280139.8677
Mixed,Female,tile,35,F_knife.wav,space,618.3966912,4390,270185.2705,277084.9639,277851.6026,278618.5554,279385.0769,280134.8399,280901.4157,281668.1172,270951.9504,271718.554,272485.1494,273251.7927,274018.4858,274785.0528,275551.6903,276318.3375,280906.6545
Mixed,Female,done,48,M_cling.wav,None,739.5130193,4390,284784.9473,277084.9639,277851.6026,278618.5554,279385.0769,280134.8399,280901.4157,281668.1172,270951.9504,271718.554,272485.1494,273251.7927,274018.4858,274785.0528,275551.6903,276318.3375,281673.2508
Mixed,Female,done,48,F_done.wav,None,725.1539092,4390,284784.9473,277084.9639,277851.6026,278618.5554,279385.0769,280134.8399,280901.4157,281668.1172,285534.5672,271718.554,272485.1494,273251.7927,274018.4858,274785.0528,275551.6903,276318.3375,284790.5301
Mixed,Female,done,48,M_cad.wav,None,741.2522778,4390,284784.9473,277084.9639,277851.6026,278618.5554,279385.0769,280134.8399,280901.4157,281668.1172,285534.5672,286301.198,272485.1494,273251.7927,274018.4858,274785.0528,275551.6903,276318.3375,285539.8224
Mixed,Female,done,48,M_gnash.wav,space,594.4418535,4390,284784.9473,277084.9639,277851.6026,278618.5554,279385.0769,280134.8399,280901.4157,281668.1172,285534.5672,286301.198,287067.8694,273251.7927,274018.4858,274785.0528,275551.6903,276318.3375,286306.2033
Mixed,Female,done,48,F_jolt.wav,None,738.393547,4390,284784.9473,277084.9639,277851.6026,278618.5554,279385.0769,280134.8399,280901.4157,281668.1172,285534.5672,286301.198,287067.8694,287834.4437,274018.4858,274785.0528,275551.6903,276318.3375,287072.9185
Mixed,Female,done,48,F_done.wav,None,737.1659554,4390,284784.9473,277084.9639,277851.6026,278618.5554,279385.0769,280134.8399,280901.4157,281668.1172,285534.5672,286301.198,287067.8694,287834.4437,288601.0748,274785.0528,275551.6903,276318.3375,287839.5899
Mixed,Female,done,48,M_gnash.wav,space,454.0084181,4390,284784.9473,277084.9639,277851.6026,278618.5554,279385.0769,280134.8399,280901.4157,281668.1172,285534.5672,286301.198,287067.8694,287834.4437,288601.0748,289367.722,275551.6903,276318.3375,288606.4405
Mixed,Female,done,48,F_done.wav,None,734.1558577,4390,284784.9473,277084.9639,277851.6026,278618.5554,279385.0769,280134.8399,280901.4157,281668.1172,285534.5672,286301.198,287067.8694,287834.4437,288601.0748,289367.722,290134.4062,276318.3375,289372.8328
Mixed,Female,done,48,F_depth.wav,space,480.8655266,4390,284784.9473,277084.9639,277851.6026,278618.5554,279385.0769,280134.8399,280901.4157,281668.1172,285534.5672,286301.198,287067.8694,287834.4437,288601.0748,289367.722,290134.4062,290900.9824,290139.5276
Mixed,Female,done,48,F_depth.wav,None,731.3687193,4390,284784.9473,291667.6029,277851.6026,278618.5554,279385.0769,280134.8399,280901.4157,281668.1172,285534.5672,286301.198,287067.8694,287834.4437,288601.0748,289367.722,290134.4062,290900.9824,290906.019
Mixed,Female,done,48,F_done.wav,space,475.4712537,4390,284784.9473,291667.6029,292434.2685,278618.5554,279385.0769,280134.8399,280901.4157,281668.1172,285534.5672,286301.198,287067.8694,287834.4437,288601.0748,289367.722,290134.4062,290900.9824,291672.7579
Mixed,Female,done,48,M_bluff.wav,None,728.8051247,4390,284784.9473,291667.6029,292434.2685,293201.162,279385.0769,280134.8399,280901.4157,281668.1172,285534.5672,286301.198,287067.8694,287834.4437,288601.0748,289367.722,290134.4062,290900.9824,292439.5497
Mixed,Female,done,48,F_greet.wav,None,727.4323028,4390,284784.9473,291667.6029,292434.2685,293201.162,293950.8358,280134.8399,280901.4157,281668.1172,285534.5672,286301.198,287067.8694,287834.4437,288601.0748,289367.722,290134.4062,290900.9824,293206.3005
Mixed,Female,done,48,M_cad.wav,None,743.3456998,4390,284784.9473,291667.6029,292434.2685,293201.162,293950.8358,294717.4628,280901.4157,281668.1172,285534.5672,286301.198,287067.8694,287834.4437,288601.0748,289367.722,290134.4062,290900.9824,293955.9195
Mixed,Female,done,48,M_cad.wav,None,742.4290241,4390,284784.9473,291667.6029,292434.2685,293201.162,293950.8358,294717.4628,295484.0705,281668.1172,285534.5672,286301.198,287067.8694,287834.4437,288601.0748,289367.722,290134.4062,290900.9824,294722.8033
Mixed,Female,done,48,M_cling.wav,None,742.6023071,4390,284784.9473,291667.6029,292434.2685,293201.162,293950.8358,294717.4628,295484.0705,296250.7054,285534.5672,286301.198,287067.8694,287834.4437,288601.0748,289367.722,290134.4062,290900.9824,295489.1323
Mixed,Male,done,38,M_bluff.wav,None,742.0301518,4390,299350.595,291667.6029,292434.2685,293201.162,293950.8358,294717.4628,295484.0705,296250.7054,285534.5672,286301.198,287067.8694,287834.4437,288601.0748,289367.722,290134.4062,290900.9824,296256.0027
Mixed,Male,done,38,M_done.wav,None,743.0292319,4390,299350.595,291667.6029,292434.2685,293201.162,293950.8358,294717.4628,295484.0705,296250.7054,300117.1954,286301.198,287067.8694,287834.4437,288601.0748,289367.722,290134.4062,290900.9824,299355.7047
Mixed,Male,done,38,M_cling.wav,None,741.8098224,4390,299350.595,291667.6029,292434.2685,293201.162,293950.8358,294717.4628,295484.0705,296250.7054,300117.1954,300883.8002,287067.8694,287834.4437,288601.0748,289367.722,290134.4062,290900.9824,300122.3474
Mixed,Male,done,38,M_done.wav,space,50.63603327,4390,299350.595,291667.6029,292434.2685,293201.162,293950.8358,294717.4628,295484.0705,296250.7054,300117.1954,300883.8002,301650.4935,287834.4437,288601.0748,289367.722,290134.4062,290900.9824,300888.864
Mixed,Male,done,38,F_dime.wav,space,499.7367151,4390,299350.595,291667.6029,292434.2685,293201.162,293950.8358,294717.4628,295484.0705,296250.7054,300117.1954,300883.8002,301650.4935,302417.0635,288601.0748,289367.722,290134.4062,290900.9824,301655.673
Mixed,Male,done,38,F_romp.wav,None,737.468397,4390,299350.595,291667.6029,292434.2685,293201.162,293950.8358,294717.4628,295484.0705,296250.7054,300117.1954,300883.8002,301650.4935,302417.0635,303183.7328,289367.722,290134.4062,290900.9824,302422.3385
Mixed,Male,done,38,F_cad.wav,None,736.525422,4390,299350.595,291667.6029,292434.2685,293201.162,293950.8358,294717.4628,295484.0705,296250.7054,300117.1954,300883.8002,301650.4935,302417.0635,303183.7328,303950.3815,290134.4062,290900.9824,303188.8238
Mixed,Male,done,38,F_greet.wav,None,735.4722823,4390,299350.595,291667.6029,292434.2685,293201.162,293950.8358,294717.4628,295484.0705,296250.7054,300117.1954,300883.8002,301650.4935,302417.0635,303183.7328,303950.3815,304717.0292,290900.9824,303955.3815
Mixed,Male,done,38,M_gnash.wav,None,734.2145927,4390,299350.595,291667.6029,292434.2685,293201.162,293950.8358,294717.4628,295484.0705,296250.7054,300117.1954,300883.8002,301650.4935,302417.0635,303183.7328,303950.3815,304717.0292,305483.5866,304722.2379
Mixed,Male,done,38,F_reek.wav,None,733.0886917,4390,299350.595,306250.2729,292434.2685,293201.162,293950.8358,294717.4628,295484.0705,296250.7054,300117.1954,300883.8002,301650.4935,302417.0635,303183.7328,303950.3815,304717.0292,305483.5866,305488.7483
Mixed,Male,done,38,M_done.wav,None,731.8993802,4390,299350.595,306250.2729,307016.847,293201.162,293950.8358,294717.4628,295484.0705,296250.7054,300117.1954,300883.8002,301650.4935,302417.0635,303183.7328,303950.3815,304717.0292,305483.5866,306255.5477
Mixed,Male,done,38,F_priest.wav,None,730.7670504,4390,299350.595,306250.2729,307016.847,307783.4731,293950.8358,294717.4628,295484.0705,296250.7054,300117.1954,300883.8002,301650.4935,302417.0635,303183.7328,303950.3815,304717.0292,305483.5866,307022.1799
Mixed,Male,done,38,F_priest.wav,space,278.4397402,4390,299350.595,306250.2729,307016.847,307783.4731,308550.4636,294717.4628,295484.0705,296250.7054,300117.1954,300883.8002,301650.4935,302417.0635,303183.7328,303950.3815,304717.0292,305483.5866,307788.496
Mixed,Male,done,38,M_romp.wav,None,727.3200925,4390,299350.595,306250.2729,307016.847,307783.4731,308550.4636,309300.1147,295484.0705,296250.7054,300117.1954,300883.8002,301650.4935,302417.0635,303183.7328,303950.3815,304717.0292,305483.5866,308556.085
Mixed,Male,done,38,M_done.wav,None,743.8170412,4390,299350.595,306250.2729,307016.847,307783.4731,308550.4636,309300.1147,310066.7315,296250.7054,300117.1954,300883.8002,301650.4935,302417.0635,303183.7328,303950.3815,304717.0292,305483.5866,309305.1163
Mixed,Male,done,38,F_lash.wav,None,742.7253292,4390,299350.595,306250.2729,307016.847,307783.4731,308550.4636,309300.1147,310066.7315,310833.3599,300117.1954,300883.8002,301650.4935,302417.0635,303183.7328,303950.3815,304717.0292,305483.5866,310071.8426
Mixed,Female,tile,32,M_bluff.wav,None,741.8635898,4390,313966.8419,306250.2729,307016.847,307783.4731,308550.4636,309300.1147,310066.7315,310833.3599,300117.1954,300883.8002,301650.4935,302417.0635,303183.7328,303950.3815,304717.0292,305483.5866,310838.3106
Mixed,Female,tile,32,M_romp.wav,space,0.051721901,4390,313966.8419,306250.2729,307016.847,307783.4731,308550.4636,309300.1147,310066.7315,310833.3599,314716.5149,300883.8002,301650.4935,302417.0635,303183.7328,303950.3815,304717.0292,305483.5866,313972.4097
Mixed,Female,tile,32,F_bluff.wav,None,742.13681,4390,313966.8419,306250.2729,307016.847,307783.4731,308550.4636,309300.1147,310066.7315,310833.3599,314716.5149,315483.1489,301650.4935,302417.0635,303183.7328,303950.3815,304717.0292,305483.5866,314721.6006
Mixed,Female,tile,32,M_cad.wav,None,741.1508795,4390,313966.8419,306250.2729,307016.847,307783.4731,308550.4636,309300.1147,310066.7315,310833.3599,314716.5149,315483.1489,316249.7811,302417.0635,303183.7328,303950.3815,304717.0292,305483.5866,315488.3529
Mixed,Female,tile,32,F_tile.wav,None,740.3037507,4390,313966.8419,306250.2729,307016.847,307783.4731,308550.4636,309300.1147,310066.7315,310833.3599,314716.5149,315483.1489,316249.7811,317016.4782,303183.7328,303950.3815,304717.0292,305483.5866,316254.8227
Mixed,Female,tile,32,M_jolt.wav,space,588.4748409,4390,313966.8419,306250.2729,307016.847,307783.4731,308550.4636,309300.1147,310066.7315,310833.3599,314716.5149,315483.1489,316249.7811,317016.4782,317782.9994,303950.3815,304717.0292,305483.5866,317021.7247
Mixed,Female,tile,32,F_greet.wav,None,737.7980146,4390,313966.8419,306250.2729,307016.847,307783.4731,308550.4636,309300.1147,310066.7315,310833.3599,314716.5149,315483.1489,316249.7811,317016.4782,317782.9994,318549.6706,304717.0292,305483.5866,317788.2558
Mixed,Female,tile,32,F_depth.wav,None,736.9903347,4390,313966.8419,306250.2729,307016.847,307783.4731,308550.4636,309300.1147,310066.7315,310833.3599,314716.5149,315483.1489,316249.7811,317016.4782,317782.9994,318549.6706,319316.3425,305483.5866,318554.8024
Mixed,Female,tile,32,F_tile.wav,None,736.0868086,4390,313966.8419,306250.2729,307016.847,307783.4731,308550.4636,309300.1147,310066.7315,310833.3599,314716.5149,315483.1489,316249.7811,317016.4782,317782.9994,318549.6706,319316.3425,320082.9716,319321.4578
Mixed,Female,tile,32,F_romp.wav,None,735.1730551,4390,313966.8419,320849.5834,307016.847,307783.4731,308550.4636,309300.1147,310066.7315,310833.3599,314716.5149,315483.1489,316249.7811,317016.4782,317782.9994,318549.6706,319316.3425,320082.9716,320088.1294
Mixed,Female,tile,32,F_tile.wav,space,0.021623848,4390,313966.8419,320849.5834,321616.1922,307783.4731,308550.4636,309300.1147,310066.7315,310833.3599,314716.5149,315483.1489,316249.7811,317016.4782,317782.9994,318549.6706,319316.3425,320082.9716,320854.6217
Mixed,Female,tile,32,M_jolt.wav,space,444.5284073,4390,313966.8419,320849.5834,321616.1922,322382.8484,308550.4636,309300.1147,310066.7315,310833.3599,314716.5149,315483.1489,316249.7811,317016.4782,317782.9994,318549.6706,319316.3425,320082.9716,321621.3504
Mixed,Female,tile,32,M_dime.wav,None,730.8985468,4390,313966.8419,320849.5834,321616.1922,322382.8484,323149.4634,309300.1147,310066.7315,310833.3599,314716.5149,315483.1489,316249.7811,317016.4782,317782.9994,318549.6706,319316.3425,320082.9716,322388.0133
Mixed,Female,tile,32,F_tile.wav,None,729.8506669,4390,313966.8419,320849.5834,321616.1922,322382.8484,323149.4634,323916.0814,310066.7315,310833.3599,314716.5149,315483.1489,316249.7811,317016.4782,317782.9994,318549.6706,319316.3425,320082.9716,323154.9278
Mixed,Female,tile,32,M_cad.wav,space,504.4989287,4390,313966.8419,320849.5834,321616.1922,322382.8484,323149.4634,323916.0814,324682.8772,310833.3599,314716.5149,315483.1489,316249.7811,317016.4782,317782.9994,318549.6706,319316.3425,320082.9716,323921.134
Mixed,Female,tile,32,M_greet.wav,None,730.6153913,4390,313966.8419,320849.5834,321616.1922,322382.8484,323149.4634,323916.0814,324682.8772,325432.6616,314716.5149,315483.1489,316249.7811,317016.4782,317782.9994,318549.6706,319316.3425,320082.9716,324684.5058
Mixed,Female,ball,12,F_cling.wav,None,743.1364745,4390,328532.5956,320849.5834,321616.1922,322382.8484,323149.4634,323916.0814,324682.8772,325432.6616,314716.5149,315483.1489,316249.7811,317016.4782,317782.9994,318549.6706,319316.3425,320082.9716,325437.8122
Mixed,Female,ball,12,M_greet.wav,None,742.5315913,4390,328532.5956,320849.5834,321616.1922,322382.8484,323149.4634,323916.0814,324682.8772,325432.6616,329299.1381,315483.1489,316249.7811,317016.4782,317782.9994,318549.6706,319316.3425,320082.9716,328537.7056
Mixed,Female,ball,12,F_bluff.wav,None,741.6838781,4390,328532.5956,320849.5834,321616.1922,322382.8484,323149.4634,323916.0814,324682.8772,325432.6616,329299.1381,330065.7496,316249.7811,317016.4782,317782.9994,318549.6706,319316.3425,320082.9716,329304.0853
Mixed,Female,ball,12,M_depth.wav,None,741.0132467,4390,328532.5956,320849.5834,321616.1922,322382.8484,323149.4634,323916.0814,324682.8772,325432.6616,329299.1381,330065.7496,330832.4117,317016.4782,317782.9994,318549.6706,319316.3425,320082.9716,330070.7898
Mixed,Female,ball,12,F_priest.wav,None,739.7909149,4390,328532.5956,320849.5834,321616.1922,322382.8484,323149.4634,323916.0814,324682.8772,325432.6616,329299.1381,330065.7496,330832.4117,331599.0562,317782.9994,318549.6706,319316.3425,320082.9716,330837.7116
Mixed,Female,ball,12,M_greet.wav,None,739.1606091,4390,328532.5956,320849.5834,321616.1922,322382.8484,323149.4634,323916.0814,324682.8772,325432.6616,329299.1381,330065.7496,330832.4117,331599.0562,332365.692,318549.6706,319316.3425,320082.9716,331604.2252
Mixed,Female,ball,12,F_ball.wav,None,738.3327664,4390,328532.5956,320849.5834,321616.1922,322382.8484,323149.4634,323916.0814,324682.8772,325432.6616,329299.1381,330065.7496,330832.4117,331599.0562,332365.692,333132.2856,319316.3425,320082.9716,332370.7815
Mixed,Female,ball,12,M_park.wav,None,737.8453533,4390,328532.5956,320849.5834,321616.1922,322382.8484,323149.4634,323916.0814,324682.8772,325432.6616,329299.1381,330065.7496,330832.4117,331599.0562,332365.692,333132.2856,333898.9497,320082.9716,333137.2845
Mixed,Female,ball,12,M_greet.wav,space,64.9226743,4390,328532.5956,320849.5834,321616.1922,322382.8484,323149.4634,323916.0814,324682.8772,325432.6616,329299.1381,330065.7496,330832.4117,331599.0562,332365.692,333132.2856,333898.9497,334665.5758,333903.9916
Mixed,Female,ball,12,F_ball.wav,None,734.6564205,4390,328532.5956,335432.1602,321616.1922,322382.8484,323149.4634,323916.0814,324682.8772,325432.6616,329299.1381,330065.7496,330832.4117,331599.0562,332365.692,333132.2856,333898.9497,334665.5758,334670.9289
Mixed,Female,ball,12,M_cad.wav,None,734.2797565,4390,328532.5956,335432.1602,336198.8394,322382.8484,323149.4634,323916.0814,324682.8772,325432.6616,329299.1381,330065.7496,330832.4117,331599.0562,332365.692,333132.2856,333898.9497,334665.5758,335437.1319
Mixed,Female,ball,12,F_ball.wav,space,12.84047329,4390,328532.5956,335432.1602,336198.8394,336965.4612,323149.4634,323916.0814,324682.8772,325432.6616,329299.1381,330065.7496,330832.4117,331599.0562,332365.692,333132.2856,333898.9497,334665.5758,336203.8702
Mixed,Female,ball,12,M_greet.wav,None,731.8032417,4390,328532.5956,335432.1602,336198.8394,336965.4612,337732.0931,323916.0814,324682.8772,325432.6616,329299.1381,330065.7496,330832.4117,331599.0562,332365.692,333132.2856,333898.9497,334665.5758,336970.4855
Mixed,Female,ball,12,F_priest.wav,space,0.018117276,4390,328532.5956,335432.1602,336198.8394,336965.4612,337732.0931,338498.7747,324682.8772,325432.6616,329299.1381,330065.7496,330832.4117,331599.0562,332365.692,333132.2856,333898.9497,334665.5758,337737.08
Mixed,Female,ball,12,F_ball.wav,None,729.3547795,4390,328532.5956,335432.1602,336198.8394,336965.4612,337732.0931,338498.7747,339265.7711,325432.6616,329299.1381,330065.7496,330832.4117,331599.0562,332365.692,333132.2856,333898.9497,334665.5758,338503.8412
Mixed,Female,ball,12,M_reek.wav,None,727.2140188,4390,328532.5956,335432.1602,336198.8394,336965.4612,337732.0931,338498.7747,339265.7711,340032.1859,329299.1381,330065.7496,330832.4117,331599.0562,332365.692,333132.2856,333898.9497,334665.5758,339271.9485
Mixed,Male,tile,27,M_priest.wav,space,34.6980902,4390,343115.1943,335432.1602,336198.8394,336965.4612,337732.0931,338498.7747,339265.7711,340032.1859,329299.1381,330065.7496,330832.4117,331599.0562,332365.692,333132.2856,333898.9497,334665.5758,340037.7421
Mixed,Male,tile,27,F_dime.wav,None,742.4208421,4390,343115.1943,335432.1602,336198.8394,336965.4612,337732.0931,338498.7747,339265.7711,340032.1859,343881.7912,330065.7496,330832.4117,331599.0562,332365.692,333132.2856,333898.9497,334665.5758,343120.5293
Mixed,Male,tile,27,M_tile.wav,None,741.9337212,4390,343115.1943,335432.1602,336198.8394,336965.4612,337732.0931,338498.7747,339265.7711,340032.1859,343881.7912,344648.3998,330832.4117,331599.0562,332365.692,333132.2856,333898.9497,334665.5758,343886.8576
Mixed,Male,tile,27,F_reek.wav,None,741.1295479,4390,343115.1943,335432.1602,336198.8394,336965.4612,337732.0931,338498.7747,339265.7711,340032.1859,343881.7912,344648.3998,345415.0405,331599.0562,332365.692,333132.2856,333898.9497,334665.5758,344653.5343
Mixed,Male,tile,27,F_priest.wav,space,211.8742381,4390,343115.1943,335432.1602,336198.8394,336965.4612,337732.0931,338498.7747,339265.7711,340032.1859,343881.7912,344648.3998,345415.0405,346181.685,332365.692,333132.2856,333898.9497,334665.5758,345420.0844
Mixed,Male,tile,27,F_reek.wav,None,739.0183008,4390,343115.1943,335432.1602,336198.8394,336965.4612,337732.0931,338498.7747,339265.7711,340032.1859,343881.7912,344648.3998,345415.0405,346181.685,346948.3102,333132.2856,333898.9497,334665.5758,346186.7771
Mixed,Male,tile,27,M_tile.wav,None,738.2047767,4390,343115.1943,335432.1602,336198.8394,336965.4612,337732.0931,338498.7747,339265.7711,340032.1859,343881.7912,344648.3998,345415.0405,346181.685,346948.3102,347714.9138,333898.9497,334665.5758,346953.4649
Mixed,Male,tile,27,F_lash.wav,space,679.6728254,4390,343115.1943,335432.1602,336198.8394,336965.4612,337732.0931,338498.7747,339265.7711,340032.1859,343881.7912,344648.3998,345415.0405,346181.685,346948.3102,347714.9138,348481.5458,334665.5758,347720.0618
Mixed,Male,tile,27,M_jaw.wav,None,736.1546023,4390,343115.1943,335432.1602,336198.8394,336965.4612,337732.0931,338498.7747,339265.7711,340032.1859,343881.7912,344648.3998,345415.0405,346181.685,346948.3102,347714.9138,348481.5458,349248.1891,348486.6032
Mixed,Male,tile,27,M_knife.wav,None,735.1786071,4390,343115.1943,350014.8538,336198.8394,336965.4612,337732.0931,338498.7747,339265.7711,340032.1859,343881.7912,344648.3998,345415.0405,346181.685,346948.3102,347714.9138,348481.5458,349248.1891,349253.489
Mixed,Male,tile,27,M_tile.wav,None,734.8624314,4390,343115.1943,350014.8538,350781.4887,336965.4612,337732.0931,338498.7747,339265.7711,340032.1859,343881.7912,344648.3998,345415.0405,346181.685,346948.3102,347714.9138,348481.5458,349248.1891,350019.8229
Mixed,Male,tile,27,M_cling.wav,space,580.8772736,4390,343115.1943,350014.8538,350781.4887,351548.102,337732.0931,338498.7747,339265.7711,340032.1859,343881.7912,344648.3998,345415.0405,346181.685,346948.3102,347714.9138,348481.5458,349248.1891,350786.6431
Mixed,Male,tile,27,M_tile.wav,None,732.4738731,4390,343115.1943,350014.8538,350781.4887,351548.102,352314.7,338498.7747,339265.7711,340032.1859,343881.7912,344648.3998,345415.0405,346181.685,346948.3102,347714.9138,348481.5458,349248.1891,351553.2391
Mixed,Male,tile,27,F_knife.wav,space,503.5255635,4390,343115.1943,350014.8538,350781.4887,351548.102,352314.7,353081.4228,339265.7711,340032.1859,343881.7912,344648.3998,345415.0405,346181.685,346948.3102,347714.9138,348481.5458,349248.1891,352319.8856
Mixed,Male,tile,27,F_park.wav,None,730.0607688,4390,343115.1943,350014.8538,350781.4887,351548.102,352314.7,353081.4228,353847.9952,340032.1859,343881.7912,344648.3998,345415.0405,346181.685,346948.3102,347714.9138,348481.5458,349248.1891,353086.5401
Mixed,Male,tile,27,F_park.wav,None,729.7153718,4390,343115.1943,350014.8538,350781.4887,351548.102,352314.7,353081.4228,353847.9952,354614.6233,343881.7912,344648.3998,345415.0405,346181.685,346948.3102,347714.9138,348481.5458,349248.1891,353853.0709
Mixed,Female,done,46,F_park.wav,None,729.0622732,4390,357714.4747,350014.8538,350781.4887,351548.102,352314.7,353081.4228,353847.9952,354614.6233,343881.7912,344648.3998,345415.0405,346181.685,346948.3102,347714.9138,348481.5458,349248.1891,354619.6634
Mixed,Female,done,46,F_done.wav,None,743.2331974,4390,357714.4747,350014.8538,350781.4887,351548.102,352314.7,353081.4228,353847.9952,354614.6233,358481.1452,344648.3998,345415.0405,346181.685,346948.3102,347714.9138,348481.5458,349248.1891,357719.6311
Mixed,Female,done,46,F_jolt.wav,space,560.7618373,4390,357714.4747,350014.8538,350781.4887,351548.102,352314.7,353081.4228,353847.9952,354614.6233,358481.1452,359247.7409,345415.0405,346181.685,346948.3102,347714.9138,348481.5458,349248.1891,358486.0894
Mixed,Female,done,46,M_depth.wav,None,740.6444724,4390,357714.4747,350014.8538,350781.4887,351548.102,352314.7,353081.4228,353847.9952,354614.6233,358481.1452,359247.7409,360014.3685,346181.685,346948.3102,347714.9138,348481.5458,349248.1891,359252.9289
Mixed,Female,done,46,M_jaw.wav,None,739.9910816,4390,357714.4747,350014.8538,350781.4887,351548.102,352314.7,353081.4228,353847.9952,354614.6233,358481.1452,359247.7409,360014.3685,360781.022,346948.3102,347714.9138,348481.5458,349248.1891,360019.4159
Mixed,Female,done,46,F_jolt.wav,None,739.1968436,4390,357714.4747,350014.8538,350781.4887,351548.102,352314.7,353081.4228,353847.9952,354614.6233,358481.1452,359247.7409,360014.3685,360781.022,361547.6479,347714.9138,348481.5458,349248.1891,360786.3549
Mixed,Female,done,46,F_done.wav,space,685.8002635,4390,357714.4747,350014.8538,350781.4887,351548.102,352314.7,353081.4228,353847.9952,354614.6233,358481.1452,359247.7409,360014.3685,360781.022,361547.6479,362314.2579,348481.5458,349248.1891,361552.8051
Mixed,Female,done,46,M_romp.wav,None,737.2083265,4390,357714.4747,350014.8538,350781.4887,351548.102,352314.7,353081.4228,353847.9952,354614.6233,358481.1452,359247.7409,360014.3685,360781.022,361547.6479,362314.2579,363080.8682,349248.1891,362319.2556
Mixed,Female,done,46,F_done.wav,None,736.7048415,4390,357714.4747,350014.8538,350781.4887,351548.102,352314.7,353081.4228,353847.9952,354614.6233,358481.1452,359247.7409,360014.3685,360781.022,361547.6479,362314.2579,363080.8682,363847.5449,363085.835
Mixed,Female,done,46,M_reek.wav,None,735.75573,4390,357714.4747,364614.1505,350781.4887,351548.102,352314.7,353081.4228,353847.9952,354614.6233,358481.1452,359247.7409,360014.3685,360781.022,361547.6479,362314.2579,363080.8682,363847.5449,363852.5826
Mixed,Female,done,46,M_depth.wav,None,734.6888562,4390,357714.4747,364614.1505,365380.7474,351548.102,352314.7,353081.4228,353847.9952,354614.6233,358481.1452,359247.7409,360014.3685,360781.022,361547.6479,362314.2579,363080.8682,363847.5449,364619.6015
Mixed,Female,done,46,F_done.wav,space,116.4555127,4390,357714.4747,364614.1505,365380.7474,366147.4226,352314.7,353081.4228,353847.9952,354614.6233,358481.1452,359247.7409,360014.3685,360781.022,361547.6479,362314.2579,363080.8682,363847.5449,365385.8962
Mixed,Female,done,46,M_jaw.wav,None,733.0734965,4390,357714.4747,364614.1505,365380.7474,366147.4226,366914.0341,353081.4228,353847.9952,354614.6233,358481.1452,359247.7409,360014.3685,360781.022,361547.6479,362314.2579,363080.8682,363847.5449,366152.5118
Mixed,Female,done,46,M_lash.wav,space,0.021039417,4390,357714.4747,364614.1505,365380.7474,366147.4226,366914.0341,367680.6778,353847.9952,354614.6233,358481.1452,359247.7409,360014.3685,360781.022,361547.6479,362314.2579,363080.8682,363847.5449,366919.4293
Mixed,Female,done,46,M_lash.wav,None,730.8681565,4390,357714.4747,364614.1505,365380.7474,366147.4226,366914.0341,367680.6778,368447.3018,354614.6233,358481.1452,359247.7409,360014.3685,360781.022,361547.6479,362314.2579,363080.8682,363847.5449,367685.3818
Mixed,Female,done,46,F_cad.wav,None,729.8708297,4390,357714.4747,364614.1505,365380.7474,366147.4226,366914.0341,367680.6778,368447.3018,369213.9045,358481.1452,359247.7409,360014.3685,360781.022,361547.6479,362314.2579,363080.8682,363847.5449,368452.4778
Mixed,Female,cave,24,M_park.wav,None,729.2075036,4390,372313.8403,364614.1505,365380.7474,366147.4226,366914.0341,367680.6778,368447.3018,369213.9045,358481.1452,359247.7409,360014.3685,360781.022,361547.6479,362314.2579,363080.8682,363847.5449,369219.2208
Mixed,Female,cave,24,M_greet.wav,None,742.6966923,4390,372313.8403,364614.1505,365380.7474,366147.4226,366914.0341,367680.6778,368447.3018,369213.9045,373080.4165,359247.7409,360014.3685,360781.022,361547.6479,362314.2579,363080.8682,363847.5449,372318.9763
Mixed,Female,cave,24,F_cave.wav,None,741.8296929,4390,372313.8403,364614.1505,365380.7474,366147.4226,366914.0341,367680.6778,368447.3018,369213.9045,373080.4165,373847.0773,360014.3685,360781.022,361547.6479,362314.2579,363080.8682,363847.5449,373085.8151
Mixed,Female,cave,24,M_cling.wav,None,741.4150411,4390,372313.8403,364614.1505,365380.7474,366147.4226,366914.0341,367680.6778,368447.3018,369213.9045,373080.4165,373847.0773,374613.695,360781.022,361547.6479,362314.2579,363080.8682,363847.5449,373852.1043
Mixed,Female,cave,24,M_park.wav,space,234.7940533,4390,372313.8403,364614.1505,365380.7474,366147.4226,366914.0341,367680.6778,368447.3018,369213.9045,373080.4165,373847.0773,374613.695,375380.3652,361547.6479,362314.2579,363080.8682,363847.5449,374618.816
Mixed,Female,cave,24,M_lash.wav,None,738.6571241,4390,372313.8403,364614.1505,365380.7474,366147.4226,366914.0341,367680.6778,368447.3018,369213.9045,373080.4165,373847.0773,374613.695,375380.3652,376146.9641,362314.2579,363080.8682,363847.5449,375385.6002
Mixed,Female,cave,24,F_jaw.wav,None,738.1136058,4390,372313.8403,364614.1505,365380.7474,366147.4226,366914.0341,367680.6778,368447.3018,369213.9045,373080.4165,373847.0773,374613.695,375380.3652,376146.9641,376913.5785,363080.8682,363847.5449,376152.2631
Mixed,Female,cave,24,M_bluff.wav,None,737.9876616,4390,372313.8403,364614.1505,365380.7474,366147.4226,366914.0341,367680.6778,368447.3018,369213.9045,373080.4165,373847.0773,374613.695,375380.3652,376146.9641,376913.5785,377680.2137,363847.5449,376918.6233
Mixed,Female,cave,24,F_cave.wav,None,737.4064476,4390,372313.8403,364614.1505,365380.7474,366147.4226,366914.0341,367680.6778,368447.3018,369213.9045,373080.4165,373847.0773,374613.695,375380.3652,376146.9641,376913.5785,377680.2137,378446.8077,377685.2652
Mixed,Female,cave,24,F_romp.wav,None,736.7995189,4390,372313.8403,379213.4896,365380.7474,366147.4226,366914.0341,367680.6778,368447.3018,369213.9045,373080.4165,373847.0773,374613.695,375380.3652,376146.9641,376913.5785,377680.2137,378446.8077,378451.889
Mixed,Female,cave,24,F_priest.wav,space,226.6713772,4390,372313.8403,379213.4896,379980.1557,366147.4226,366914.0341,367680.6778,368447.3018,369213.9045,373080.4165,373847.0773,374613.695,375380.3652,376146.9641,376913.5785,377680.2137,378446.8077,379218.6042
Mixed,Female,cave,24,F_jaw.wav,None,734.2479051,4390,372313.8403,379213.4896,379980.1557,380746.7237,366914.0341,367680.6778,368447.3018,369213.9045,373080.4165,373847.0773,374613.695,375380.3652,376146.9641,376913.5785,377680.2137,378446.8077,379985.2341
Mixed,Female,cave,24,F_cave.wav,None,733.7829924,4390,372313.8403,379213.4896,379980.1557,380746.7237,381513.3732,367680.6778,368447.3018,369213.9045,373080.4165,373847.0773,374613.695,375380.3652,376146.9641,376913.5785,377680.2137,378446.8077,380751.708
Mixed,Female,cave,24,M_cad.wav,space,662.6761905,4390,372313.8403,379213.4896,379980.1557,380746.7237,381513.3732,382279.9984,368447.3018,369213.9045,373080.4165,373847.0773,374613.695,375380.3652,376146.9641,376913.5785,377680.2137,378446.8077,381518.3548
Mixed,Female,cave,24,F_cave.wav,None,731.0177701,4390,372313.8403,379213.4896,379980.1557,380746.7237,381513.3732,382279.9984,383046.616,369213.9045,373080.4165,373847.0773,374613.695,375380.3652,376146.9641,376913.5785,377680.2137,378446.8077,382285.3895
Mixed,Female,cave,24,M_romp.wav,None,730.9073132,4390,372313.8403,379213.4896,379980.1557,380746.7237,381513.3732,382279.9984,383046.616,383813.2796,373080.4165,373847.0773,374613.695,375380.3652,376146.9641,376913.5785,377680.2137,378446.8077,383051.7798
Mixed,Female,tile,36,M_cling.wav,space,138.5217705,4390,386913.0943,379213.4896,379980.1557,380746.7237,381513.3732,382279.9984,383046.616,383813.2796,373080.4165,373847.0773,374613.695,375380.3652,376146.9641,376913.5785,377680.2137,378446.8077,383818.3623
Mixed,Female,tile,36,M_cad.wav,None,743.2030993,4390,386913.0943,379213.4896,379980.1557,380746.7237,381513.3732,382279.9984,383046.616,383813.2796,387679.7339,373847.0773,374613.695,375380.3652,376146.9641,376913.5785,377680.2137,378446.8077,386918.4544
Mixed,Female,tile,36,F_tile.wav,None,742.9772178,4390,386913.0943,379213.4896,379980.1557,380746.7237,381513.3732,382279.9984,383046.616,383813.2796,387679.7339,388446.3819,374613.695,375380.3652,376146.9641,376913.5785,377680.2137,378446.8077,387684.8921
Mixed,Female,tile,36,M_cad.wav,None,742.5312991,4390,386913.0943,379213.4896,379980.1557,380746.7237,381513.3732,382279.9984,383046.616,383813.2796,387679.7339,388446.3819,389212.9864,375380.3652,376146.9641,376913.5785,377680.2137,378446.8077,388451.6839
Mixed,Female,tile,36,F_tile.wav,space,170.4449954,4390,386913.0943,379213.4896,379980.1557,380746.7237,381513.3732,382279.9984,383046.616,383813.2796,387679.7339,388446.3819,389212.9864,389979.697,376146.9641,376913.5785,377680.2137,378446.8077,389218.0297
Mixed,Female,tile,36,M_knife.wav,None,741.0126622,4390,386913.0943,379213.4896,379980.1557,380746.7237,381513.3732,382279.9984,383046.616,383813.2796,387679.7339,388446.3819,389212.9864,389979.697,390746.2445,376913.5785,377680.2137,378446.8077,389984.6538
Mixed,Female,tile,36,M_dime.wav,space,100.8439729,4390,386913.0943,379213.4896,379980.1557,380746.7237,381513.3732,382279.9984,383046.616,383813.2796,387679.7339,388446.3819,389212.9864,389979.697,390746.2445,391512.8779,377680.2137,378446.8077,390751.5192
Mixed,Female,tile,36,F_jolt.wav,None,739.1603169,4390,386913.0943,379213.4896,379980.1557,380746.7237,381513.3732,382279.9984,383046.616,383813.2796,387679.7339,388446.3819,389212.9864,389979.697,390746.2445,391512.8779,392279.5098,378446.8077,391518.013
Mixed,Female,tile,36,F_bluff.wav,None,738.9844039,4390,386913.0943,379213.4896,379980.1557,380746.7237,381513.3732,382279.9984,383046.616,383813.2796,387679.7339,388446.3819,389212.9864,389979.697,390746.2445,391512.8779,392279.5098,393046.1538,392284.4062
Mixed,Female,tile,36,M_cad.wav,None,738.3406562,4390,386913.0943,393812.7454,379980.1557,380746.7237,381513.3732,382279.9984,383046.616,383813.2796,387679.7339,388446.3819,389212.9864,389979.697,390746.2445,391512.8779,392279.5098,393046.1538,393051.4008
Mixed,Female,tile,36,F_tile.wav,None,737.9783107,4390,386913.0943,393812.7454,394579.394,380746.7237,381513.3732,382279.9984,383046.616,383813.2796,387679.7339,388446.3819,389212.9864,389979.697,390746.2445,391512.8779,392279.5098,393046.1538,393817.8629
Mixed,Female,tile,36,F_park.wav,space,579.6672149,4390,386913.0943,393812.7454,394579.394,395346.0394,381513.3732,382279.9984,383046.616,383813.2796,387679.7339,388446.3819,389212.9864,389979.697,390746.2445,391512.8779,392279.5098,393046.1538,394584.3426
Mixed,Female,tile,36,F_gnash.wav,None,735.9795661,4390,386913.0943,393812.7454,394579.394,395346.0394,396112.6307,382279.9984,383046.616,383813.2796,387679.7339,388446.3819,389212.9864,389979.697,390746.2445,391512.8779,392279.5098,393046.1538,395351.2198
Mixed,Female,tile,36,F_tile.wav,None,735.7013782,4390,386913.0943,393812.7454,394579.394,395346.0394,396112.6307,396879.2802,383046.616,383813.2796,387679.7339,388446.3819,389212.9864,389979.697,390746.2445,391512.8779,392279.5098,393046.1538,396117.8155
Mixed,Female,tile,36,M_reek.wav,None,735.4091641,4390,386913.0943,393812.7454,394579.394,395346.0394,396112.6307,396879.2802,397645.9247,383813.2796,387679.7339,388446.3819,389212.9864,389979.697,390746.2445,391512.8779,392279.5098,393046.1538,396884.3282
Mixed,Female,tile,36,M_cling.wav,space,552.8364057,4390,386913.0943,393812.7454,394579.394,395346.0394,396112.6307,396879.2802,397645.9247,398412.5389,387679.7339,388446.3819,389212.9864,389979.697,390746.2445,391512.8779,392279.5098,393046.1538,397650.9298
Mixed,Male,ball,2,M_lash.wav,None,733.4077895,4390,401512.4033,393812.7454,394579.394,395346.0394,396112.6307,396879.2802,397645.9247,398412.5389,387679.7339,388446.3819,389212.9864,389979.697,390746.2445,391512.8779,392279.5098,393046.1538,398417.7826
Mixed,Male,ball,2,M_ball.wav,None,742.6277297,4390,401512.4033,393812.7454,394579.394,395346.0394,396112.6307,396879.2802,397645.9247,398412.5389,402279.0326,388446.3819,389212.9864,389979.697,390746.2445,391512.8779,392279.5098,393046.1538,401517.5971
Mixed,Male,ball,2,F_cling.wav,space,655.2425553,4390,401512.4033,393812.7454,394579.394,395346.0394,396112.6307,396879.2802,397645.9247,398412.5389,402279.0326,403045.6617,389212.9864,389979.697,390746.2445,391512.8779,392279.5098,393046.1538,402284.0596
Mixed,Male,ball,2,F_cling.wav,None,740.7029152,4390,401512.4033,393812.7454,394579.394,395346.0394,396112.6307,396879.2802,397645.9247,398412.5389,402279.0326,403045.6617,403812.3074,389979.697,390746.2445,391512.8779,392279.5098,393046.1538,403050.6284
Mixed,Male,ball,2,M_ball.wav,None,740.1950471,4390,401512.4033,393812.7454,394579.394,395346.0394,396112.6307,396879.2802,397645.9247,398412.5389,402279.0326,403045.6617,403812.3074,404578.9253,390746.2445,391512.8779,392279.5098,393046.1538,403817.287
Mixed,Male,ball,2,M_park.wav,space,618.9057282,4390,401512.4033,393812.7454,394579.394,395346.0394,396112.6307,396879.2802,397645.9247,398412.5389,402279.0326,403045.6617,403812.3074,404578.9253,405345.58,391512.8779,392279.5098,393046.1538,404584.2979
Mixed,Male,ball,2,M_ball.wav,None,737.7249611,4390,401512.4033,393812.7454,394579.394,395346.0394,396112.6307,396879.2802,397645.9247,398412.5389,402279.0326,403045.6617,403812.3074,404578.9253,405345.58,406112.1997,392279.5098,393046.1538,405350.7671
Mixed,Male,ball,2,M_dime.wav,space,581.708915,4390,401512.4033,393812.7454,394579.394,395346.0394,396112.6307,396879.2802,397645.9247,398412.5389,402279.0326,403045.6617,403812.3074,404578.9253,405345.58,406112.1997,406878.8127,393046.1538,406117.3336
Mixed,Male,ball,2,M_ball.wav,None,735.750178,4390,401512.4033,393812.7454,394579.394,395346.0394,396112.6307,396879.2802,397645.9247,398412.5389,402279.0326,403045.6617,403812.3074,404578.9253,405345.58,406112.1997,406878.8127,407645.4467,406883.8843
Mixed,Male,ball,2,F_knife.wav,space,552.9088748,4390,401512.4033,408412.0859,394579.394,395346.0394,396112.6307,396879.2802,397645.9247,398412.5389,402279.0326,403045.6617,403812.3074,404578.9253,405345.58,406112.1997,406878.8127,407645.4467,407650.113
Mixed,Male,ball,2,F_reek.wav,None,733.3227552,4390,401512.4033,408412.0859,409178.6723,395346.0394,396112.6307,396879.2802,397645.9247,398412.5389,402279.0326,403045.6617,403812.3074,404578.9253,405345.58,406112.1997,406878.8127,407645.4467,408417.5047
Mixed,Male,ball,2,F_gnash.wav,None,733.2111294,4390,401512.4033,408412.0859,409178.6723,409945.3329,396112.6307,396879.2802,397645.9247,398412.5389,402279.0326,403045.6617,403812.3074,404578.9253,405345.58,406112.1997,406878.8127,407645.4467,409183.905
Mixed,Male,ball,2,M_reek.wav,None,732.8920316,4390,401512.4033,408412.0859,409178.6723,409945.3329,410712.0765,396879.2802,397645.9247,398412.5389,402279.0326,403045.6617,403812.3074,404578.9253,405345.58,406112.1997,406878.8127,407645.4467,409950.3739
Mixed,Male,ball,2,F_knife.wav,None,732.7938476,4390,401512.4033,408412.0859,409178.6723,409945.3329,410712.0765,411478.6085,397645.9247,398412.5389,402279.0326,403045.6617,403812.3074,404578.9253,405345.58,406112.1997,406878.8127,407645.4467,410717.0841
Mixed,Male,ball,2,F_priest.wav,None,732.5597841,4390,401512.4033,408412.0859,409178.6723,409945.3329,410712.0765,411478.6085,412245.1887,398412.5389,402279.0326,403045.6617,403812.3074,404578.9253,405345.58,406112.1997,406878.8127,407645.4467,411483.5276
Mixed,Male,ball,2,F_jaw.wav,None,731.9882133,4390,401512.4033,408412.0859,409178.6723,409945.3329,410712.0765,411478.6085,412245.1887,413011.8353,402279.0326,403045.6617,403812.3074,404578.9253,405345.58,406112.1997,406878.8127,407645.4467,412250.3545
Mixed,Female,cave,23,F_dime.wav,None,731.6843106,4390,416128.4246,408412.0859,409178.6723,409945.3329,410712.0765,411478.6085,412245.1887,413011.8353,402279.0326,403045.6617,403812.3074,404578.9253,405345.58,406112.1997,406878.8127,407645.4467,413016.9321
Mixed,Female,cave,23,F_cave.wav,None,742.6551979,4390,416128.4246,408412.0859,409178.6723,409945.3329,410712.0765,411478.6085,412245.1887,413011.8353,416895.0048,403045.6617,403812.3074,404578.9253,405345.58,406112.1997,406878.8127,407645.4467,416133.4942
Mixed,Female,cave,23,F_knife.wav,None,742.0146645,4390,416128.4246,408412.0859,409178.6723,409945.3329,410712.0765,411478.6085,412245.1887,413011.8353,416895.0048,417661.633,403812.3074,404578.9253,405345.58,406112.1997,406878.8127,407645.4467,416900.3132
Mixed,Female,cave,23,M_cad.wav,None,742.173629,4390,416128.4246,408412.0859,409178.6723,409945.3329,410712.0765,411478.6085,412245.1887,413011.8353,416895.0048,417661.633,418428.2755,404578.9253,405345.58,406112.1997,406878.8127,407645.4467,417666.579
Mixed,Female,cave,23,M_bluff.wav,None,741.6531956,4390,416128.4246,408412.0859,409178.6723,409945.3329,410712.0765,411478.6085,412245.1887,413011.8353,416895.0048,417661.633,418428.2755,419194.8867,405345.58,406112.1997,406878.8127,407645.4467,418433.3214
Mixed,Female,cave,23,F_cave.wav,None,741.3174416,4390,416128.4246,408412.0859,409178.6723,409945.3329,410712.0765,411478.6085,412245.1887,413011.8353,416895.0048,417661.633,418428.2755,419194.8867,419961.5274,406112.1997,406878.8127,407645.4467,419200.1357
Mixed,Female,cave,23,M_bluff.wav,space,691.406976,4390,416128.4246,408412.0859,409178.6723,409945.3329,410712.0765,411478.6085,412245.1887,413011.8353,416895.0048,417661.633,418428.2755,419194.8867,419961.5274,420728.2122,406878.8127,407645.4467,419966.5549
Mixed,Female,cave,23,M_priest.wav,None,739.303794,4390,416128.4246,408412.0859,409178.6723,409945.3329,410712.0765,411478.6085,412245.1887,413011.8353,416895.0048,417661.633,418428.2755,419194.8867,419961.5274,420728.2122,421494.7878,407645.4467,420733.4358
Mixed,Female,cave,23,F_cave.wav,None,739.5437018,4390,416128.4246,408412.0859,409178.6723,409945.3329,410712.0765,411478.6085,412245.1887,413011.8353,416895.0048,417661.633,418428.2755,419194.8867,419961.5274,420728.2122,421494.7878,422261.4408,421499.7908
Mixed,Female,cave,23,F_jolt.wav,space,607.2043056,4390,416128.4246,423028.0637,409178.6723,409945.3329,410712.0765,411478.6085,412245.1887,413011.8353,416895.0048,417661.633,418428.2755,419194.8867,419961.5274,420728.2122,421494.7878,422261.4408,422266.6133
Mixed,Female,cave,23,F_cave.wav,None,737.4175518,4390,416128.4246,423028.0637,423794.693,409945.3329,410712.0765,411478.6085,412245.1887,413011.8353,416895.0048,417661.633,418428.2755,419194.8867,419961.5274,420728.2122,421494.7878,422261.4408,423033.2697
Mixed,Female,cave,23,M_lash.wav,None,737.4195973,4390,416128.4246,423028.0637,423794.693,424561.3077,410712.0765,411478.6085,412245.1887,413011.8353,416895.0048,417661.633,418428.2755,419194.8867,419961.5274,420728.2122,421494.7878,422261.4408,423799.7462
Mixed,Female,cave,23,M_jolt.wav,space,83.29592992,4390,416128.4246,423028.0637,423794.693,424561.3077,425327.9402,411478.6085,412245.1887,413011.8353,416895.0048,417661.633,418428.2755,419194.8867,419961.5274,420728.2122,421494.7878,422261.4408,424566.3393
Mixed,Female,cave,23,M_knife.wav,space,0.021039417,4390,416128.4246,423028.0637,423794.693,424561.3077,425327.9402,426094.6166,412245.1887,413011.8353,416895.0048,417661.633,418428.2755,419194.8867,419961.5274,420728.2122,421494.7878,422261.4408,425332.8877
Mixed,Female,cave,23,M_cling.wav,None,733.0334632,4390,416128.4246,423028.0637,423794.693,424561.3077,425327.9402,426094.6166,426861.1571,413011.8353,416895.0048,417661.633,418428.2755,419194.8867,419961.5274,420728.2122,421494.7878,422261.4408,426100.0798
Mixed,Female,cave,23,F_cad.wav,None,733.2748321,4390,416128.4246,423028.0637,423794.693,424561.3077,425327.9402,426094.6166,426861.1571,427627.8288,416895.0048,417661.633,418428.2755,419194.8867,419961.5274,420728.2122,421494.7878,422261.4408,426866.2109
Mixed,Female,tile,33,M_cling.wav,None,732.7330671,4390,430744.452,423028.0637,423794.693,424561.3077,425327.9402,426094.6166,426861.1571,427627.8288,416895.0048,417661.633,418428.2755,419194.8867,419961.5274,420728.2122,421494.7878,422261.4408,427632.9037
Mixed,Female,tile,33,M_depth.wav,None,742.5497085,4390,430744.452,423028.0637,423794.693,424561.3077,425327.9402,426094.6166,426861.1571,427627.8288,431510.9773,417661.633,418428.2755,419194.8867,419961.5274,420728.2122,421494.7878,422261.4408,430749.5903
Mixed,Female,tile,33,M_dime.wav,None,742.228273,4390,430744.452,423028.0637,423794.693,424561.3077,425327.9402,426094.6166,426861.1571,427627.8288,431510.9773,432277.6002,418428.2755,419194.8867,419961.5274,420728.2122,421494.7878,422261.4408,431516.2363
Mixed,Female,tile,33,M_gnash.wav,None,742.2943134,4390,430744.452,423028.0637,423794.693,424561.3077,425327.9402,426094.6166,426861.1571,427627.8288,431510.9773,432277.6002,433044.2602,419194.8867,419961.5274,420728.2122,421494.7878,422261.4408,432282.5784
Mixed,Female,tile,33,F_tile.wav,None,742.0871336,4390,430744.452,423028.0637,423794.693,424561.3077,425327.9402,426094.6166,426861.1571,427627.8288,431510.9773,432277.6002,433044.2602,433810.91,419961.5274,420728.2122,421494.7878,422261.4408,433049.2252
Mixed,Female,tile,33,M_priest.wav,space,664.6898381,4390,430744.452,423028.0637,423794.693,424561.3077,425327.9402,426094.6166,426861.1571,427627.8288,431510.9773,432277.6002,433044.2602,433810.91,434577.4785,420728.2122,421494.7878,422261.4408,433816.0673
Mixed,Female,tile,33,F_tile.wav,None,739.7865317,4390,430744.452,423028.0637,423794.693,424561.3077,425327.9402,426094.6166,426861.1571,427627.8288,431510.9773,432277.6002,433044.2602,433810.91,434577.4785,435344.1315,421494.7878,422261.4408,434582.7863
Mixed,Female,tile,33,M_jaw.wav,space,507.5087343,4390,430744.452,423028.0637,423794.693,424561.3077,425327.9402,426094.6166,426861.1571,427627.8288,431510.9773,432277.6002,433044.2602,433810.91,434577.4785,435344.1315,436110.7687,422261.4408,435349.2432
Mixed,Female,tile,33,F_tile.wav,None,738.2477321,4390,430744.452,423028.0637,423794.693,424561.3077,425327.9402,426094.6166,426861.1571,427627.8288,431510.9773,432277.6002,433044.2602,433810.91,434577.4785,435344.1315,436110.7687,436877.3682,436115.9187
Mixed,Female,tile,33,F_park.wav,None,738.2015623,4390,430744.452,437644.0239,423794.693,424561.3077,425327.9402,426094.6166,426861.1571,427627.8288,431510.9773,432277.6002,433044.2602,433810.91,434577.4785,435344.1315,436110.7687,436877.3682,436882.5174
Mixed,Female,tile,33,M_reek.wav,space,7.599028446,4390,430744.452,437644.0239,438410.683,424561.3077,425327.9402,426094.6166,426861.1571,427627.8288,431510.9773,432277.6002,433044.2602,433810.91,434577.4785,435344.1315,436110.7687,436877.3682,437649.0616
Mixed,Female,tile,33,F_knife.wav,None,736.2849298,4390,430744.452,437644.0239,438410.683,439177.2796,425327.9402,426094.6166,426861.1571,427627.8288,431510.9773,432277.6002,433044.2602,433810.91,434577.4785,435344.1315,436110.7687,436877.3682,438415.7386
Mixed,Female,tile,33,F_tile.wav,None,736.1394072,4390,430744.452,437644.0239,438410.683,439177.2796,439943.93,426094.6166,426861.1571,427627.8288,431510.9773,432277.6002,433044.2602,433810.91,434577.4785,435344.1315,436110.7687,436877.3682,439182.4325
Mixed,Female,tile,33,M_bluff.wav,space,651.3303925,4390,430744.452,437644.0239,438410.683,439177.2796,439943.93,440710.5812,426861.1571,427627.8288,431510.9773,432277.6002,433044.2602,433810.91,434577.4785,435344.1315,436110.7687,436877.3682,439949.0723
Mixed,Female,tile,33,F_jaw.wav,None,734.1692995,4390,430744.452,437644.0239,438410.683,439177.2796,439943.93,440710.5812,441477.1366,427627.8288,431510.9773,432277.6002,433044.2602,433810.91,434577.4785,435344.1315,436110.7687,436877.3682,440715.8177
Mixed,Female,tile,33,F_dime.wav,None,734.5839514,4390,430744.452,437644.0239,438410.683,439177.2796,439943.93,440710.5812,441477.1366,442243.8062,431510.9773,432277.6002,433044.2602,433810.91,434577.4785,435344.1315,436110.7687,436877.3682,441482.2281
Mixed,Male,ball,4,M_depth.wav,None,734.3983954,4390,445360.2986,437644.0239,438410.683,439177.2796,439943.93,440710.5812,441477.1366,442243.8062,431510.9773,432277.6002,433044.2602,433810.91,434577.4785,435344.1315,436110.7687,436877.3682,442248.8466
Mixed,Male,ball,4,F_park.wav,None,743.3600183,4390,445360.2986,437644.0239,438410.683,439177.2796,439943.93,440710.5812,441477.1366,442243.8062,446126.986,432277.6002,433044.2602,433810.91,434577.4785,435344.1315,436110.7687,436877.3682,445365.4123
Mixed,Male,ball,4,M_ball.wav,None,743.1867354,4390,445360.2986,437644.0239,438410.683,439177.2796,439943.93,440710.5812,441477.1366,442243.8062,446126.986,446893.5823,433044.2602,433810.91,434577.4785,435344.1315,436110.7687,436877.3682,446132.0413
Mixed,Male,ball,4,M_knife.wav,space,605.0208816,4390,445360.2986,437644.0239,438410.683,439177.2796,439943.93,440710.5812,441477.1366,442243.8062,446126.986,446893.5823,447660.2274,433810.91,434577.4785,435344.1315,436110.7687,436877.3682,446898.827
Mixed,Male,ball,4,F_gnash.wav,None,741.1947116,4390,445360.2986,437644.0239,438410.683,439177.2796,439943.93,440710.5812,441477.1366,442243.8062,446126.986,446893.5823,447660.2274,448426.8322,434577.4785,435344.1315,436110.7687,436877.3682,447665.2597
Mixed,Male,ball,4,F_cad.wav,None,741.4150411,4390,445360.2986,437644.0239,438410.683,439177.2796,439943.93,440710.5812,441477.1366,442243.8062,446126.986,446893.5823,447660.2274,448426.8322,449193.4674,435344.1315,436110.7687,436877.3682,448431.8282
Mixed,Male,ball,4,M_depth.wav,None,740.6652196,4390,445360.2986,437644.0239,438410.683,439177.2796,439943.93,440710.5812,441477.1366,442243.8062,446126.986,446893.5823,447660.2274,448426.8322,449193.4674,449960.104,436110.7687,436877.3682,449198.8736
Mixed,Male,ball,4,M_greet.wav,None,741.222472,4390,445360.2986,437644.0239,438410.683,439177.2796,439943.93,440710.5812,441477.1366,442243.8062,446126.986,446893.5823,447660.2274,448426.8322,449193.4674,449960.104,450726.7336,436877.3682,449965.1351
Mixed,Male,ball,4,M_ball.wav,None,741.1388987,4390,445360.2986,437644.0239,438410.683,439177.2796,439943.93,440710.5812,441477.1366,442243.8062,446126.986,446893.5823,447660.2274,448426.8322,449193.4674,449960.104,450726.7336,451493.3261,450731.765
Mixed,Male,ball,4,F_knife.wav,space,581.0862067,4390,445360.2986,452259.9858,438410.683,439177.2796,439943.93,440710.5812,441477.1366,442243.8062,446126.986,446893.5823,447660.2274,448426.8322,449193.4674,449960.104,450726.7336,451493.3261,451498.3881
Mixed,Male,ball,4,M_ball.wav,None,739.5875339,4390,445360.2986,452259.9858,453026.6298,439177.2796,439943.93,440710.5812,441477.1366,442243.8062,446126.986,446893.5823,447660.2274,448426.8322,449193.4674,449960.104,450726.7336,451493.3261,452264.9462
Mixed,Male,ball,4,F_lash.wav,None,739.0969064,4390,445360.2986,452259.9858,453026.6298,453793.2363,439943.93,440710.5812,441477.1366,442243.8062,446126.986,446893.5823,447660.2274,448426.8322,449193.4674,449960.104,450726.7336,451493.3261,453031.9568
Mixed,Male,ball,4,F_romp.wav,None,739.3990558,4390,445360.2986,452259.9858,453026.6298,453793.2363,454559.8867,440710.5812,441477.1366,442243.8062,446126.986,446893.5823,447660.2274,448426.8322,449193.4674,449960.104,450726.7336,451493.3261,453798.1896
Mixed,Male,ball,4,F_reek.wav,space,178.333608,4390,445360.2986,452259.9858,453026.6298,453793.2363,454559.8867,455326.5402,441477.1366,442243.8062,446126.986,446893.5823,447660.2274,448426.8322,449193.4674,449960.104,450726.7336,451493.3261,454564.9259
Mixed,Male,ball,4,M_ball.wav,None,737.438299,4390,445360.2986,452259.9858,453026.6298,453793.2363,454559.8867,455326.5402,456093.1368,442243.8062,446126.986,446893.5823,447660.2274,448426.8322,449193.4674,449960.104,450726.7336,451493.3261,455331.7422
Mixed,Male,ball,4,F_reek.wav,space,572.8247288,4390,445360.2986,452259.9858,453026.6298,453793.2363,454559.8867,455326.5402,456093.1368,456859.7775,446126.986,446893.5823,447660.2274,448426.8322,449193.4674,449960.104,450726.7336,451493.3261,456098.2614
Mixed,Male,done,42,M_jaw.wav,None,735.7709252,4390,459976.2947,452259.9858,453026.6298,453793.2363,454559.8867,455326.5402,456093.1368,456859.7775,446126.986,446893.5823,447660.2274,448426.8322,449193.4674,449960.104,450726.7336,451493.3261,456864.9413
Mixed,Male,done,42,F_jolt.wav,None,743.3030366,4390,459976.2947,452259.9858,453026.6298,453793.2363,454559.8867,455326.5402,456093.1368,456859.7775,460742.9395,446893.5823,447660.2274,448426.8322,449193.4674,449960.104,450726.7336,451493.3261,459981.3433
Mixed,Male,done,42,F_knife.wav,space,738.5174458,4390,459976.2947,452259.9858,453026.6298,453793.2363,454559.8867,455326.5402,456093.1368,456859.7775,460742.9395,461509.5577,447660.2274,448426.8322,449193.4674,449960.104,450726.7336,451493.3261,460748.1742
Mixed,Male,done,42,M_jaw.wav,None,741.6198832,4390,459976.2947,452259.9858,453026.6298,453793.2363,454559.8867,455326.5402,456093.1368,456859.7775,460742.9395,461509.5577,462276.1684,448426.8322,449193.4674,449960.104,450726.7336,451493.3261,461514.5251
Mixed,Male,done,42,M_romp.wav,None,741.3817287,4390,459976.2947,452259.9858,453026.6298,453793.2363,454559.8867,455326.5402,456093.1368,456859.7775,460742.9395,461509.5577,462276.1684,463042.831,449193.4674,449960.104,450726.7336,451493.3261,462281.302
Mixed,Male,done,42,F_priest.wav,None,741.5108873,4390,459976.2947,452259.9858,453026.6298,453793.2363,454559.8867,455326.5402,456093.1368,456859.7775,460742.9395,461509.5577,462276.1684,463042.831,463809.491,449960.104,450726.7336,451493.3261,463047.7647
Mixed,Male,done,42,F_jaw.wav,None,741.1727956,4390,459976.2947,452259.9858,453026.6298,453793.2363,454559.8867,455326.5402,456093.1368,456859.7775,460742.9395,461509.5577,462276.1684,463042.831,463809.491,464576.092,450726.7336,451493.3261,463814.6316
Mixed,Male,done,42,M_done.wav,None,741.5319267,4390,459976.2947,452259.9858,453026.6298,453793.2363,454559.8867,455326.5402,456093.1368,456859.7775,460742.9395,461509.5577,462276.1684,463042.831,463809.491,464576.092,465342.6962,451493.3261,464581.066
Mixed,Male,done,42,F_cad.wav,space,634.4623318,4390,459976.2947,452259.9858,453026.6298,453793.2363,454559.8867,455326.5402,456093.1368,456859.7775,460742.9395,461509.5577,462276.1684,463042.831,463809.491,464576.092,465342.6962,466109.3611,465347.7839
Mixed,Male,done,42,M_done.wav,None,739.8037724,4390,459976.2947,466875.9463,453026.6298,453793.2363,454559.8867,455326.5402,456093.1368,456859.7775,460742.9395,461509.5577,462276.1684,463042.831,463809.491,464576.092,465342.6962,466109.3611,466114.4448
Mixed,Male,done,42,F_knife.wav,None,739.6658473,4390,459976.2947,466875.9463,467642.5979,453793.2363,454559.8867,455326.5402,456093.1368,456859.7775,460742.9395,461509.5577,462276.1684,463042.831,463809.491,464576.092,465342.6962,466109.3611,466881.049
Mixed,Male,done,42,M_done.wav,space,110.5980805,4390,459976.2947,466875.9463,467642.5979,468409.2453,454559.8867,455326.5402,456093.1368,456859.7775,460742.9395,461509.5577,462276.1684,463042.831,463809.491,464576.092,465342.6962,466109.3611,467647.6251
Mixed,Male,done,42,F_priest.wav,space,623.7494696,4390,459976.2947,466875.9463,467642.5979,468409.2453,469175.8273,455326.5402,456093.1368,456859.7775,460742.9395,461509.5577,462276.1684,463042.831,463809.491,464576.092,465342.6962,466109.3611,468414.3412
Mixed,Male,done,42,M_park.wav,None,735.9012527,4390,459976.2947,466875.9463,467642.5979,468409.2453,469175.8273,469942.4829,456093.1368,456859.7775,460742.9395,461509.5577,462276.1684,463042.831,463809.491,464576.092,465342.6962,466109.3611,469180.9942
Mixed,Male,done,42,M_done.wav,None,735.9687541,4390,459976.2947,466875.9463,467642.5979,468409.2453,469175.8273,469942.4829,470709.1096,456859.7775,460742.9395,461509.5577,462276.1684,463042.831,463809.491,464576.092,465342.6962,466109.3611,469947.5216
Mixed,Male,done,42,F_jaw.wav,None,736.0391777,4390,459976.2947,466875.9463,467642.5979,468409.2453,469175.8273,469942.4829,470709.1096,471475.7626,460742.9395,461509.5577,462276.1684,463042.831,463809.491,464576.092,465342.6962,466109.3611,470714.3566
Mixed,Female,cave,19,F_depth.wav,space,125.0562512,4390,474575.5894,466875.9463,467642.5979,468409.2453,469175.8273,469942.4829,470709.1096,471475.7626,460742.9395,461509.5577,462276.1684,463042.831,463809.491,464576.092,465342.6962,466109.3611,471480.8392
Mixed,Female,cave,19,M_priest.wav,None,743.006147,4390,474575.5894,466875.9463,467642.5979,468409.2453,469175.8273,469942.4829,470709.1096,471475.7626,475342.2088,461509.5577,462276.1684,463042.831,463809.491,464576.092,465342.6962,466109.3611,474580.5555
Mixed,Female,cave,19,F_cling.wav,None,742.3448664,4390,474575.5894,466875.9463,467642.5979,468409.2453,469175.8273,469942.4829,470709.1096,471475.7626,475342.2088,476108.8761,462276.1684,463042.831,463809.491,464576.092,465342.6962,466109.3611,475347.7167
Mixed,Female,cave,19,M_romp.wav,None,742.9675748,4390,474575.5894,466875.9463,467642.5979,468409.2453,469175.8273,469942.4829,470709.1096,471475.7626,475342.2088,476108.8761,476875.5247,463042.831,463809.491,464576.092,465342.6962,466109.3611,476113.9875
Mixed,Female,cave,19,F_cave.wav,None,742.9208205,4390,474575.5894,466875.9463,467642.5979,468409.2453,469175.8273,469942.4829,470709.1096,471475.7626,475342.2088,476108.8761,476875.5247,477642.1227,463809.491,464576.092,465342.6962,466109.3611,476880.5934
Mixed,Female,cave,19,M_park.wav,None,743.0084847,4390,474575.5894,466875.9463,467642.5979,468409.2453,469175.8273,469942.4829,470709.1096,471475.7626,475342.2088,476108.8761,476875.5247,477642.1227,478408.7772,464576.092,465342.6962,466109.3611,477647.2055
Mixed,Female,cave,19,M_lash.wav,space,151.4738696,4390,474575.5894,466875.9463,467642.5979,468409.2453,469175.8273,469942.4829,470709.1096,471475.7626,475342.2088,476108.8761,476875.5247,477642.1227,478408.7772,479175.3635,465342.6962,466109.3611,478413.8605
Mixed,Female,cave,19,F_cave.wav,None,741.2499401,4390,474575.5894,466875.9463,467642.5979,468409.2453,469175.8273,469942.4829,470709.1096,471475.7626,475342.2088,476108.8761,476875.5247,477642.1227,478408.7772,479175.3635,479941.9961,466109.3611,479180.4329
Mixed,Female,cave,19,M_knife.wav,None,741.0632153,4390,474575.5894,466875.9463,467642.5979,468409.2453,469175.8273,469942.4829,470709.1096,471475.7626,475342.2088,476108.8761,476875.5247,477642.1227,478408.7772,479175.3635,479941.9961,480708.6441,479947.2518
Mixed,Female,cave,19,F_cave.wav,space,75.77813701,4390,474575.5894,481475.2746,467642.5979,468409.2453,469175.8273,469942.4829,470709.1096,471475.7626,475342.2088,476108.8761,476875.5247,477642.1227,478408.7772,479175.3635,479941.9961,480708.6441,480713.4069
Mixed,Female,cave,19,F_romp.wav,None,739.7102638,4390,474575.5894,481475.2746,482241.8689,468409.2453,469175.8273,469942.4829,470709.1096,471475.7626,475342.2088,476108.8761,476875.5247,477642.1227,478408.7772,479175.3635,479941.9961,480708.6441,481480.2349
Mixed,Female,cave,19,F_greet.wav,space,61.97978579,4390,474575.5894,481475.2746,482241.8689,483008.5376,469175.8273,469942.4829,470709.1096,471475.7626,475342.2088,476108.8761,476875.5247,477642.1227,478408.7772,479175.3635,479941.9961,480708.6441,482247.1042
Mixed,Female,cave,19,F_cave.wav,None,737.8903542,4390,474575.5894,481475.2746,482241.8689,483008.5376,483775.174,469942.4829,470709.1096,471475.7626,475342.2088,476108.8761,476875.5247,477642.1227,478408.7772,479175.3635,479941.9961,480708.6441,483013.7443
Mixed,Female,cave,19,M_knife.wav,None,737.9774341,4390,474575.5894,481475.2746,482241.8689,483008.5376,483775.174,484541.7971,470709.1096,471475.7626,475342.2088,476108.8761,476875.5247,477642.1227,478408.7772,479175.3635,479941.9961,480708.6441,483780.2664
Mixed,Female,cave,19,M_reek.wav,space,66.11724566,4390,474575.5894,481475.2746,482241.8689,483008.5376,483775.174,484541.7971,485308.4259,471475.7626,475342.2088,476108.8761,476875.5247,477642.1227,478408.7772,479175.3635,479941.9961,480708.6441,484546.8142
Mixed,Female,cave,19,M_gnash.wav,None,736.11866,4390,474575.5894,481475.2746,482241.8689,483008.5376,483775.174,484541.7971,485308.4259,486075.0555,475342.2088,476108.8761,476875.5247,477642.1227,478408.7772,479175.3635,479941.9961,480708.6441,485313.7751
Mixed,Female,ball,11,M_gnash.wav,None,736.5032138,4390,489191.5995,481475.2746,482241.8689,483008.5376,483775.174,484541.7971,485308.4259,486075.0555,475342.2088,476108.8761,476875.5247,477642.1227,478408.7772,479175.3635,479941.9961,480708.6441,486079.9328
Mixed,Female,ball,11,F_ball.wav,None,742.5982161,4390,489191.5995,481475.2746,482241.8689,483008.5376,483775.174,484541.7971,485308.4259,486075.0555,489958.1847,476108.8761,476875.5247,477642.1227,478408.7772,479175.3635,479941.9961,480708.6441,489196.8124
Mixed,Female,ball,11,F_lash.wav,None,742.4299008,4390,489191.5995,481475.2746,482241.8689,483008.5376,483775.174,484541.7971,485308.4259,486075.0555,489958.1847,490724.8488,476875.5247,477642.1227,478408.7772,479175.3635,479941.9961,480708.6441,489963.6208
Mixed,Female,ball,11,M_greet.wav,space,42.50605176,4390,489191.5995,481475.2746,482241.8689,483008.5376,483775.174,484541.7971,485308.4259,486075.0555,489958.1847,490724.8488,491491.4653,477642.1227,478408.7772,479175.3635,479941.9961,480708.6441,490729.8805
Mixed,Female,ball,11,M_dime.wav,None,741.4433859,4390,489191.5995,481475.2746,482241.8689,483008.5376,483775.174,484541.7971,485308.4259,486075.0555,489958.1847,490724.8488,491491.4653,492258.097,478408.7772,479175.3635,479941.9961,480708.6441,491496.4461
Mixed,Female,ball,11,M_greet.wav,None,741.7721267,4390,489191.5995,481475.2746,482241.8689,483008.5376,483775.174,484541.7971,485308.4259,486075.0555,489958.1847,490724.8488,491491.4653,492258.097,493024.7254,479175.3635,479941.9961,480708.6441,492263.0786
Mixed,Female,ball,11,F_ball.wav,None,741.484588,4390,489191.5995,481475.2746,482241.8689,483008.5376,483775.174,484541.7971,485308.4259,486075.0555,489958.1847,490724.8488,491491.4653,492258.097,493024.7254,493791.3875,479941.9961,480708.6441,493030.0808
Mixed,Female,ball,11,M_dime.wav,None,741.9585594,4390,489191.5995,481475.2746,482241.8689,483008.5376,483775.174,484541.7971,485308.4259,486075.0555,489958.1847,490724.8488,491491.4653,492258.097,493024.7254,493791.3875,494557.9668,480708.6441,493796.4813
Mixed,Female,ball,11,F_priest.wav,space,520.7536319,4390,489191.5995,481475.2746,482241.8689,483008.5376,483775.174,484541.7971,485308.4259,486075.0555,489958.1847,490724.8488,491491.4653,492258.097,493024.7254,493791.3875,494557.9668,495324.6178,494563.2372
Mixed,Female,ball,11,F_ball.wav,None,740.8948999,4390,489191.5995,496091.2544,482241.8689,483008.5376,483775.174,484541.7971,485308.4259,486075.0555,489958.1847,490724.8488,491491.4653,492258.097,493024.7254,493791.3875,494557.9668,495324.6178,495329.5667
Mixed,Female,ball,11,M_park.wav,space,651.5489687,4390,489191.5995,496091.2544,496857.8437,483008.5376,483775.174,484541.7971,485308.4259,486075.0555,489958.1847,490724.8488,491491.4653,492258.097,493024.7254,493791.3875,494557.9668,495324.6178,496096.3646
Mixed,Female,ball,11,F_ball.wav,None,739.2608385,4390,489191.5995,496091.2544,496857.8437,497624.5209,483775.174,484541.7971,485308.4259,486075.0555,489958.1847,490724.8488,491491.4653,492258.097,493024.7254,493791.3875,494557.9668,495324.6178,496862.9685
Mixed,Female,ball,11,F_reek.wav,space,654.1312649,4390,489191.5995,496091.2544,496857.8437,497624.5209,498391.1029,484541.7971,485308.4259,486075.0555,489958.1847,490724.8488,491491.4653,492258.097,493024.7254,493791.3875,494557.9668,495324.6178,497629.6548
Mixed,Female,ball,11,F_priest.wav,None,737.7103503,4390,489191.5995,496091.2544,496857.8437,497624.5209,498391.1029,499157.772,485308.4259,486075.0555,489958.1847,490724.8488,491491.4653,492258.097,493024.7254,493791.3875,494557.9668,495324.6178,498396.1033
Mixed,Female,ball,11,M_priest.wav,None,737.6434333,4390,489191.5995,496091.2544,496857.8437,497624.5209,498391.1029,499157.772,499924.3987,486075.0555,489958.1847,490724.8488,491491.4653,492258.097,493024.7254,493791.3875,494557.9668,495324.6178,499162.8813
Mixed,Female,ball,11,M_romp.wav,None,738.1141903,4390,489191.5995,496091.2544,496857.8437,497624.5209,498391.1029,499157.772,499924.3987,500691.0324,489958.1847,490724.8488,491491.4653,492258.097,493024.7254,493791.3875,494557.9668,495324.6178,499929.4563
Mixed,Male,done,40,F_romp.wav,None,738.1901659,4390,503807.5919,496091.2544,496857.8437,497624.5209,498391.1029,499157.772,499924.3987,500691.0324,489958.1847,490724.8488,491491.4653,492258.097,493024.7254,493791.3875,494557.9668,495324.6178,500696.197
Mixed,Male,done,40,F_romp.wav,None,742.832864,4390,503807.5919,496091.2544,496857.8437,497624.5209,498391.1029,499157.772,499924.3987,500691.0324,504574.1812,490724.8488,491491.4653,492258.097,493024.7254,493791.3875,494557.9668,495324.6178,503812.4967
Mixed,Male,done,40,F_jolt.wav,None,742.7300047,4390,503807.5919,496091.2544,496857.8437,497624.5209,498391.1029,499157.772,499924.3987,500691.0324,504574.1812,505340.7705,491491.4653,492258.097,493024.7254,493791.3875,494557.9668,495324.6178,504579.3323
Mixed,Male,done,40,M_done.wav,None,743.373168,4390,503807.5919,496091.2544,496857.8437,497624.5209,498391.1029,499157.772,499924.3987,500691.0324,504574.1812,505340.7705,506107.4413,492258.097,493024.7254,493791.3875,494557.9668,495324.6178,505345.8854
Mixed,Male,done,40,M_bluff.wav,None,743.352713,4390,503807.5919,496091.2544,496857.8437,497624.5209,498391.1029,499157.772,499924.3987,500691.0324,504574.1812,505340.7705,506107.4413,506890.9562,493024.7254,493791.3875,494557.9668,495324.6178,506112.5594
Mixed,Male,done,40,F_park.wav,space,50.54486246,4390,503807.5919,496091.2544,496857.8437,497624.5209,498391.1029,499157.772,499924.3987,500691.0324,504574.1812,505340.7705,506107.4413,506890.9562,507640.6351,493791.3875,494557.9668,495324.6178,506896.5734
Mixed,Male,done,40,M_priest.wav,None,742.046808,4390,503807.5919,496091.2544,496857.8437,497624.5209,498391.1029,499157.772,499924.3987,500691.0324,504574.1812,505340.7705,506107.4413,506890.9562,507640.6351,508407.3298,494557.9668,495324.6178,507645.6062
Mixed,Male,done,40,M_done.wav,None,742.0663864,4390,503807.5919,496091.2544,496857.8437,497624.5209,498391.1029,499157.772,499924.3987,500691.0324,504574.1812,505340.7705,506107.4413,506890.9562,507640.6351,508407.3298,509173.9527,495324.6178,508412.3834
Mixed,Male,done,40,M_jaw.wav,None,742.0953156,4390,503807.5919,496091.2544,496857.8437,497624.5209,498391.1029,499157.772,499924.3987,500691.0324,504574.1812,505340.7705,506107.4413,506890.9562,507640.6351,508407.3298,509173.9527,509940.5835,509179.1506
Mixed,Male,done,40,M_done.wav,None,742.3109696,4390,503807.5919,510707.2216,496857.8437,497624.5209,498391.1029,499157.772,499924.3987,500691.0324,504574.1812,505340.7705,506107.4413,506890.9562,507640.6351,508407.3298,509173.9527,509940.5835,509945.6426
Mixed,Male,done,40,F_bluff.wav,None,743.2101125,4390,503807.5919,510707.2216,511473.86,497624.5209,498391.1029,499157.772,499924.3987,500691.0324,504574.1812,505340.7705,506107.4413,506890.9562,507640.6351,508407.3298,509173.9527,509940.5835,510711.9838
Mixed,Male,done,40,M_dime.wav,None,743.3091731,4390,503807.5919,510707.2216,511473.86,512240.4867,498391.1029,499157.772,499924.3987,500691.0324,504574.1812,505340.7705,506107.4413,506890.9562,507640.6351,508407.3298,509173.9527,509940.5835,511478.8662
Mixed,Male,done,40,F_jolt.wav,space,597.0335006,4390,503807.5919,510707.2216,511473.86,512240.4867,513007.1145,499157.772,499924.3987,500691.0324,504574.1812,505340.7705,506107.4413,506890.9562,507640.6351,508407.3298,509173.9527,509940.5835,512245.5642
Mixed,Male,done,40,F_jaw.wav,None,742.0646331,4390,503807.5919,510707.2216,511473.86,512240.4867,513007.1145,513773.8073,499924.3987,500691.0324,504574.1812,505340.7705,506107.4413,506890.9562,507640.6351,508407.3298,509173.9527,509940.5835,513012.0755
Mixed,Male,done,40,M_done.wav,None,742.3226582,4390,503807.5919,510707.2216,511473.86,512240.4867,513007.1145,513773.8073,514540.3516,500691.0324,504574.1812,505340.7705,506107.4413,506890.9562,507640.6351,508407.3298,509173.9527,509940.5835,513778.8781
Mixed,Male,done,40,F_greet.wav,space,544.9001621,4390,503807.5919,510707.2216,511473.86,512240.4867,513007.1145,513773.8073,514540.3516,515307.0022,504574.1812,505340.7705,506107.4413,506890.9562,507640.6351,508407.3298,509173.9527,509940.5835,514545.5959
Mixed,Female,done,47,M_jaw.wav,None,740.6453491,4390,518423.5518,510707.2216,511473.86,512240.4867,513007.1145,513773.8073,514540.3516,515307.0022,504574.1812,505340.7705,506107.4413,506890.9562,507640.6351,508407.3298,509173.9527,509940.5835,515312.2694
Mixed,Female,done,47,F_cad.wav,None,742.3287947,4390,518423.5518,510707.2216,511473.86,512240.4867,513007.1145,513773.8073,514540.3516,515307.0022,519190.1537,505340.7705,506107.4413,506890.9562,507640.6351,508407.3298,509173.9527,509940.5835,518428.6571
Mixed,Female,done,47,F_done.wav,None,742.5684102,4390,518423.5518,510707.2216,511473.86,512240.4867,513007.1145,513773.8073,514540.3516,515307.0022,519190.1537,519956.7944,506107.4413,506890.9562,507640.6351,508407.3298,509173.9527,509940.5835,519195.2712
Mixed,Female,done,47,M_greet.wav,None,742.1075886,4390,518423.5518,510707.2216,511473.86,512240.4867,513007.1145,513773.8073,514540.3516,515307.0022,519190.1537,519956.7944,520723.4129,506890.9562,507640.6351,508407.3298,509173.9527,509940.5835,519962.575
Mixed,Female,done,47,F_priest.wav,space,9.58053246,4390,518423.5518,510707.2216,511473.86,512240.4867,513007.1145,513773.8073,514540.3516,515307.0022,519190.1537,519956.7944,520723.4129,521490.058,507640.6351,508407.3298,509173.9527,509940.5835,520728.4472
Mixed,Female,done,47,F_done.wav,None,741.4264374,4390,518423.5518,510707.2216,511473.86,512240.4867,513007.1145,513773.8073,514540.3516,515307.0022,519190.1537,519956.7944,520723.4129,521490.058,522256.7072,508407.3298,509173.9527,509940.5835,521495.1089
Mixed,Female,done,47,F_priest.wav,None,741.6283574,4390,518423.5518,510707.2216,511473.86,512240.4867,513007.1145,513773.8073,514540.3516,515307.0022,519190.1537,519956.7944,520723.4129,521490.058,522256.7072,523023.2658,509173.9527,509940.5835,522261.887
Mixed,Female,done,47,M_reek.wav,space,285.7339893,4390,518423.5518,510707.2216,511473.86,512240.4867,513007.1145,513773.8073,514540.3516,515307.0022,519190.1537,519956.7944,520723.4129,521490.058,522256.7072,523023.2658,523789.9658,509940.5835,523028.0564
Mixed,Female,done,47,M_gnash.wav,None,740.3557649,4390,518423.5518,510707.2216,511473.86,512240.4867,513007.1145,513773.8073,514540.3516,515307.0022,519190.1537,519956.7944,520723.4129,521490.058,522256.7072,523023.2658,523789.9658,524556.5662,523795.0784
Mixed,Female,done,47,F_done.wav,None,740.845808,4390,518423.5518,525323.1739,511473.86,512240.4867,513007.1145,513773.8073,514540.3516,515307.0022,519190.1537,519956.7944,520723.4129,521490.058,522256.7072,523023.2658,523789.9658,524556.5662,524561.76
Mixed,Female,done,47,M_greet.wav,space,537.2441519,4390,518423.5518,525323.1739,526089.8243,512240.4867,513007.1145,513773.8073,514540.3516,515307.0022,519190.1537,519956.7944,520723.4129,521490.058,522256.7072,523023.2658,523789.9658,524556.5662,525328.2208
Mixed,Female,done,47,M_reek.wav,None,739.6097422,4390,518423.5518,525323.1739,526089.8243,526856.498,513007.1145,513773.8073,514540.3516,515307.0022,519190.1537,519956.7944,520723.4129,521490.058,522256.7072,523023.2658,523789.9658,524556.5662,526094.6572
Mixed,Female,done,47,F_romp.wav,None,739.2044412,4390,518423.5518,525323.1739,526089.8243,526856.498,527623.0861,513773.8073,514540.3516,515307.0022,519190.1537,519956.7944,520723.4129,521490.058,522256.7072,523023.2658,523789.9658,524556.5662,526862.0299
Mixed,Female,done,47,M_bluff.wav,None,739.8090322,4390,518423.5518,525323.1739,526089.8243,526856.498,527623.0861,528389.7079,514540.3516,515307.0022,519190.1537,519956.7944,520723.4129,521490.058,522256.7072,523023.2658,523789.9658,524556.5662,527628.2437
Mixed,Female,done,47,F_done.wav,None,740.1313444,4390,518423.5518,525323.1739,526089.8243,526856.498,527623.0861,528389.7079,529156.3433,515307.0022,519190.1537,519956.7944,520723.4129,521490.058,522256.7072,523023.2658,523789.9658,524556.5662,528394.7304
Mixed,Female,done,47,M_cad.wav,space,727.829714,4390,518423.5518,525323.1739,526089.8243,526856.498,527623.0861,528389.7079,529156.3433,529922.9674,519190.1537,519956.7944,520723.4129,521490.058,522256.7072,523023.2658,523789.9658,524556.5662,529161.3878
Mixed,Male,ball,6,M_reek.wav,None,738.9163181,4390,533039.4735,525323.1739,526089.8243,526856.498,527623.0861,528389.7079,529156.3433,529922.9674,519190.1537,519956.7944,520723.4129,521490.058,522256.7072,523023.2658,523789.9658,524556.5662,529928.0756
Mixed,Male,ball,6,M_ball.wav,None,743.3915775,4390,533039.4735,525323.1739,526089.8243,526856.498,527623.0861,528389.7079,529156.3433,529922.9674,533806.2337,519956.7944,520723.4129,521490.058,522256.7072,523023.2658,523789.9658,524556.5662,533044.6264
Mixed,Male,ball,6,F_jolt.wav,None,743.5271648,4390,533039.4735,525323.1739,526089.8243,526856.498,527623.0861,528389.7079,529156.3433,529922.9674,533806.2337,534589.6376,520723.4129,521490.058,522256.7072,523023.2658,523789.9658,524556.5662,533811.3968
Mixed,Male,ball,6,M_ball.wav,space,29.76230134,4390,533039.4735,525323.1739,526089.8243,526856.498,527623.0861,528389.7079,529156.3433,529922.9674,533806.2337,534589.6376,535339.4128,521490.058,522256.7072,523023.2658,523789.9658,524556.5662,534595.0818
Mixed,Male,ball,6,M_jolt.wav,space,624.0785027,4390,533039.4735,525323.1739,526089.8243,526856.498,527623.0861,528389.7079,529156.3433,529922.9674,533806.2337,534589.6376,535339.4128,536106.0504,522256.7072,523023.2658,523789.9658,524556.5662,535344.716
Mixed,Male,ball,6,F_depth.wav,None,740.8136644,4390,533039.4735,525323.1739,526089.8243,526856.498,527623.0861,528389.7079,529156.3433,529922.9674,533806.2337,534589.6376,535339.4128,536106.0504,536872.6607,523023.2658,523789.9658,524556.5662,536111.148
Mixed,Male,ball,6,M_ball.wav,None,741.1210737,4390,533039.4735,525323.1739,526089.8243,526856.498,527623.0861,528389.7079,529156.3433,529922.9674,533806.2337,534589.6376,535339.4128,536106.0504,536872.6607,537639.257,523789.9658,524556.5662,536877.8586
Mixed,Male,ball,6,F_dime.wav,space,540.1309353,4390,533039.4735,525323.1739,526089.8243,526856.498,527623.0861,528389.7079,529156.3433,529922.9674,533806.2337,534589.6376,535339.4128,536106.0504,536872.6607,537639.257,538405.9065,524556.5662,537644.4923
Mixed,Male,ball,6,M_dime.wav,None,739.9040018,4390,533039.4735,525323.1739,526089.8243,526856.498,527623.0861,528389.7079,529156.3433,529922.9674,533806.2337,534589.6376,535339.4128,536106.0504,536872.6607,537639.257,538405.9065,539172.5419,538410.9112
Mixed,Male,ball,6,F_greet.wav,None,740.0883889,4390,533039.4735,539939.1832,526089.8243,526856.498,527623.0861,528389.7079,529156.3433,529922.9674,533806.2337,534589.6376,535339.4128,536106.0504,536872.6607,537639.257,538405.9065,539172.5419,539177.8667
Mixed,Male,ball,6,M_ball.wav,None,741.0976965,4390,533039.4735,539939.1832,540705.7906,526856.498,527623.0861,528389.7079,529156.3433,529922.9674,533806.2337,534589.6376,535339.4128,536106.0504,536872.6607,537639.257,538405.9065,539172.5419,539944.2686
Mixed,Male,ball,6,F_gnash.wav,space,545.4018938,4390,533039.4735,539939.1832,540705.7906,541472.3919,527623.0861,528389.7079,529156.3433,529922.9674,533806.2337,534589.6376,535339.4128,536106.0504,536872.6607,537639.257,538405.9065,539172.5419,540710.9234
Mixed,Male,ball,6,M_lash.wav,None,739.1994735,4390,533039.4735,539939.1832,540705.7906,541472.3919,542239.0601,528389.7079,529156.3433,529922.9674,533806.2337,534589.6376,535339.4128,536106.0504,536872.6607,537639.257,538405.9065,539172.5419,541477.9083
Mixed,Male,ball,6,F_jolt.wav,None,739.9627369,4390,533039.4735,539939.1832,540705.7906,541472.3919,542239.0601,543005.7292,529156.3433,529922.9674,533806.2337,534589.6376,535339.4128,536106.0504,536872.6607,537639.257,538405.9065,539172.5419,542244.0645
Mixed,Male,ball,6,F_romp.wav,None,740.5904128,4390,533039.4735,539939.1832,540705.7906,541472.3919,542239.0601,543005.7292,543772.3281,529922.9674,533806.2337,534589.6376,535339.4128,536106.0504,536872.6607,537639.257,538405.9065,539172.5419,543010.6936
Mixed,Male,ball,6,F_bluff.wav,None,741.3227014,4390,533039.4735,539939.1832,540705.7906,541472.3919,542239.0601,543005.7292,543772.3281,544538.9112,533806.2337,534589.6376,535339.4128,536106.0504,536872.6607,537639.257,538405.9065,539172.5419,543777.2475
Mixed,Male,tile,25,F_cad.wav,None,741.7218659,4390,756112.271,539939.1832,540705.7906,541472.3919,542239.0601,543005.7292,543772.3281,544538.9112,533806.2337,534589.6376,535339.4128,536106.0504,536872.6607,537639.257,538405.9065,539172.5419,544544.188
Mixed,Male,tile,25,F_lash.wav,None,742.5985083,4390,756112.271,539939.1832,540705.7906,541472.3919,542239.0601,543005.7292,543772.3281,544538.9112,756878.8734,534589.6376,535339.4128,536106.0504,536872.6607,537639.257,538405.9065,539172.5419,756117.6171
Mixed,Male,tile,25,M_reek.wav,None,743.592913,4390,756112.271,539939.1832,540705.7906,541472.3919,542239.0601,543005.7292,543772.3281,544538.9112,756878.8734,757662.2276,535339.4128,536106.0504,536872.6607,537639.257,538405.9065,539172.5419,756883.7961
Mixed,Male,tile,25,F_romp.wav,None,727.3873018,4390,756112.271,539939.1832,540705.7906,541472.3919,542239.0601,543005.7292,543772.3281,544538.9112,756878.8734,757662.2276,758428.838,536106.0504,536872.6607,537639.257,538405.9065,539172.5419,757668.2636
Mixed,Male,tile,25,M_tile.wav,None,728.7250581,4390,756112.271,539939.1832,540705.7906,541472.3919,542239.0601,543005.7292,543772.3281,544538.9112,756878.8734,757662.2276,758428.838,759195.4299,536872.6607,537639.257,538405.9065,539172.5419,758434.1349
Mixed,Male,tile,25,M_park.wav,space,710.4505708,4390,756112.271,539939.1832,540705.7906,541472.3919,542239.0601,543005.7292,543772.3281,544538.9112,756878.8734,757662.2276,758428.838,759195.4299,759962.4438,537639.257,538405.9065,539172.5419,759200.4633
Mixed,Male,tile,25,M_dime.wav,None,726.8262506,4390,756112.271,539939.1832,540705.7906,541472.3919,542239.0601,543005.7292,543772.3281,544538.9112,756878.8734,757662.2276,758428.838,759195.4299,759962.4438,760728.9056,538405.9065,539172.5419,759968.2241
Mixed,Male,tile,25,F_greet.wav,None,727.6882823,4390,756112.271,539939.1832,540705.7906,541472.3919,542239.0601,543005.7292,543772.3281,544538.9112,756878.8734,757662.2276,758428.838,759195.4299,759962.4438,760728.9056,761495.3205,539172.5419,760734.4899
Mixed,Male,tile,25,F_cling.wav,None,728.7992805,4390,756112.271,539939.1832,540705.7906,541472.3919,542239.0601,543005.7292,543772.3281,544538.9112,756878.8734,757662.2276,758428.838,759195.4299,759962.4438,760728.9056,761495.3205,762262.0027,761500.4795
