"Condition","Talker","Target","Trial","current_stimulus","response_response","response_time_response","subject_nr","time_Audio1","time_Audio10","time_Audio11","time_Audio12","time_Audio13","time_Audio14","time_Audio15","time_Audio16","time_Audio2","time_Audio3","time_Audio4","time_Audio5","time_Audio6","time_Audio7","time_Audio8","time_Audio9","time_response","title"
"Mixed","Both","tile","33","M_jolt.wav","NA","NA","111","113084.956467","NA","NA","NA","NA","NA","NA","NA","NA","NA","NA","NA","NA","NA","NA","NA","NA","Mapping"
"Mixed","Both","tile","33","M_priest.wav","None","714.023447072","111","113084.956467","NA","NA","NA","NA","NA","NA","NA","113834.391066","NA","NA","NA","NA","NA","NA","NA","113101.733441","Mapping"
"Mixed","Both","tile","33","F_tile.wav","None","736.828371475","111","113084.956467","NA","NA","NA","NA","NA","NA","NA","113834.391066","114601.014768","NA","NA","NA","NA","NA","NA","113844.07468","Mapping"
"Mixed","Both","tile","33","F_greet.wav","space","509.677584923","111","113084.956467","NA","NA","NA","NA","NA","NA","NA","113834.391066","114601.014768","115367.534588","NA","NA","NA","NA","NA","114610.938919","Mapping"
"Mixed","Both","tile","33","F_tile.wav","None","734.792465955","111","113084.956467","NA","NA","NA","NA","NA","NA","NA","113834.391066","114601.014768","115367.534588","116134.139739","NA","NA","NA","NA","115376.526272","Mapping"
"Mixed","Both","tile","33","M_cave.wav","space","456.97653963","111","113084.956467","NA","NA","NA","NA","NA","NA","NA","113834.391066","114601.014768","115367.534588","116134.139739","116900.64441","NA","NA","NA","116143.617135","Mapping"
"Mixed","Both","tile","33","M_lash.wav","None","733.92028836","111","113084.956467","NA","NA","NA","NA","NA","NA","NA","113834.391066","114601.014768","115367.534588","116134.139739","116900.64441","117667.689205","NA","NA","116909.411325","Mapping"
"Mixed","Both","tile","33","M_tile.wav","None","730.868748884","111","113084.956467","NA","NA","NA","NA","NA","NA","NA","113834.391066","114601.014768","115367.534588","116134.139739","116900.64441","117667.689205","118434.282918","NA","117677.466499","Mapping"
"Mixed","Both","tile","33","F_park.wav","space","509.109942912","111","113084.956467","NA","NA","NA","NA","NA","NA","NA","113834.391066","114601.014768","115367.534588","116134.139739","116900.64441","117667.689205","118434.282918","119200.995661","118443.564297","Mapping"
"Mixed","Both","tile","33","F_gnash.wav","None","728.189763089","111","113084.956467","119968.005521","NA","NA","NA","NA","NA","NA","113834.391066","114601.014768","115367.534588","116134.139739","116900.64441","117667.689205","118434.282918","119200.995661","119210.857977","Mapping"
"Mixed","Both","tile","33","M_greet.wav","None","726.713461045","111","113084.956467","119968.005521","120734.196689","NA","NA","NA","NA","NA","113834.391066","114601.014768","115367.534588","116134.139739","116900.64441","117667.689205","118434.282918","119200.995661","119977.544132","Mapping"
"Mixed","Both","tile","33","M_tile.wav","None","725.481096684","111","113084.956467","119968.005521","120734.196689","121501.238393","NA","NA","NA","NA","113834.391066","114601.014768","115367.534588","116134.139739","116900.64441","117667.689205","118434.282918","119200.995661","120743.97862","Mapping"
"Mixed","Both","tile","33","F_gnash.wav","space","377.036407939","111","113084.956467","119968.005521","120734.196689","121501.238393","122268.197239","NA","NA","NA","113834.391066","114601.014768","115367.534588","116134.139739","116900.64441","117667.689205","118434.282918","119200.995661","121511.443273","Mapping"
"Mixed","Both","tile","33","F_bluff.wav","None","721.413304913","111","113084.956467","119968.005521","120734.196689","121501.238393","122268.197239","123034.762198","NA","NA","113834.391066","114601.014768","115367.534588","116134.139739","116900.64441","117667.689205","118434.282918","119200.995661","122278.233001","Mapping"
"Mixed","Both","tile","33","M_greet.wav","None","720.804542856","111","113084.956467","119968.005521","120734.196689","121501.238393","122268.197239","123034.762198","123801.69229","NA","113834.391066","114601.014768","115367.534588","116134.139739","116900.64441","117667.689205","118434.282918","119200.995661","123044.392634","Mapping"
"Mixed","Both","tile","33","F_greet.wav","None","718.975474214","111","113084.956467","119968.005521","120734.196689","121501.238393","122268.197239","123034.762198","123801.69229","124551.123798","113834.391066","114601.014768","115367.534588","116134.139739","116900.64441","117667.689205","118434.282918","119200.995661","123811.446396","Mapping"
"Mixed","Both","cave","17","F_dime.wav","None","735.244477168","111","127701.715262","119968.005521","120734.196689","121501.238393","122268.197239","123034.762198","123801.69229","124551.123798","113834.391066","114601.014768","115367.534588","116134.139739","116900.64441","117667.689205","118434.282918","119200.995661","124560.461447","Mapping"
"Mixed","Both","cave","17","M_cave.wav","None","722.303105373","111","127701.715262","119968.005521","120734.196689","121501.238393","122268.197239","123034.762198","123801.69229","124551.123798","128468.366789","114601.014768","115367.534588","116134.139739","116900.64441","117667.689205","118434.282918","119200.995661","127711.349099","Mapping"
"Mixed","Both","cave","17","M_tile.wav","space","490.098264534","111","127701.715262","119968.005521","120734.196689","121501.238393","122268.197239","123034.762198","123801.69229","124551.123798","128468.366789","129235.270602","115367.534588","116134.139739","116900.64441","117667.689205","118434.282918","119200.995661","128478.3098","Mapping"
"Mixed","Both","cave","17","M_done.wav","None","718.669701921","111","127701.715262","119968.005521","120734.196689","121501.238393","122268.197239","123034.762198","123801.69229","124551.123798","128468.366789","129235.270602","129984.912966","116134.139739","116900.64441","117667.689205","118434.282918","119200.995661","129245.373455","Mapping"
"Mixed","Both","cave","17","M_jolt.wav","None","734.888618812","111","127701.715262","119968.005521","120734.196689","121501.238393","122268.197239","123034.762198","123801.69229","124551.123798","128468.366789","129235.270602","129984.912966","130751.285619","116900.64441","117667.689205","118434.282918","119200.995661","129994.366555","Mapping"
"Mixed","Both","cave","17","M_lash.wav","None","734.076420806","111","127701.715262","119968.005521","120734.196689","121501.238393","122268.197239","123034.762198","123801.69229","124551.123798","128468.366789","129235.270602","129984.912966","130751.285619","131517.929108","117667.689205","118434.282918","119200.995661","130760.343158","Mapping"
"Mixed","Both","cave","17","F_cling.wav","None","732.367311371","111","127701.715262","119968.005521","120734.196689","121501.238393","122268.197239","123034.762198","123801.69229","124551.123798","128468.366789","129235.270602","129984.912966","130751.285619","131517.929108","132284.561776","118434.282918","119200.995661","131527.311897","Mapping"
"Mixed","Both","cave","17","M_cave.wav","None","730.113438738","111","127701.715262","119968.005521","120734.196689","121501.238393","122268.197239","123034.762198","123801.69229","124551.123798","128468.366789","129235.270602","129984.912966","130751.285619","131517.929108","132284.561776","133051.231545","119200.995661","132294.659991","Mapping"
"Mixed","Both","cave","17","M_depth.wav","space","419.932334364","111","127701.715262","119968.005521","120734.196689","121501.238393","122268.197239","123034.762198","123801.69229","124551.123798","128468.366789","129235.270602","129984.912966","130751.285619","131517.929108","132284.561776","133051.231545","133817.880599","133060.377197","Mapping"
"Mixed","Both","cave","17","F_cave.wav","None","727.976433584","111","127701.715262","134584.812856","120734.196689","121501.238393","122268.197239","123034.762198","123801.69229","124551.123798","128468.366789","129235.270602","129984.912966","130751.285619","131517.929108","132284.561776","133051.231545","133817.880599","133827.312546","Mapping"
"Mixed","Both","cave","17","F_romp.wav","space","526.316668169","111","127701.715262","134584.812856","135351.160466","121501.238393","122268.197239","123034.762198","123801.69229","124551.123798","128468.366789","129235.270602","129984.912966","130751.285619","131517.929108","132284.561776","133051.231545","133817.880599","134593.964073","Mapping"
"Mixed","Both","cave","17","F_cave.wav","None","724.653440004","111","127701.715262","134584.812856","135351.160466","136118.310072","122268.197239","123034.762198","123801.69229","124551.123798","128468.366789","129235.270602","129984.912966","130751.285619","131517.929108","132284.561776","133051.231545","133817.880599","135360.755656","Mapping"
"Mixed","Both","cave","17","F_gnash.wav","space","440.119798441","111","127701.715262","134584.812856","135351.160466","136118.310072","136885.055897","123034.762198","123801.69229","124551.123798","128468.366789","129235.270602","129984.912966","130751.285619","131517.929108","132284.561776","133051.231545","133817.880599","136128.126939","Mapping"
"Mixed","Both","cave","17","F_priest.wav","None","720.400762686","111","127701.715262","134584.812856","135351.160466","136118.310072","136885.055897","137651.506462","123801.69229","124551.123798","128468.366789","129235.270602","129984.912966","130751.285619","131517.929108","132284.561776","133051.231545","133817.880599","136895.121958","Mapping"
"Mixed","Both","cave","17","M_cling.wav","None","719.6735873","111","127701.715262","134584.812856","135351.160466","136118.310072","136885.055897","137651.506462","138401.320726","124551.123798","128468.366789","129235.270602","129984.912966","130751.285619","131517.929108","132284.561776","133051.231545","133817.880599","137661.189457","Mapping"
"Mixed","Both","cave","17","F_jolt.wav","None","735.307857656","111","127701.715262","134584.812856","135351.160466","136118.310072","136885.055897","137651.506462","138401.320726","139167.799117","128468.366789","129235.270602","129984.912966","130751.285619","131517.929108","132284.561776","133051.231545","133817.880599","138410.769677","Mapping"
"Mixed","Both","tile","27","M_done.wav","None","733.864637179","111","142301.455","134584.812856","135351.160466","136118.310072","136885.055897","137651.506462","138401.320726","139167.799117","128468.366789","129235.270602","129984.912966","130751.285619","131517.929108","132284.561776","133051.231545","133817.880599","139177.354114","Mapping"
"Mixed","Both","tile","27","F_bluff.wav","None","722.073080513","111","142301.455","134584.812856","135351.160466","136118.310072","136885.055897","137651.506462","138401.320726","139167.799117","143067.712022","129235.270602","129984.912966","130751.285619","131517.929108","132284.561776","133051.231545","133817.880599","142311.082963","Mapping"
"Mixed","Both","tile","27","F_tile.wav","None","721.05126307","111","142301.455","134584.812856","135351.160466","136118.310072","136885.055897","137651.506462","138401.320726","139167.799117","143067.712022","143834.602232","129984.912966","130751.285619","131517.929108","132284.561776","133051.231545","133817.880599","143077.472002","Mapping"
"Mixed","Both","tile","27","M_ball.wav","space","345.702940831","111","142301.455","134584.812856","135351.160466","136118.310072","136885.055897","137651.506462","138401.320726","139167.799117","143067.712022","143834.602232","144584.040541","130751.285619","131517.929108","132284.561776","133051.231545","133817.880599","143838.362087","Mapping"
"Mixed","Both","tile","27","F_depth.wav","None","736.159320659","111","142301.455","134584.812856","135351.160466","136118.310072","136885.055897","137651.506462","138401.320726","139167.799117","143067.712022","143834.602232","144584.040541","145350.794714","131517.929108","132284.561776","133051.231545","133817.880599","144592.98554","Mapping"
"Mixed","Both","tile","27","F_tile.wav","None","734.612527158","111","142301.455","134584.812856","135351.160466","136118.310072","136885.055897","137651.506462","138401.320726","139167.799117","143067.712022","143834.602232","144584.040541","145350.794714","146117.445005","132284.561776","133051.231545","133817.880599","145359.829064","Mapping"
"Mixed","Both","tile","27","F_cave.wav","space","313.37393602","111","142301.455","134584.812856","135351.160466","136118.310072","136885.055897","137651.506462","138401.320726","139167.799117","143067.712022","143834.602232","144584.040541","145350.794714","146117.445005","146884.23597","133051.231545","133817.880599","146126.705361","Mapping"
"Mixed","Both","tile","27","M_reek.wav","None","730.697466934","111","142301.455","134584.812856","135351.160466","136118.310072","136885.055897","137651.506462","138401.320726","139167.799117","143067.712022","143834.602232","144584.040541","145350.794714","146117.445005","146884.23597","147650.991688","133817.880599","146893.958539","Mapping"
"Mixed","Both","tile","27","M_priest.wav","None","730.132298311","111","142301.455","134584.812856","135351.160466","136118.310072","136885.055897","137651.506462","138401.320726","139167.799117","143067.712022","143834.602232","144584.040541","145350.794714","146117.445005","146884.23597","147650.991688","148417.031981","147660.017382","Mapping"
"Mixed","Both","tile","27","M_tile.wav","None","731.668270775","111","142301.455","149184.239711","135351.160466","136118.310072","136885.055897","137651.506462","138401.320726","139167.799117","143067.712022","143834.602232","144584.040541","145350.794714","146117.445005","146884.23597","147650.991688","148417.031981","148425.874025","Mapping"
"Mixed","Both","tile","27","M_romp.wav","space","454.053616209","111","142301.455","149184.239711","149950.808071","136118.310072","136885.055897","137651.506462","138401.320726","139167.799117","143067.712022","143834.602232","144584.040541","145350.794714","146117.445005","146884.23597","147650.991688","148417.031981","149193.916832","Mapping"
"Mixed","Both","tile","27","M_romp.wav","None","728.086499264","111","142301.455","149184.239711","149950.808071","150717.595016","136885.055897","137651.506462","138401.320726","139167.799117","143067.712022","143834.602232","144584.040541","145350.794714","146117.445005","146884.23597","147650.991688","148417.031981","149959.86499","Mapping"
"Mixed","Both","tile","27","M_tile.wav","None","726.260213152","111","142301.455","149184.239711","149950.808071","150717.595016","151484.201713","137651.506462","138401.320726","139167.799117","143067.712022","143834.602232","144584.040541","145350.794714","146117.445005","146884.23597","147650.991688","148417.031981","150726.994809","Mapping"
"Mixed","Both","tile","27","F_cad.wav","space","458.568781614","111","142301.455","149184.239711","149950.808071","150717.595016","151484.201713","152251.281755","138401.320726","139167.799117","143067.712022","143834.602232","144584.040541","145350.794714","146117.445005","146884.23597","147650.991688","148417.031981","151493.400234","Mapping"
"Mixed","Both","tile","27","F_depth.wav","None","722.965045192","111","142301.455","149184.239711","149950.808071","150717.595016","151484.201713","152251.281755","153017.988933","139167.799117","143067.712022","143834.602232","144584.040541","145350.794714","146117.445005","146884.23597","147650.991688","148417.031981","152260.903843","Mapping"
"Mixed","Both","tile","27","F_jolt.wav","None","721.341267548","111","142301.455","149184.239711","149950.808071","150717.595016","151484.201713","152251.281755","153017.988933","153784.359113","143067.712022","143834.602232","144584.040541","145350.794714","146117.445005","146884.23597","147650.991688","148417.031981","153027.972136","Mapping"
"Mixed","Both","ball","5","M_cling.wav","None","719.837139943","111","156901.136304","149184.239711","149950.808071","150717.595016","151484.201713","152251.281755","153017.988933","153784.359113","143067.712022","143834.602232","144584.040541","145350.794714","146117.445005","146884.23597","147650.991688","148417.031981","153794.799274","Mapping"
"Mixed","Both","ball","5","F_cad.wav","None","722.062568617","111","156901.136304","149184.239711","149950.808071","150717.595016","151484.201713","152251.281755","153017.988933","153784.359113","157667.488243","143834.602232","144584.040541","145350.794714","146117.445005","146884.23597","147650.991688","148417.031981","156910.887009","Mapping"
"Mixed","Both","ball","5","M_bluff.wav","None","721.746593597","111","156901.136304","149184.239711","149950.808071","150717.595016","151484.201713","152251.281755","153017.988933","153784.359113","157667.488243","158434.530256","144584.040541","145350.794714","146117.445005","146884.23597","147650.991688","148417.031981","157676.671924","Mapping"
"Mixed","Both","ball","5","F_park.wav","None","719.403679104","111","156901.136304","149184.239711","149950.808071","150717.595016","151484.201713","152251.281755","153017.988933","153784.359113","157667.488243","158434.530256","159201.018849","145350.794714","146117.445005","146884.23597","147650.991688","148417.031981","158444.705765","Mapping"
"Mixed","Both","ball","5","F_ball.wav","None","719.237962272","111","156901.136304","149184.239711","149950.808071","150717.595016","151484.201713","152251.281755","153017.988933","153784.359113","157667.488243","158434.530256","159201.018849","159950.361934","146117.445005","146884.23597","147650.991688","148417.031981","159210.499955","Mapping"
"Mixed","Both","ball","5","M_greet.wav","space","424.125032121","111","156901.136304","149184.239711","149950.808071","150717.595016","151484.201713","152251.281755","153017.988933","153784.359113","157667.488243","158434.530256","159201.018849","159950.361934","160717.427444","146884.23597","147650.991688","148417.031981","159959.67052","Mapping"
"Mixed","Both","ball","5","M_ball.wav","None","733.453127643","111","156901.136304","149184.239711","149950.808071","150717.595016","151484.201713","152251.281755","153017.988933","153784.359113","157667.488243","158434.530256","159201.018849","159950.361934","160717.427444","161484.034451","147650.991688","148417.031981","160726.884125","Mapping"
"Mixed","Both","ball","5","F_priest.wav","space","354.087718006","111","156901.136304","149184.239711","149950.808071","150717.595016","151484.201713","152251.281755","153017.988933","153784.359113","157667.488243","158434.530256","159201.018849","159950.361934","160717.427444","161484.034451","162250.740702","148417.031981","161493.678181","Mapping"
"Mixed","Both","ball","5","F_lash.wav","None","730.524639104","111","156901.136304","149184.239711","149950.808071","150717.595016","151484.201713","152251.281755","153017.988933","153784.359113","157667.488243","158434.530256","159201.018849","159950.361934","160717.427444","161484.034451","162250.740702","163017.113664","162260.302192","Mapping"
"Mixed","Both","ball","5","F_ball.wav","None","730.13446253","111","156901.136304","163784.12105","149950.808071","150717.595016","151484.201713","152251.281755","153017.988933","153784.359113","157667.488243","158434.530256","159201.018849","159950.361934","160717.427444","161484.034451","162250.740702","163017.113664","163026.16471","Mapping"
"Mixed","Both","ball","5","M_cad.wav","space","342.401898553","111","156901.136304","163784.12105","164550.372198","150717.595016","151484.201713","152251.281755","153017.988933","153784.359113","157667.488243","158434.530256","159201.018849","159950.361934","160717.427444","161484.034451","162250.740702","163017.113664","163793.344614","Mapping"
"Mixed","Both","ball","5","F_cave.wav","None","726.862482523","111","156901.136304","163784.12105","164550.372198","165316.956017","151484.201713","152251.281755","153017.988933","153784.359113","157667.488243","158434.530256","159201.018849","159950.361934","160717.427444","161484.034451","162250.740702","163017.113664","164559.755605","Mapping"
"Mixed","Both","ball","5","M_priest.wav","None","726.080583525","111","156901.136304","163784.12105","164550.372198","165316.956017","166084.456225","152251.281755","153017.988933","153784.359113","157667.488243","158434.530256","159201.018849","159950.361934","160717.427444","161484.034451","162250.740702","163017.113664","165325.826505","Mapping"
"Mixed","Both","ball","5","M_ball.wav","None","722.952369106","111","156901.136304","163784.12105","164550.372198","165316.956017","166084.456225","166851.148254","153017.988933","153784.359113","157667.488243","158434.530256","159201.018849","159950.361934","160717.427444","161484.034451","162250.740702","163017.113664","166094.435408","Mapping"
"Mixed","Both","ball","5","F_romp.wav","space","298.951006262","111","156901.136304","163784.12105","164550.372198","165316.956017","166084.456225","166851.148254","167617.655707","153784.359113","157667.488243","158434.530256","159201.018849","159950.361934","160717.427444","161484.034451","162250.740702","163017.113664","166860.708817","Mapping"
"Mixed","Both","ball","5","M_lash.wav","None","720.802378637","111","156901.136304","163784.12105","164550.372198","165316.956017","166084.456225","166851.148254","167617.655707","168384.303524","157667.488243","158434.530256","159201.018849","159950.361934","160717.427444","161484.034451","162250.740702","163017.113664","167627.642619","Mapping"
"Mixed","Both","cave","14","M_gnash.wav","None","719.824772998","111","171501.038358","163784.12105","164550.372198","165316.956017","166084.456225","166851.148254","167617.655707","168384.303524","157667.488243","158434.530256","159201.018849","159950.361934","160717.427444","161484.034451","162250.740702","163017.113664","168394.177588","Mapping"
"Mixed","Both","cave","14","F_depth.wav","None","721.945701167","111","171501.038358","163784.12105","164550.372198","165316.956017","166084.456225","166851.148254","167617.655707","168384.303524","172267.634853","158434.530256","159201.018849","159950.361934","160717.427444","161484.034451","162250.740702","163017.113664","171510.630457","Mapping"
"Mixed","Both","cave","14","F_dime.wav","None","720.388704911","111","171501.038358","163784.12105","164550.372198","165316.956017","166084.456225","166851.148254","167617.655707","168384.303524","172267.634853","173034.385007","159201.018849","159950.361934","160717.427444","161484.034451","162250.740702","163017.113664","172277.608471","Mapping"
"Mixed","Both","cave","14","M_cave.wav","None","718.988459499","111","171501.038358","163784.12105","164550.372198","165316.956017","166084.456225","166851.148254","167617.655707","168384.303524","172267.634853","173034.385007","173783.832282","159950.361934","160717.427444","161484.034451","162250.740702","163017.113664","173044.514139","Mapping"
"Mixed","Both","cave","14","M_jolt.wav","space","454.317031777","111","171501.038358","163784.12105","164550.372198","165316.956017","166084.456225","166851.148254","167617.655707","168384.303524","172267.634853","173034.385007","173783.832282","174550.322421","160717.427444","161484.034451","162250.740702","163017.113664","173793.194974","Mapping"
"Mixed","Both","cave","14","M_greet.wav","None","734.131144476","111","171501.038358","163784.12105","164550.372198","165316.956017","166084.456225","166851.148254","167617.655707","168384.303524","172267.634853","173034.385007","173783.832282","174550.322421","175316.738668","161484.034451","162250.740702","163017.113664","174559.684495","Mapping"
"Mixed","Both","cave","14","M_romp.wav","None","733.624718763","111","171501.038358","163784.12105","164550.372198","165316.956017","166084.456225","166851.148254","167617.655707","168384.303524","172267.634853","173034.385007","173783.832282","174550.322421","175316.738668","176083.775734","162250.740702","163017.113664","175326.2173","Mapping"
"Mixed","Both","cave","14","F_tile.wav","None","731.926121196","111","171501.038358","163784.12105","164550.372198","165316.956017","166084.456225","166851.148254","167617.655707","168384.303524","172267.634853","173034.385007","173783.832282","174550.322421","175316.738668","176083.775734","176850.465909","163017.113664","176093.224995","Mapping"
"Mixed","Both","cave","14","M_cave.wav","None","731.147004728","111","171501.038358","163784.12105","164550.372198","165316.956017","166084.456225","166851.148254","167617.655707","168384.303524","172267.634853","173034.385007","173783.832282","174550.322421","175316.738668","176083.775734","176850.465909","177616.844436","176859.523137","Mapping"
"Mixed","Both","cave","14","F_dime.wav","space","285.627496371","111","171501.038358","178383.440931","164550.372198","165316.956017","166084.456225","166851.148254","167617.655707","168384.303524","172267.634853","173034.385007","173783.832282","174550.322421","175316.738668","176083.775734","176850.465909","177616.844436","177625.824681","Mapping"
"Mixed","Both","cave","14","F_lash.wav","None","728.714739176","111","171501.038358","178383.440931","179150.467485","165316.956017","166084.456225","166851.148254","167617.655707","168384.303524","172267.634853","173034.385007","173783.832282","174550.322421","175316.738668","176083.775734","176850.465909","177616.844436","178392.242164","Mapping"
"Mixed","Both","cave","14","F_done.wav","None","726.028642413","111","171501.038358","178383.440931","179150.467485","179917.435297","166084.456225","166851.148254","167617.655707","168384.303524","172267.634853","173034.385007","173783.832282","174550.322421","175316.738668","176083.775734","176850.465909","177616.844436","179160.379269","Mapping"
"Mixed","Both","cave","14","F_cave.wav","None","724.80369822","111","171501.038358","178383.440931","179150.467485","179917.435297","180684.122689","166851.148254","167617.655707","168384.303524","172267.634853","173034.385007","173783.832282","174550.322421","175316.738668","176083.775734","176850.465909","177616.844436","179926.996787","Mapping"
"Mixed","Both","cave","14","M_park.wav","space","369.426727935","111","171501.038358","178383.440931","179150.467485","179917.435297","180684.122689","181450.583765","167617.655707","168384.303524","172267.634853","173034.385007","173783.832282","174550.322421","175316.738668","176083.775734","176850.465909","177616.844436","180693.991806","Mapping"
"Mixed","Both","cave","14","F_cave.wav","None","723.071400775","111","171501.038358","178383.440931","179150.467485","179917.435297","180684.122689","181450.583765","182217.5018","168384.303524","172267.634853","173034.385007","173783.832282","174550.322421","175316.738668","176083.775734","176850.465909","177616.844436","181459.782596","Mapping"
"Mixed","Both","cave","14","M_bluff.wav","space","627.592224046","111","171501.038358","178383.440931","179150.467485","179917.435297","180684.122689","181450.583765","182217.5018","182983.999669","172267.634853","173034.385007","173783.832282","174550.322421","175316.738668","176083.775734","176850.465909","177616.844436","182227.817364","Mapping"
"Mixed","Both","ball","12","F_reek.wav","None","719.335351838","111","186100.078437","178383.440931","179150.467485","179917.435297","180684.122689","181450.583765","182217.5018","182983.999669","172267.634853","173034.385007","173783.832282","174550.322421","175316.738668","176083.775734","176850.465909","177616.844436","182993.946698","Mapping"
"Mixed","Both","ball","12","M_ball.wav","None","722.995962511","111","186100.078437","178383.440931","179150.467485","179917.435297","180684.122689","181450.583765","182217.5018","182983.999669","186867.386339","173034.385007","173783.832282","174550.322421","175316.738668","176083.775734","176850.465909","177616.844436","186109.276649","Mapping"
"Mixed","Both","ball","12","M_jaw.wav","space","489.930383454","111","186100.078437","178383.440931","179150.467485","179917.435297","180684.122689","181450.583765","182217.5018","182983.999669","186867.386339","187634.17143","173783.832282","174550.322421","175316.738668","176083.775734","176850.465909","177616.844436","186877.361194","Mapping"
"Mixed","Both","ball","12","F_cave.wav","None","718.578804983","111","186100.078437","178383.440931","179150.467485","179917.435297","180684.122689","181450.583765","182217.5018","182983.999669","186867.386339","187634.17143","188383.490708","174550.322421","175316.738668","176083.775734","176850.465909","177616.844436","187644.212139","Mapping"
"Mixed","Both","ball","12","F_ball.wav","None","735.427198524","111","186100.078437","178383.440931","179150.467485","179917.435297","180684.122689","181450.583765","182217.5018","182983.999669","186867.386339","187634.17143","188383.490708","189150.263431","175316.738668","176083.775734","176850.465909","177616.844436","188392.937495","Mapping"
"Mixed","Both","ball","12","M_reek.wav","space","415.41469557","111","186100.078437","178383.440931","179150.467485","179917.435297","180684.122689","181450.583765","182217.5018","182983.999669","186867.386339","187634.17143","188383.490708","189150.263431","189916.660818","176083.775734","176850.465909","177616.844436","189159.839453","Mapping"
"Mixed","Both","ball","12","M_ball.wav","None","733.119838929","111","186100.078437","178383.440931","179150.467485","179917.435297","180684.122689","181450.583765","182217.5018","182983.999669","186867.386339","187634.17143","188383.490708","189150.263431","189916.660818","190683.631103","176850.465909","177616.844436","189925.697642","Mapping"
"Mixed","Both","ball","12","F_romp.wav","space","521.912495955","111","186100.078437","178383.440931","179150.467485","179917.435297","180684.122689","181450.583765","182217.5018","182983.999669","186867.386339","187634.17143","188383.490708","189150.263431","189916.660818","190683.631103","191449.926154","177616.844436","190693.318118","Mapping"
"Mixed","Both","ball","12","M_done.wav","None","731.234191597","111","186100.078437","178383.440931","179150.467485","179917.435297","180684.122689","181450.583765","182217.5018","182983.999669","186867.386339","187634.17143","188383.490708","189150.263431","189916.660818","190683.631103","191449.926154","192216.883145","191459.130858","Mapping"
"Mixed","Both","ball","12","M_reek.wav","None","729.409451364","111","186100.078437","192983.183142","179150.467485","179917.435297","180684.122689","181450.583765","182217.5018","182983.999669","186867.386339","187634.17143","188383.490708","189150.263431","189916.660818","190683.631103","191449.926154","192216.883145","192226.46133","Mapping"
"Mixed","Both","ball","12","M_depth.wav","None","729.417799041","111","186100.078437","192983.183142","193749.840853","179917.435297","180684.122689","181450.583765","182217.5018","182983.999669","186867.386339","187634.17143","188383.490708","189150.263431","189916.660818","190683.631103","191449.926154","192216.883145","192992.114228","Mapping"
"Mixed","Both","ball","12","M_reek.wav","None","728.064857103","111","186100.078437","192983.183142","193749.840853","194516.583277","180684.122689","181450.583765","182217.5018","182983.999669","186867.386339","187634.17143","188383.490708","189150.263431","189916.660818","190683.631103","191449.926154","192216.883145","193759.114812","Mapping"
"Mixed","Both","ball","12","F_ball.wav","None","727.225761075","111","186100.078437","192983.183142","193749.840853","194516.583277","195283.450917","181450.583765","182217.5018","182983.999669","186867.386339","187634.17143","188383.490708","189150.263431","189916.660818","190683.631103","191449.926154","192216.883145","194525.428723","Mapping"
"Mixed","Both","ball","12","F_done.wav","space","449.996027135","111","186100.078437","192983.183142","193749.840853","194516.583277","195283.450917","196050.692965","182217.5018","182983.999669","186867.386339","187634.17143","188383.490708","189150.263431","189916.660818","190683.631103","191449.926154","192216.883145","195293.160192","Mapping"
"Mixed","Both","ball","12","F_reek.wav","None","723.061507248","111","186100.078437","192983.183142","193749.840853","194516.583277","195283.450917","196050.692965","196816.966065","182983.999669","186867.386339","187634.17143","188383.490708","189150.263431","189916.660818","190683.631103","191449.926154","192216.883145","196060.243944","Mapping"
"Mixed","Both","ball","12","F_cave.wav","None","722.651234391","111","186100.078437","192983.183142","193749.840853","194516.583277","195283.450917","196050.692965","196816.966065","197583.858747","186867.386339","187634.17143","188383.490708","189150.263431","189916.660818","190683.631103","191449.926154","192216.883145","196826.214363","Mapping"
"Mixed","Both","done","46","F_cling.wav","None","720.875652711","111","200700.02223","192983.183142","193749.840853","194516.583277","195283.450917","196050.692965","196816.966065","197583.858747","186867.386339","187634.17143","188383.490708","189150.263431","189916.660818","190683.631103","191449.926154","192216.883145","197593.791864","Mapping"
"Mixed","Both","done","46","M_knife.wav","None","722.759445023","111","200700.02223","192983.183142","193749.840853","194516.583277","195283.450917","196050.692965","196816.966065","197583.858747","201467.102271","187634.17143","188383.490708","189150.263431","189916.660818","190683.631103","191449.926154","192216.883145","200709.435935","Mapping"
"Mixed","Both","done","46","F_knife.wav","None","721.076615271","111","200700.02223","192983.183142","193749.840853","194516.583277","195283.450917","196050.692965","196816.966065","197583.858747","201467.102271","202233.807286","188383.490708","189150.263431","189916.660818","190683.631103","191449.926154","192216.883145","201476.762697","Mapping"
"Mixed","Both","done","46","F_cad.wav","None","719.457784406","111","200700.02223","192983.183142","193749.840853","194516.583277","195283.450917","196050.692965","196816.966065","197583.858747","201467.102271","202233.807286","203000.265889","189150.263431","189916.660818","190683.631103","191449.926154","192216.883145","202243.987741","Mapping"
"Mixed","Both","done","46","F_bluff.wav","None","719.165615737","111","200700.02223","192983.183142","193749.840853","194516.583277","195283.450917","196050.692965","196816.966065","197583.858747","201467.102271","202233.807286","203000.265889","203749.771289","189916.660818","190683.631103","191449.926154","192216.883145","203009.92817","Mapping"
"Mixed","Both","done","46","F_done.wav","None","735.727405699","111","200700.02223","192983.183142","193749.840853","194516.583277","195283.450917","196050.692965","196816.966065","197583.858747","201467.102271","202233.807286","203000.265889","203749.771289","204516.625943","190683.631103","191449.926154","192216.883145","203758.924671","Mapping"
"Mixed","Both","done","46","M_depth.wav","space","328.698724014","111","200700.02223","192983.183142","193749.840853","194516.583277","195283.450917","196050.692965","196816.966065","197583.858747","201467.102271","202233.807286","203000.265889","203749.771289","204516.625943","205283.293857","191449.926154","192216.883145","204526.305229","Mapping"
"Mixed","Both","done","46","M_done.wav","None","732.101422414","111","200700.02223","192983.183142","193749.840853","194516.583277","195283.450917","196050.692965","196816.966065","197583.858747","201467.102271","202233.807286","203000.265889","203749.771289","204516.625943","205283.293857","206049.947549","192216.883145","205293.033431","Mapping"
"Mixed","Both","done","46","M_greet.wav","space","523.9041897","111","200700.02223","192983.183142","193749.840853","194516.583277","195283.450917","196050.692965","196816.966065","197583.858747","201467.102271","202233.807286","203000.265889","203749.771289","204516.625943","205283.293857","206049.947549","206816.333496","206059.082689","Mapping"
"Mixed","Both","done","46","F_done.wav","None","730.813097704","111","200700.02223","207583.229889","193749.840853","194516.583277","195283.450917","196050.692965","196816.966065","197583.858747","201467.102271","202233.807286","203000.265889","203749.771289","204516.625943","205283.293857","206049.947549","206816.333496","206825.22439","Mapping"
"Mixed","Both","done","46","F_dime.wav","space","446.388285054","111","200700.02223","207583.229889","208349.912952","194516.583277","195283.450917","196050.692965","196816.966065","197583.858747","201467.102271","202233.807286","203000.265889","203749.771289","204516.625943","205283.293857","206049.947549","206816.333496","207592.556408","Mapping"
"Mixed","Both","done","46","M_reek.wav","None","727.244311449","111","200700.02223","207583.229889","208349.912952","209116.6056","195283.450917","196050.692965","196816.966065","197583.858747","201467.102271","202233.807286","203000.265889","203749.771289","204516.625943","205283.293857","206049.947549","206816.333496","208359.435796","Mapping"
"Mixed","Both","done","46","M_romp.wav","None","726.032970852","111","200700.02223","207583.229889","208349.912952","209116.6056","209882.903124","196050.692965","196816.966065","197583.858747","201467.102271","202233.807286","203000.265889","203749.771289","204516.625943","205283.293857","206049.947549","206816.333496","209126.262625","Mapping"
"Mixed","Both","done","46","F_park.wav","None","726.091713761","111","200700.02223","207583.229889","208349.912952","209116.6056","209882.903124","210650.267605","196816.966065","197583.858747","201467.102271","202233.807286","203000.265889","203749.771289","204516.625943","205283.293857","206049.947549","206816.333496","209891.870383","Mapping"
"Mixed","Both","done","46","M_done.wav","None","723.270199145","111","200700.02223","207583.229889","208349.912952","209116.6056","209882.903124","210650.267605","211416.898418","197583.858747","201467.102271","202233.807286","203000.265889","203749.771289","204516.625943","205283.293857","206049.947549","206816.333496","210660.282034","Mapping"
"Mixed","Both","done","46","M_park.wav","space","547.942096804","111","200700.02223","207583.229889","208349.912952","209116.6056","209882.903124","210650.267605","211416.898418","212183.214801","201467.102271","202233.807286","203000.265889","203749.771289","204516.625943","205283.293857","206049.947549","206816.333496","211426.909446","Mapping"
"Mixed","Both","tile","35","F_knife.wav","None","721.340958349","111","215300.31075","207583.229889","208349.912952","209116.6056","209882.903124","210650.267605","211416.898418","212183.214801","201467.102271","202233.807286","203000.265889","203749.771289","204516.625943","205283.293857","206049.947549","206816.333496","212192.759906","Mapping"
"Mixed","Both","tile","35","M_tile.wav","None","722.130895883","111","215300.31075","207583.229889","208349.912952","209116.6056","209882.903124","210650.267605","211416.898418","212183.214801","216066.409785","202233.807286","203000.265889","203749.771289","204516.625943","205283.293857","206049.947549","206816.333496","215309.770213","Mapping"
"Mixed","Both","tile","35","F_cave.wav","space","354.467382684","111","215300.31075","207583.229889","208349.912952","209116.6056","209882.903124","210650.267605","211416.898418","212183.214801","216066.409785","216833.501266","203000.265889","203749.771289","204516.625943","205283.293857","206049.947549","206816.333496","216076.346302","Mapping"
"Mixed","Both","tile","35","M_gnash.wav","None","718.919823034","111","215300.31075","207583.229889","208349.912952","209116.6056","209882.903124","210650.267605","211416.898418","212183.214801","216066.409785","216833.501266","217600.219266","203749.771289","204516.625943","205283.293857","206049.947549","206816.333496","216843.761797","Mapping"
"Mixed","Both","tile","35","F_tile.wav","None","711.183691252","111","215300.31075","207583.229889","208349.912952","209116.6056","209882.903124","210650.267605","211416.898418","212183.214801","216066.409785","216833.501266","217600.219266","218349.613054","204516.625943","205283.293857","206049.947549","206816.333496","217617.414551","Mapping"
"Mixed","Both","tile","35","M_cave.wav","space","663.23711141","111","215300.31075","207583.229889","208349.912952","209116.6056","209882.903124","210650.267605","211416.898418","212183.214801","216066.409785","216833.501266","217600.219266","218349.613054","219116.058054","205283.293857","206049.947549","206816.333496","218359.521746","Mapping"
"Mixed","Both","tile","35","F_bluff.wav","None","733.911013143","111","215300.31075","207583.229889","208349.912952","209116.6056","209882.903124","210650.267605","211416.898418","212183.214801","216066.409785","216833.501266","217600.219266","218349.613054","219116.058054","219883.064512","206049.947549","206816.333496","219125.491238","Mapping"
"Mixed","Both","tile","35","M_tile.wav","None","732.878065493","111","215300.31075","207583.229889","208349.912952","209116.6056","209882.903124","210650.267605","211416.898418","212183.214801","216066.409785","216833.501266","217600.219266","218349.613054","219116.058054","219883.064512","220649.557743","206816.333496","219892.752764","Mapping"
"Mixed","Both","tile","35","F_depth.wav","space","387.549842591","111","215300.31075","207583.229889","208349.912952","209116.6056","209882.903124","210650.267605","211416.898418","212183.214801","216066.409785","216833.501266","217600.219266","218349.613054","219116.058054","219883.064512","220649.557743","221416.084983","220659.16561","Mapping"
"Mixed","Both","tile","35","M_done.wav","None","730.304507772","111","215300.31075","222182.995598","208349.912952","209116.6056","209882.903124","210650.267605","211416.898418","212183.214801","216066.409785","216833.501266","217600.219266","218349.613054","219116.058054","219883.064512","220649.557743","221416.084983","221426.114871","Mapping"
"Mixed","Both","tile","35","F_romp.wav","None","728.899315611","111","215300.31075","222182.995598","222949.366087","209116.6056","209882.903124","210650.267605","211416.898418","212183.214801","216066.409785","216833.501266","217600.219266","218349.613054","219116.058054","219883.064512","220649.557743","221416.084983","222193.345171","Mapping"
"Mixed","Both","tile","35","M_priest.wav","None","729.279907799","111","215300.31075","222182.995598","222949.366087","223716.28474","209882.903124","210650.267605","211416.898418","212183.214801","216066.409785","216833.501266","217600.219266","218349.613054","219116.058054","219883.064512","220649.557743","221416.084983","222958.866361","Mapping"
"Mixed","Both","tile","35","F_cave.wav","None","727.738679387","111","215300.31075","222182.995598","222949.366087","223716.28474","224482.859592","210650.267605","211416.898418","212183.214801","216066.409785","216833.501266","217600.219266","218349.613054","219116.058054","219883.064512","220649.557743","221416.084983","223726.212291","Mapping"
"Mixed","Both","tile","35","M_cave.wav","None","727.443418989","111","215300.31075","222182.995598","222949.366087","223716.28474","224482.859592","225249.530907","211416.898418","212183.214801","216066.409785","216833.501266","217600.219266","218349.613054","219116.058054","219883.064512","220649.557743","221416.084983","224492.688827","Mapping"
"Mixed","Both","tile","35","F_tile.wav","None","726.591646817","111","215300.31075","222182.995598","222949.366087","223716.28474","224482.859592","225249.530907","226015.911908","212183.214801","216066.409785","216833.501266","217600.219266","218349.613054","219116.058054","219883.064512","220649.557743","221416.084983","225259.279756","Mapping"
"Mixed","Both","tile","35","M_dime.wav","space","357.183469256","111","215300.31075","222182.995598","222949.366087","223716.28474","224482.859592","225249.530907","226015.911908","226782.974327","216066.409785","216833.501266","217600.219266","218349.613054","219116.058054","219883.064512","220649.557743","221416.084983","226025.425786","Mapping"
"Mixed","Both","cave","13","M_romp.wav","None","724.434236239","111","229916.655253","222182.995598","222949.366087","223716.28474","224482.859592","225249.530907","226015.911908","226782.974327","216066.409785","216833.501266","217600.219266","218349.613054","219116.058054","219883.064512","220649.557743","221416.084983","226792.484494","Mapping"
"Mixed","Both","cave","13","F_knife.wav","None","720.900386543","111","229916.655253","222182.995598","222949.366087","223716.28474","224482.859592","225249.530907","226015.911908","226782.974327","230683.078611","216833.501266","217600.219266","218349.613054","219116.058054","219883.064512","220649.557743","221416.084983","229926.580331","Mapping"
"Mixed","Both","cave","13","F_cave.wav","None","719.424084527","111","229916.655253","222182.995598","222949.366087","223716.28474","224482.859592","225249.530907","226015.911908","226782.974327","230683.078611","231449.735394","217600.219266","218349.613054","219116.058054","219883.064512","220649.557743","221416.084983","230693.708913","Mapping"
"Mixed","Both","cave","13","F_reek.wav","space","346.65024752","111","229916.655253","222182.995598","222949.366087","223716.28474","224482.859592","225249.530907","226015.911908","226782.974327","230683.078611","231449.735394","232199.182979","218349.613054","219116.058054","219883.064512","220649.557743","221416.084983","231459.880603","Mapping"
"Mixed","Both","cave","13","M_cling.wav","None","734.644990327","111","229916.655253","222182.995598","222949.366087","223716.28474","224482.859592","225249.530907","226015.911908","226782.974327","230683.078611","231449.735394","232199.182979","232966.135332","219116.058054","219883.064512","220649.557743","221416.084983","232209.10682","Mapping"
"Mixed","Both","cave","13","F_priest.wav","None","733.168997453","111","229916.655253","222182.995598","222949.366087","223716.28474","224482.859592","225249.530907","226015.911908","226782.974327","230683.078611","231449.735394","232199.182979","232966.135332","233732.811902","219883.064512","220649.557743","221416.084983","232976.374221","Mapping"
"Mixed","Both","cave","13","M_park.wav","None","731.959202763","111","229916.655253","222182.995598","222949.366087","223716.28474","224482.859592","225249.530907","226015.911908","226782.974327","230683.078611","231449.735394","232199.182979","232966.135332","233732.811902","234498.927942","220649.557743","221416.084983","233743.202286","Mapping"
"Mixed","Both","cave","13","F_lash.wav","None","732.900325966","111","229916.655253","222182.995598","222949.366087","223716.28474","224482.859592","225249.530907","226015.911908","226782.974327","230683.078611","231449.735394","232199.182979","232966.135332","233732.811902","234498.927942","235266.065799","221416.084983","234509.479405","Mapping"
"Mixed","Both","cave","13","F_depth.wav","None","732.068031735","111","229916.655253","222182.995598","222949.366087","223716.28474","224482.859592","225249.530907","226015.911908","226782.974327","230683.078611","231449.735394","232199.182979","232966.135332","233732.811902","234498.927942","235266.065799","236032.371671","235276.060441","Mapping"
"Mixed","Both","cave","13","M_cave.wav","None","732.490053109","111","229916.655253","236799.405027","222949.366087","223716.28474","224482.859592","225249.530907","226015.911908","226782.974327","230683.078611","231449.735394","232199.182979","232966.135332","233732.811902","234498.927942","235266.065799","236032.371671","236041.983556","Mapping"
"Mixed","Both","cave","13","M_lash.wav","space","293.324054015","111","229916.655253","236799.405027","237565.78541","223716.28474","224482.859592","225249.530907","226015.911908","226782.974327","230683.078611","231449.735394","232199.182979","232966.135332","233732.811902","234498.927942","235266.065799","236032.371671","236809.087404","Mapping"
"Mixed","Both","cave","13","M_cave.wav","None","729.42181828","111","229916.655253","236799.405027","237565.78541","238332.770226","224482.859592","225249.530907","226015.911908","226782.974327","230683.078611","231449.735394","232199.182979","232966.135332","233732.811902","234498.927942","235266.065799","236032.371671","237575.669986","Mapping"
"Mixed","Both","cave","13","M_park.wav","space","448.001241632","111","229916.655253","236799.405027","237565.78541","238332.770226","239099.087846","225249.530907","226015.911908","226782.974327","230683.078611","231449.735394","232199.182979","232966.135332","233732.811902","234498.927942","235266.065799","236032.371671","238342.42014","Mapping"
"Mixed","Both","cave","13","F_cave.wav","None","727.979525313","111","229916.655253","236799.405027","237565.78541","238332.770226","239099.087846","239865.991968","226015.911908","226782.974327","230683.078611","231449.735394","232199.182979","232966.135332","233732.811902","234498.927942","235266.065799","236032.371671","239108.413438","Mapping"
"Mixed","Both","cave","13","F_tile.wav","space","490.470818244","111","229916.655253","236799.405027","237565.78541","238332.770226","239099.087846","239865.991968","240632.903201","226782.974327","230683.078611","231449.735394","232199.182979","232966.135332","233732.811902","234498.927942","235266.065799","236032.371671","239875.910554","Mapping"
"Mixed","Both","cave","13","M_depth.wav","None","724.151033588","111","229916.655253","236799.405027","237565.78541","238332.770226","239099.087846","239865.991968","240632.903201","241399.568332","230683.078611","231449.735394","232199.182979","232966.135332","233732.811902","234498.927942","235266.065799","236032.371671","240642.954422","Mapping"
"Mixed","Both","ball","8","F_jaw.wav","None","723.17002702","111","244532.93112","236799.405027","237565.78541","238332.770226","239099.087846","239865.991968","240632.903201","241399.568332","230683.078611","231449.735394","232199.182979","232966.135332","233732.811902","234498.927942","235266.065799","236032.371671","241409.745696","Mapping"
"Mixed","Both","ball","8","M_ball.wav","None","721.53882921","111","244532.93112","236799.405027","237565.78541","238332.770226","239099.087846","239865.991968","240632.903201","241399.568332","245299.493605","231449.735394","232199.182979","232966.135332","233732.811902","234498.927942","235266.065799","236032.371671","244543.054069","Mapping"
"Mixed","Both","ball","8","M_cling.wav","space","369.209997531","111","244532.93112","236799.405027","237565.78541","238332.770226","239099.087846","239865.991968","240632.903201","241399.568332","245299.493605","246065.745063","232199.182979","232966.135332","233732.811902","234498.927942","235266.065799","236032.371671","245309.063752","Mapping"
"Mixed","Both","ball","8","M_ball.wav","None","719.539406127","111","244532.93112","236799.405027","237565.78541","238332.770226","239099.087846","239865.991968","240632.903201","241399.568332","245299.493605","246065.745063","246832.974126","232966.135332","233732.811902","234498.927942","235266.065799","236032.371671","246076.187078","Mapping"
"Mixed","Both","ball","8","F_gnash.wav","space","314.377512201","111","244532.93112","236799.405027","237565.78541","238332.770226","239099.087846","239865.991968","240632.903201","241399.568332","245299.493605","246065.745063","246832.974126","247582.221057","233732.811902","234498.927942","235266.065799","236032.371671","246843.850839","Mapping"
"Mixed","Both","ball","8","F_ball.wav","None","734.83822358","111","244532.93112","236799.405027","237565.78541","238332.770226","239099.087846","239865.991968","240632.903201","241399.568332","245299.493605","246065.745063","246832.974126","247582.221057","248349.028717","234498.927942","235266.065799","236032.371671","247591.73679","Mapping"
"Mixed","Both","ball","8","F_bluff.wav","space","399.410344893","111","244532.93112","236799.405027","237565.78541","238332.770226","239099.087846","239865.991968","240632.903201","241399.568332","245299.493605","246065.745063","246832.974126","247582.221057","248349.028717","249116.026518","235266.065799","236032.371671","248358.811575","Mapping"
"Mixed","Both","ball","8","F_lash.wav","None","731.490496168","111","244532.93112","236799.405027","237565.78541","238332.770226","239099.087846","239865.991968","240632.903201","241399.568332","245299.493605","246065.745063","246832.974126","247582.221057","248349.028717","249116.026518","249882.444311","236032.371671","249125.896873","Mapping"
"Mixed","Both","ball","8","M_priest.wav","None","730.645216652","111","244532.93112","236799.405027","237565.78541","238332.770226","239099.087846","239865.991968","240632.903201","241399.568332","245299.493605","246065.745063","246832.974126","247582.221057","248349.028717","249116.026518","249882.444311","250649.108515","249892.603433","Mapping"
"Mixed","Both","ball","8","M_bluff.wav","None","730.16197895","111","244532.93112","251415.484878","237565.78541","238332.770226","239099.087846","239865.991968","240632.903201","241399.568332","245299.493605","246065.745063","246832.974126","247582.221057","248349.028717","249116.026518","249882.444311","250649.108515","250658.89632","Mapping"
"Mixed","Both","ball","8","M_romp.wav","space","500.355703756","111","244532.93112","251415.484878","252182.151864","238332.770226","239099.087846","239865.991968","240632.903201","241399.568332","245299.493605","246065.745063","246832.974126","247582.221057","248349.028717","249116.026518","249882.444311","250649.108515","251425.814045","Mapping"
"Mixed","Both","ball","8","F_romp.wav","None","728.177086974","111","244532.93112","251415.484878","252182.151864","252949.08814","239099.087846","239865.991968","240632.903201","241399.568332","245299.493605","246065.745063","246832.974126","247582.221057","248349.028717","249116.026518","249882.444311","250649.108515","252191.744581","Mapping"
"Mixed","Both","ball","8","M_knife.wav","None","727.032218623","111","244532.93112","251415.484878","252182.151864","252949.08814","253715.760691","239865.991968","240632.903201","241399.568332","245299.493605","246065.745063","246832.974126","247582.221057","248349.028717","249116.026518","249882.444311","250649.108515","252958.781957","Mapping"
"Mixed","Both","ball","8","M_knife.wav","None","727.121878881","111","244532.93112","251415.484878","252182.151864","252949.08814","253715.760691","254482.432006","240632.903201","241399.568332","245299.493605","246065.745063","246832.974126","247582.221057","248349.028717","249116.026518","249882.444311","250649.108515","253725.134514","Mapping"
"Mixed","Both","ball","8","F_ball.wav","None","725.144097902","111","244532.93112","251415.484878","252182.151864","252949.08814","253715.760691","254482.432006","255249.243067","241399.568332","245299.493605","246065.745063","246832.974126","247582.221057","248349.028717","249116.026518","249882.444311","250649.108515","254493.12507","Mapping"
"Mixed","Both","ball","8","F_jaw.wav","space","459.051091777","111","244532.93112","251415.484878","252182.151864","252949.08814","253715.760691","254482.432006","255249.243067","256016.061548","245299.493605","246065.745063","246832.974126","247582.221057","248349.028717","249116.026518","249882.444311","250649.108515","255259.028398","Mapping"
"Mixed","Both","cave","23","F_ball.wav","None","722.934127873","111","259149.420625","251415.484878","252182.151864","252949.08814","253715.760691","254482.432006","255249.243067","256016.061548","245299.493605","246065.745063","246832.974126","247582.221057","248349.028717","249116.026518","249882.444311","250649.108515","256026.062682","Mapping"
"Mixed","Both","cave","23","M_lash.wav","None","721.564181411","111","259149.420625","251415.484878","252182.151864","252949.08814","253715.760691","254482.432006","255249.243067","256016.061548","259916.058549","246065.745063","246832.974126","247582.221057","248349.028717","249116.026518","249882.444311","250649.108515","259159.438764","Mapping"
"Mixed","Both","cave","23","F_cave.wav","None","720.555658452","111","259149.420625","251415.484878","252182.151864","252949.08814","253715.760691","254482.432006","255249.243067","256016.061548","259916.058549","260682.773457","246832.974126","247582.221057","248349.028717","249116.026518","249882.444311","250649.108515","259926.433165","Mapping"
"Mixed","Both","cave","23","M_knife.wav","space","409.062732157","111","259149.420625","251415.484878","252182.151864","252949.08814","253715.760691","254482.432006","255249.243067","256016.061548","259916.058549","260682.773457","261449.345218","247582.221057","248349.028717","249116.026518","249882.444311","250649.108515","260692.926395","Mapping"
"Mixed","Both","cave","23","F_reek.wav","None","718.420199148","111","259149.420625","251415.484878","252182.151864","252949.08814","253715.760691","254482.432006","255249.243067","256016.061548","259916.058549","260682.773457","261449.345218","262198.808261","248349.028717","249116.026518","249882.444311","250649.108515","261459.326874","Mapping"
"Mixed","Both","cave","23","F_cave.wav","None","735.555814579","111","259149.420625","251415.484878","252182.151864","252949.08814","253715.760691","254482.432006","255249.243067","256016.061548","259916.058549","260682.773457","261449.345218","262198.808261","262965.397335","249116.026518","249882.444311","250649.108515","262208.621418","Mapping"
"Mixed","Both","cave","23","M_ball.wav","space","478.490047564","111","259149.420625","251415.484878","252182.151864","252949.08814","253715.760691","254482.432006","255249.243067","256016.061548","259916.058549","260682.773457","261449.345218","262198.808261","262965.397335","263732.213034","249882.444311","250649.108515","262975.473599","Mapping"
"Mixed","Both","cave","23","F_cad.wav","None","733.082119812","111","259149.420625","251415.484878","252182.151864","252949.08814","253715.760691","254482.432006","255249.243067","256016.061548","259916.058549","260682.773457","261449.345218","262198.808261","262965.397335","263732.213034","264498.888677","250649.108515","263741.998675","Mapping"
"Mixed","Both","cave","23","M_cad.wav","None","733.131896675","111","259149.420625","251415.484878","252182.151864","252949.08814","253715.760691","254482.432006","255249.243067","256016.061548","259916.058549","260682.773457","261449.345218","262198.808261","262965.397335","263732.213034","264498.888677","265265.517944","264508.088125","Mapping"
"Mixed","Both","cave","23","M_dime.wav","None","731.796268461","111","259149.420625","266032.201007","252182.151864","252949.08814","253715.760691","254482.432006","255249.243067","256016.061548","259916.058549","260682.773457","261449.345218","262198.808261","262965.397335","263732.213034","264498.888677","265265.517944","265275.485688","Mapping"
"Mixed","Both","cave","23","F_greet.wav","None","731.190907332","111","259149.420625","266032.201007","266798.83924","252949.08814","253715.760691","254482.432006","255249.243067","256016.061548","259916.058549","260682.773457","261449.345218","262198.808261","262965.397335","263732.213034","264498.888677","265265.517944","266041.940272","Mapping"
"Mixed","Both","cave","23","M_cave.wav","None","730.33820765","111","259149.420625","266032.201007","266798.83924","267565.274656","253715.760691","254482.432006","255249.243067","256016.061548","259916.058549","260682.773457","261449.345218","262198.808261","262965.397335","263732.213034","264498.888677","265265.517944","266808.785342","Mapping"
"Mixed","Both","cave","23","M_cad.wav","space","503.09466914","111","259149.420625","266032.201007","266798.83924","267565.274656","268332.175995","254482.432006","255249.243067","256016.061548","259916.058549","260682.773457","261449.345218","262198.808261","262965.397335","263732.213034","264498.888677","265265.517944","267574.780186","Mapping"
"Mixed","Both","cave","23","F_lash.wav","None","728.469255671","111","259149.420625","266032.201007","266798.83924","267565.274656","268332.175995","269098.792586","255249.243067","256016.061548","259916.058549","260682.773457","261449.345218","262198.808261","262965.397335","263732.213034","264498.888677","265265.517944","268341.822508","Mapping"
"Mixed","Both","cave","23","M_cave.wav","None","727.291924122","111","259149.420625","266032.201007","266798.83924","267565.274656","268332.175995","269098.792586","269865.956104","256016.061548","259916.058549","260682.773457","261449.345218","262198.808261","262965.397335","263732.213034","264498.888677","265265.517944","269108.814126","Mapping"
"Mixed","Both","cave","23","F_dime.wav","space","514.177600824","111","259149.420625","266032.201007","266798.83924","267565.274656","268332.175995","269098.792586","269865.956104","270632.235078","259916.058549","260682.773457","261449.345218","262198.808261","262965.397335","263732.213034","264498.888677","265265.517944","269875.661669","Mapping"
"Mixed","Both","done","39","F_park.wav","None","725.155537308","111","273765.716588","266032.201007","266798.83924","267565.274656","268332.175995","269098.792586","269865.956104","270632.235078","259916.058549","260682.773457","261449.345218","262198.808261","262965.397335","263732.213034","264498.888677","265265.517944","270641.887774","Mapping"
"Mixed","Both","done","39","M_knife.wav","None","721.051881439","111","273765.716588","266032.201007","266798.83924","267565.274656","268332.175995","269098.792586","269865.956104","270632.235078","274532.563204","260682.773457","261449.345218","262198.808261","262965.397335","263732.213034","264498.888677","265265.517944","273775.727616","Mapping"
"Mixed","Both","done","39","F_cad.wav","None","720.16177178","111","273765.716588","266032.201007","266798.83924","267565.274656","268332.175995","269098.792586","269865.956104","270632.235078","274532.563204","275298.24671","261449.345218","262198.808261","262965.397335","263732.213034","264498.888677","265265.517944","274542.749842","Mapping"
"Mixed","Both","done","39","M_jolt.wav","None","723.909569293","111","273765.716588","266032.201007","266798.83924","267565.274656","268332.175995","269098.792586","269865.956104","270632.235078","274532.563204","275298.24671","276065.739188","262198.808261","262965.397335","263732.213034","264498.888677","265265.517944","275307.380923","Mapping"
"Mixed","Both","done","39","M_cad.wav","None","721.071977692","111","273765.716588","266032.201007","266798.83924","267565.274656","268332.175995","269098.792586","269865.956104","270632.235078","274532.563204","275298.24671","276065.739188","276831.934067","262965.397335","263732.213034","264498.888677","265265.517944","276076.311366","Mapping"
"Mixed","Both","done","39","M_knife.wav","None","721.65167745","111","273765.716588","266032.201007","266798.83924","267565.274656","268332.175995","269098.792586","269865.956104","270632.235078","274532.563204","275298.24671","276065.739188","276831.934067","277599.051518","263732.213034","264498.888677","265265.517944","276841.844614","Mapping"
"Mixed","Both","done","39","F_done.wav","None","720.425805688","111","273765.716588","266032.201007","266798.83924","267565.274656","268332.175995","269098.792586","269865.956104","270632.235078","274532.563204","275298.24671","276065.739188","276831.934067","277599.051518","278365.422626","264498.888677","265265.517944","277609.040286","Mapping"
"Mixed","Both","done","39","F_cling.wav","space","494.72813317","111","273765.716588","266032.201007","266798.83924","267565.274656","268332.175995","269098.792586","269865.956104","270632.235078","274532.563204","275298.24671","276065.739188","276831.934067","277599.051518","278365.422626","279115.340463","265265.517944","278374.939904","Mapping"
"Mixed","Both","done","39","M_done.wav","None","735.303529247","111","273765.716588","266032.201007","266798.83924","267565.274656","268332.175995","269098.792586","269865.956104","270632.235078","274532.563204","275298.24671","276065.739188","276831.934067","277599.051518","278365.422626","279115.340463","279881.619128","279125.271415","Mapping"
"Mixed","Both","done","39","F_tile.wav","space","450.800804974","111","273765.716588","280648.630842","266798.83924","267565.274656","268332.175995","269098.792586","269865.956104","270632.235078","274532.563204","275298.24671","276065.739188","276831.934067","277599.051518","278365.422626","279115.340463","279881.619128","279890.876701","Mapping"
"Mixed","Both","done","39","M_bluff.wav","None","732.617741654","111","273765.716588","280648.630842","281415.241249","267565.274656","268332.175995","269098.792586","269865.956104","270632.235078","274532.563204","275298.24671","276065.739188","276831.934067","277599.051518","278365.422626","279115.340463","279881.619128","280659.044723","Mapping"
"Mixed","Both","done","39","F_dime.wav","None","732.518806239","111","273765.716588","280648.630842","281415.241249","282181.909163","268332.175995","269098.792586","269865.956104","270632.235078","274532.563204","275298.24671","276065.739188","276831.934067","277599.051518","278365.422626","279115.340463","279881.619128","281425.108203","Mapping"
"Mixed","Both","done","39","F_done.wav","None","732.424817572","111","273765.716588","280648.630842","281415.241249","282181.909163","282948.546469","269098.792586","269865.956104","270632.235078","274532.563204","275298.24671","276065.739188","276831.934067","277599.051518","278365.422626","279115.340463","279881.619128","282191.584429","Mapping"
"Mixed","Both","done","39","F_jolt.wav","space","463.487108878","111","273765.716588","280648.630842","281415.241249","282181.909163","282948.546469","283714.966734","269865.956104","270632.235078","274532.563204","275298.24671","276065.739188","276831.934067","277599.051518","278365.422626","279115.340463","279881.619128","282958.111669","Mapping"
"Mixed","Both","done","39","M_done.wav","None","730.398187239","111","273765.716588","280648.630842","281415.241249","282181.909163","282948.546469","283714.966734","284481.863127","270632.235078","274532.563204","275298.24671","276065.739188","276831.934067","277599.051518","278365.422626","279115.340463","279881.619128","283724.506892","Mapping"
"Mixed","Both","done","39","M_cling.wav","space","522.036474402","111","273765.716588","280648.630842","281415.241249","282181.909163","282948.546469","283714.966734","284481.863127","285248.834958","274532.563204","275298.24671","276065.739188","276831.934067","277599.051518","278365.422626","279115.340463","279881.619128","284491.530046","Mapping"
"Mixed","Both","cave","22","F_cad.wav","None","726.9252447","111","288382.189707","280648.630842","281415.241249","282181.909163","282948.546469","283714.966734","284481.863127","285248.834958","274532.563204","275298.24671","276065.739188","276831.934067","277599.051518","278365.422626","279115.340463","279881.619128","285259.227815","Mapping"
"Mixed","Both","cave","22","F_cave.wav","None","720.969332178","111","288382.189707","280648.630842","281415.241249","282181.909163","282948.546469","283714.966734","284481.863127","285248.834958","289148.930276","275298.24671","276065.739188","276831.934067","277599.051518","278365.422626","279115.340463","279881.619128","288392.667896","Mapping"
"Mixed","Both","cave","22","M_priest.wav","space","566.338520555","111","288382.189707","280648.630842","281415.241249","282181.909163","282948.546469","283714.966734","284481.863127","285248.834958","289148.930276","289915.274795","276065.739188","276831.934067","277599.051518","278365.422626","279115.340463","279881.619128","289159.175967","Mapping"
"Mixed","Both","cave","22","M_dime.wav","None","719.626592967","111","288382.189707","280648.630842","281415.241249","282181.909163","282948.546469","283714.966734","284481.863127","285248.834958","289148.930276","289915.274795","290681.703408","276831.934067","277599.051518","278365.422626","279115.340463","279881.619128","289925.063837","Mapping"
"Mixed","Both","cave","22","M_cave.wav","None","718.940228486","111","288382.189707","280648.630842","281415.241249","282181.909163","282948.546469","283714.966734","284481.863127","285248.834958","289148.930276","289915.274795","290681.703408","291431.861473","277599.051518","278365.422626","279115.340463","279881.619128","290691.8514","Mapping"
"Mixed","Both","cave","22","M_ball.wav","space","651.405980578","111","288382.189707","280648.630842","281415.241249","282181.909163","282948.546469","283714.966734","284481.863127","285248.834958","289148.930276","289915.274795","290681.703408","291431.861473","292198.201045","278365.422626","279115.340463","279881.619128","291442.042547","Mapping"
"Mixed","Both","cave","22","M_cave.wav","None","733.901119616","111","288382.189707","280648.630842","281415.241249","282181.909163","282948.546469","283714.966734","284481.863127","285248.834958","289148.930276","289915.274795","290681.703408","291431.861473","292198.201045","292965.041168","279115.340463","279881.619128","292207.953295","Mapping"
"Mixed","Both","cave","22","M_bluff.wav","space","446.907077683","111","288382.189707","280648.630842","281415.241249","282181.909163","282948.546469","283714.966734","284481.863127","285248.834958","289148.930276","289915.274795","290681.703408","291431.861473","292198.201045","292965.041168","293731.40671","279881.619128","292974.509906","Mapping"
"Mixed","Both","cave","22","F_park.wav","None","732.466555957","111","288382.189707","280648.630842","281415.241249","282181.909163","282948.546469","283714.966734","284481.863127","285248.834958","289148.930276","289915.274795","290681.703408","291431.861473","292198.201045","292965.041168","293731.40671","294498.347624","293740.527629","Mapping"
"Mixed","Both","cave","22","F_cave.wav","None","731.296644575","111","288382.189707","295264.602791","281415.241249","282181.909163","282948.546469","283714.966734","284481.863127","285248.834958","289148.930276","289915.274795","290681.703408","291431.861473","292198.201045","292965.041168","293731.40671","294498.347624","294507.98919","Mapping"
"Mixed","Both","cave","22","F_lash.wav","space","490.641172655","111","288382.189707","295264.602791","296031.739411","282181.909163","282948.546469","283714.966734","284481.863127","285248.834958","289148.930276","289915.274795","290681.703408","291431.861473","292198.201045","292965.041168","293731.40671","294498.347624","295274.745527","Mapping"
"Mixed","Both","cave","22","M_dime.wav","None","729.034115095","111","288382.189707","295264.602791","296031.739411","296798.256449","282948.546469","283714.966734","284481.863127","285248.834958","289148.930276","289915.274795","290681.703408","291431.861473","292198.201045","292965.041168","293731.40671","294498.347624","296041.089427","Mapping"
"Mixed","Both","cave","22","M_jaw.wav","None","728.911682498","111","288382.189707","295264.602791","296031.739411","296798.256449","297564.859436","283714.966734","284481.863127","285248.834958","289148.930276","289915.274795","290681.703408","291431.861473","292198.201045","292965.041168","293731.40671","294498.347624","296807.432709","Mapping"
"Mixed","Both","cave","22","F_romp.wav","None","727.256987535","111","288382.189707","295264.602791","296031.739411","296798.256449","297564.859436","298331.641435","284481.863127","285248.834958","289148.930276","289915.274795","290681.703408","291431.861473","292198.201045","292965.041168","293731.40671","294498.347624","297575.422029","Mapping"
"Mixed","Both","cave","22","F_ball.wav","None","728.766061919","111","288382.189707","295264.602791","296031.739411","296798.256449","297564.859436","298331.641435","299098.272557","285248.834958","289148.930276","289915.274795","290681.703408","291431.861473","292198.201045","292965.041168","293731.40671","294498.347624","298341.373898","Mapping"
"Mixed","Both","cave","22","F_priest.wav","None","728.435246594","111","288382.189707","295264.602791","296031.739411","296798.256449","297564.859436","298331.641435","299098.272557","299865.200794","289148.930276","289915.274795","290681.703408","291431.861473","292198.201045","292965.041168","293731.40671","294498.347624","299108.045521","Mapping"
"Mixed","Both","ball","11","M_jaw.wav","None","728.155444871","111","302998.664372","295264.602791","296031.739411","296798.256449","297564.859436","298331.641435","299098.272557","299865.200794","289148.930276","289915.274795","290681.703408","291431.861473","292198.201045","292965.041168","293731.40671","294498.347624","299874.482483","Mapping"
"Mixed","Both","ball","11","F_cave.wav","None","721.59417122","111","302998.664372","295264.602791","296031.739411","296798.256449","297564.859436","298331.641435","299098.272557","299865.200794","303764.910573","289915.274795","290681.703408","291431.861473","292198.201045","292965.041168","293731.40671","294498.347624","303008.569972","Mapping"
"Mixed","Both","ball","11","F_knife.wav","None","721.820486011","111","302998.664372","295264.602791","296031.739411","296798.256449","297564.859436","298331.641435","299098.272557","299865.200794","303764.910573","304531.379689","290681.703408","291431.861473","292198.201045","292965.041168","293731.40671","294498.347624","303774.716929","Mapping"
"Mixed","Both","ball","11","M_jaw.wav","None","721.747211966","111","302998.664372","295264.602791","296031.739411","296798.256449","297564.859436","298331.641435","299098.272557","299865.200794","303764.910573","304531.379689","305298.44489","291431.861473","292198.201045","292965.041168","293731.40671","294498.347624","304541.007651","Mapping"
"Mixed","Both","ball","11","F_ball.wav","None","720.950472605","111","302998.664372","295264.602791","296031.739411","296798.256449","297564.859436","298331.641435","299098.272557","299865.200794","303764.910573","304531.379689","305298.44489","306065.206792","292198.201045","292965.041168","293731.40671","294498.347624","305308.054611","Mapping"
"Mixed","Both","ball","11","F_priest.wav","space","401.692970598","111","302998.664372","295264.602791","296031.739411","296798.256449","297564.859436","298331.641435","299098.272557","299865.200794","303764.910573","304531.379689","305298.44489","306065.206792","306830.728291","292965.041168","293731.40671","294498.347624","306075.500095","Mapping"
"Mixed","Both","ball","11","F_ball.wav","None","725.917649252","111","302998.664372","295264.602791","296031.739411","296798.256449","297564.859436","298331.641435","299098.272557","299865.200794","303764.910573","304531.379689","305298.44489","306065.206792","306830.728291","307598.100502","293731.40671","294498.347624","306839.70699","Mapping"
"Mixed","Both","ball","11","F_cave.wav","space","413.663847721","111","302998.664372","295264.602791","296031.739411","296798.256449","297564.859436","298331.641435","299098.272557","299865.200794","303764.910573","304531.379689","305298.44489","306065.206792","306830.728291","307598.100502","308365.044507","294498.347624","307607.491328","Mapping"
"Mixed","Both","ball","11","M_gnash.wav","None","722.450271802","111","302998.664372","295264.602791","296031.739411","296798.256449","297564.859436","298331.641435","299098.272557","299865.200794","303764.910573","304531.379689","305298.44489","306065.206792","306830.728291","307598.100502","308365.044507","309131.48085","308374.981643","Mapping"
"Mixed","Both","ball","11","M_ball.wav","None","723.196925072","111","302998.664372","309898.184937","296031.739411","296798.256449","297564.859436","298331.641435","299098.272557","299865.200794","303764.910573","304531.379689","305298.44489","306065.206792","306830.728291","307598.100502","308365.044507","309131.48085","309141.26309","Mapping"
"Mixed","Both","ball","11","F_priest.wav","space","472.835888097","111","302998.664372","309898.184937","310664.944057","296798.256449","297564.859436","298331.641435","299098.272557","299865.200794","303764.910573","304531.379689","305298.44489","306065.206792","306830.728291","307598.100502","308365.044507","309131.48085","309908.278514","Mapping"
"Mixed","Both","ball","11","F_depth.wav","None","720.747964166","111","302998.664372","309898.184937","310664.944057","311431.816334","297564.859436","298331.641435","299098.272557","299865.200794","303764.910573","304531.379689","305298.44489","306065.206792","306830.728291","307598.100502","308365.044507","309131.48085","310675.578687","Mapping"
"Mixed","Both","ball","11","M_ball.wav","None","720.344183967","111","302998.664372","309898.184937","310664.944057","311431.816334","312198.317294","298331.641435","299098.272557","299865.200794","303764.910573","304531.379689","305298.44489","306065.206792","306830.728291","307598.100502","308365.044507","309131.48085","311442.100053","Mapping"
"Mixed","Both","ball","11","M_park.wav","space","388.624219457","111","302998.664372","309898.184937","310664.944057","311431.816334","312198.317294","312965.004686","299098.272557","299865.200794","303764.910573","304531.379689","305298.44489","306065.206792","306830.728291","307598.100502","308365.044507","309131.48085","312208.429422","Mapping"
"Mixed","Both","ball","11","M_dime.wav","None","719.033907953","111","302998.664372","309898.184937","310664.944057","311431.816334","312198.317294","312965.004686","313731.446594","299865.200794","303764.910573","304531.379689","305298.44489","306065.206792","306830.728291","307598.100502","308365.044507","309131.48085","312975.070128","Mapping"
"Mixed","Both","ball","11","M_lash.wav","None","719.151702942","111","302998.664372","309898.184937","310664.944057","311431.816334","312198.317294","312965.004686","313731.446594","314498.220554","303764.910573","304531.379689","305298.44489","306065.206792","306830.728291","307598.100502","308365.044507","309131.48085","313741.235945","Mapping"
"Mixed","Both","tile","25","M_cave.wav","None","718.602611334","111","317615.020623","309898.184937","310664.944057","311431.816334","312198.317294","312965.004686","313731.446594","314498.220554","303764.910573","304531.379689","305298.44489","306065.206792","306830.728291","307598.100502","308365.044507","309131.48085","314508.203756","Mapping"
"Mixed","Both","tile","25","M_tile.wav","None","720.438172633","111","317615.020623","309898.184937","310664.944057","311431.816334","312198.317294","312965.004686","313731.446594","314498.220554","318381.574452","304531.379689","305298.44489","306065.206792","306830.728291","307598.100502","308365.044507","309131.48085","317626.016059","Mapping"
"Mixed","Both","tile","25","M_romp.wav","space","373.015919642","111","317615.020623","309898.184937","310664.944057","311431.816334","312198.317294","312965.004686","313731.446594","314498.220554","318381.574452","319148.208357","305298.44489","306065.206792","306830.728291","307598.100502","308365.044507","309131.48085","318391.986787","Mapping"
"Mixed","Both","tile","25","F_tile.wav","None","719.869293942","111","317615.020623","309898.184937","310664.944057","311431.816334","312198.317294","312965.004686","313731.446594","314498.220554","318381.574452","319148.208357","319914.68211","306065.206792","306830.728291","307598.100502","308365.044507","309131.48085","319157.994307","Mapping"
"Mixed","Both","tile","25","M_dime.wav","space","328.875880252","111","317615.020623","309898.184937","310664.944057","311431.816334","312198.317294","312965.004686","313731.446594","314498.220554","318381.574452","319148.208357","319914.68211","320664.428665","306830.728291","307598.100502","308365.044507","309131.48085","319924.043256","Mapping"
"Mixed","Both","tile","25","M_gnash.wav","None","735.389170208","111","317615.020623","309898.184937","310664.944057","311431.816334","312198.317294","312965.004686","313731.446594","314498.220554","318381.574452","319148.208357","319914.68211","320664.428665","321430.851713","307598.100502","308365.044507","309131.48085","320674.065594","Mapping"
"Mixed","Both","tile","25","F_bluff.wav","None","735.06608422","111","317615.020623","309898.184937","310664.944057","311431.816334","312198.317294","312965.004686","313731.446594","314498.220554","318381.574452","319148.208357","319914.68211","320664.428665","321430.851713","322197.538487","308365.044507","309131.48085","321440.813892","Mapping"
"Mixed","Both","tile","25","M_tile.wav","None","734.381265589","111","317615.020623","309898.184937","310664.944057","311431.816334","312198.317294","312965.004686","313731.446594","314498.220554","318381.574452","319148.208357","319914.68211","320664.428665","321430.851713","322197.538487","322964.297916","309131.48085","322207.961643","Mapping"
"Mixed","Both","tile","25","F_jolt.wav","space","382.88287312","111","317615.020623","309898.184937","310664.944057","311431.816334","312198.317294","312965.004686","313731.446594","314498.220554","318381.574452","319148.208357","319914.68211","320664.428665","321430.851713","322197.538487","322964.297916","323731.157517","322973.985239","Mapping"
"Mixed","Both","tile","25","F_tile.wav","None","732.943301031","111","317615.020623","324497.664969","310664.944057","311431.816334","312198.317294","312965.004686","313731.446594","314498.220554","318381.574452","319148.208357","319914.68211","320664.428665","321430.851713","322197.538487","322964.297916","323731.157517","323741.05446","Mapping"
"Mixed","Both","tile","25","F_lash.wav","space","329.442285554","111","317615.020623","324497.664969","325264.489634","311431.816334","312198.317294","312965.004686","313731.446594","314498.220554","318381.574452","319148.208357","319914.68211","320664.428665","321430.851713","322197.538487","322964.297916","323731.157517","324507.411655","Mapping"
"Mixed","Both","tile","25","M_park.wav","space","0.0349365873262","111","317615.020623","324497.664969","325264.489634","326031.138379","312198.317294","312965.004686","313731.446594","314498.220554","318381.574452","319148.208357","319914.68211","320664.428665","321430.851713","322197.538487","322964.297916","323731.157517","325274.436663","Mapping"
"Mixed","Both","tile","25","M_gnash.wav","None","729.666683445","111","317615.020623","324497.664969","325264.489634","326031.138379","326797.495264","312965.004686","313731.446594","314498.220554","318381.574452","319148.208357","319914.68211","320664.428665","321430.851713","322197.538487","322964.297916","323731.157517","326040.99142","Mapping"
"Mixed","Both","tile","25","F_ball.wav","None","730.505161191","111","317615.020623","324497.664969","325264.489634","326031.138379","326797.495264","327564.135661","313731.446594","314498.220554","318381.574452","319148.208357","319914.68211","320664.428665","321430.851713","322197.538487","322964.297916","323731.157517","326806.814672","Mapping"
"Mixed","Both","tile","25","F_ball.wav","None","730.587401253","111","317615.020623","324497.664969","325264.489634","326031.138379","326797.495264","327564.135661","328331.159433","314498.220554","318381.574452","319148.208357","319914.68211","320664.428665","321430.851713","322197.538487","322964.297916","323731.157517","327573.699625","Mapping"
"Mixed","Both","tile","25","F_gnash.wav","None","736.116963933","111","317615.020623","324497.664969","325264.489634","326031.138379","326797.495264","327564.135661","328331.159433","329097.878361","318381.574452","319148.208357","319914.68211","320664.428665","321430.851713","322197.538487","322964.297916","323731.157517","328334.835812","Mapping"
"Mixed","Both","done","45","M_romp.wav","None","729.945248517","111","332231.520331","324497.664969","325264.489634","326031.138379","326797.495264","327564.135661","328331.159433","329097.878361","318381.574452","319148.208357","319914.68211","320664.428665","321430.851713","322197.538487","322964.297916","323731.157517","329107.509724","Mapping"
"Mixed","Both","done","45","M_done.wav","None","721.524916415","111","332231.520331","324497.664969","325264.489634","326031.138379","326797.495264","327564.135661","328331.159433","329097.878361","332998.229983","319148.208357","319914.68211","320664.428665","321430.851713","322197.538487","322964.297916","323731.157517","332241.58732","Mapping"
"Mixed","Both","done","45","M_depth.wav","space","428.434906498","111","332231.520331","324497.664969","325264.489634","326031.138379","326797.495264","327564.135661","328331.159433","329097.878361","332998.229983","333764.779793","319914.68211","320664.428665","321430.851713","322197.538487","322964.297916","323731.157517","333008.274712","Mapping"
"Mixed","Both","done","45","F_cad.wav","None","719.831574796","111","332231.520331","324497.664969","325264.489634","326031.138379","326797.495264","327564.135661","328331.159433","329097.878361","332998.229983","333764.779793","334530.78453","320664.428665","321430.851713","322197.538487","322964.297916","323731.157517","333774.668698","Mapping"
"Mixed","Both","done","45","F_jolt.wav","None","720.839170273","111","332231.520331","324497.664969","325264.489634","326031.138379","326797.495264","327564.135661","328331.159433","329097.878361","332998.229983","333764.779793","334530.78453","335297.446879","321430.851713","322197.538487","322964.297916","323731.157517","334540.319122","Mapping"
"Mixed","Both","done","45","M_done.wav","None","720.181558863","111","332231.520331","324497.664969","325264.489634","326031.138379","326797.495264","327564.135661","328331.159433","329097.878361","332998.229983","333764.779793","334530.78453","335297.446879","336064.147874","322197.538487","322964.297916","323731.157517","335307.339184","Mapping"
"Mixed","Both","done","45","M_park.wav","space","402.680778963","111","332231.520331","324497.664969","325264.489634","326031.138379","326797.495264","327564.135661","328331.159433","329097.878361","332998.229983","333764.779793","334530.78453","335297.446879","336064.147874","336813.750973","322964.297916","323731.157517","336073.965978","Mapping"
"Mixed","Both","done","45","M_cave.wav","None","736.117582273","111","332231.520331","324497.664969","325264.489634","326031.138379","326797.495264","327564.135661","328331.159433","329097.878361","332998.229983","333764.779793","334530.78453","335297.446879","336064.147874","336813.750973","337580.551831","323731.157517","336822.929398","Mapping"
"Mixed","Both","done","45","M_jaw.wav","None","735.701435158","111","332231.520331","324497.664969","325264.489634","326031.138379","326797.495264","327564.135661","328331.159433","329097.878361","332998.229983","333764.779793","334530.78453","335297.446879","336064.147874","336813.750973","337580.551831","338347.261174","337589.778487","Mapping"
"Mixed","Both","done","45","F_ball.wav","None","735.284360504","111","332231.520331","339113.845611","325264.489634","326031.138379","326797.495264","327564.135661","328331.159433","329097.878361","332998.229983","333764.779793","334530.78453","335297.446879","336064.147874","336813.750973","337580.551831","338347.261174","338356.630977","Mapping"
"Mixed","Both","done","45","M_tile.wav","None","735.233965272","111","332231.520331","339113.845611","339880.639667","326031.138379","326797.495264","327564.135661","328331.159433","329097.878361","332998.229983","333764.779793","334530.78453","335297.446879","336064.147874","336813.750973","337580.551831","338347.261174","339123.263954","Mapping"
"Mixed","Both","done","45","F_greet.wav","None","734.832967661","111","332231.520331","339113.845611","339880.639667","340647.476389","326797.495264","327564.135661","328331.159433","329097.878361","332998.229983","333764.779793","334530.78453","335297.446879","336064.147874","336813.750973","337580.551831","338347.261174","339890.276596","Mapping"
"Mixed","Both","done","45","F_done.wav","None","734.52317607","111","332231.520331","339113.845611","339880.639667","340647.476389","341413.74145","327564.135661","328331.159433","329097.878361","332998.229983","333764.779793","334530.78453","335297.446879","336064.147874","336813.750973","337580.551831","338347.261174","340657.036025","Mapping"
"Mixed","Both","done","45","F_lash.wav","space","437.785849936","111","332231.520331","339113.845611","339880.639667","340647.476389","341413.74145","342180.828912","328331.159433","329097.878361","332998.229983","333764.779793","334530.78453","335297.446879","336064.147874","336813.750973","337580.551831","338347.261174","341422.763433","Mapping"
"Mixed","Both","done","45","F_done.wav","None","733.109327062","111","332231.520331","339113.845611","339880.639667","340647.476389","341413.74145","342180.828912","342947.401291","329097.878361","332998.229983","333764.779793","334530.78453","335297.446879","336064.147874","336813.750973","337580.551831","338347.261174","342190.562921","Mapping"
"Mixed","Both","done","45","F_park.wav","space","671.963524976","111","332231.520331","339113.845611","339880.639667","340647.476389","341413.74145","342180.828912","342947.401291","343714.162575","332998.229983","333764.779793","334530.78453","335297.446879","336064.147874","336813.750973","337580.551831","338347.261174","342956.535504","Mapping"
"Mixed","Both","ball","2","F_cave.wav","None","731.494206237","111","346847.596163","339113.845611","339880.639667","340647.476389","341413.74145","342180.828912","342947.401291","343714.162575","332998.229983","333764.779793","334530.78453","335297.446879","336064.147874","336813.750973","337580.551831","338347.261174","343723.894111","Mapping"
"Mixed","Both","ball","2","F_romp.wav","None","721.952812135","111","346847.596163","339113.845611","339880.639667","340647.476389","341413.74145","342180.828912","342947.401291","343714.162575","347614.531202","333764.779793","334530.78453","335297.446879","336064.147874","336813.750973","337580.551831","338347.261174","346857.48043","Mapping"
"Mixed","Both","ball","2","M_cad.wav","None","721.029311797","111","346847.596163","339113.845611","339880.639667","340647.476389","341413.74145","342180.828912","342947.401291","343714.162575","347614.531202","348380.842639","334530.78453","335297.446879","336064.147874","336813.750973","337580.551831","338347.261174","347624.993314","Mapping"
"Mixed","Both","ball","2","F_ball.wav","None","721.946319507","111","346847.596163","339113.845611","339880.639667","340647.476389","341413.74145","342180.828912","342947.401291","343714.162575","347614.531202","348380.842639","349147.753563","335297.446879","336064.147874","336813.750973","337580.551831","338347.261174","348390.53862","Mapping"
"Mixed","Both","ball","2","F_jaw.wav","space","454.800578649","111","346847.596163","339113.845611","339880.639667","340647.476389","341413.74145","342180.828912","342947.401291","343714.162575","347614.531202","348380.842639","349147.753563","349914.497842","336064.147874","336813.750973","337580.551831","338347.261174","349157.611241","Mapping"
"Mixed","Both","ball","2","M_done.wav","None","719.219411869","111","346847.596163","339113.845611","339880.639667","340647.476389","341413.74145","342180.828912","342947.401291","343714.162575","347614.531202","348380.842639","349147.753563","349914.497842","350680.906978","336813.750973","337580.551831","338347.261174","349924.588328","Mapping"
"Mixed","Both","ball","2","F_knife.wav","None","718.994952127","111","346847.596163","339113.845611","339880.639667","340647.476389","341413.74145","342180.828912","342947.401291","343714.162575","347614.531202","348380.842639","349147.753563","349914.497842","350680.906978","351447.492343","337580.551831","338347.261174","350691.408355","Mapping"
"Mixed","Both","ball","2","M_bluff.wav","None","719.75984663","111","346847.596163","339113.845611","339880.639667","340647.476389","341413.74145","342180.828912","342947.401291","343714.162575","347614.531202","348380.842639","349147.753563","349914.497842","350680.906978","351447.492343","352214.206014","338347.261174","351457.3392","Mapping"
"Mixed","Both","ball","2","M_ball.wav","None","719.219721039","111","346847.596163","339113.845611","339880.639667","340647.476389","341413.74145","342180.828912","342947.401291","343714.162575","347614.531202","348380.842639","349147.753563","349914.497842","350680.906978","351447.492343","352214.206014","352980.82817","352224.450159","Mapping"
"Mixed","Both","ball","2","M_greet.wav","space","524.73493811","111","346847.596163","353730.775379","339880.639667","340647.476389","341413.74145","342180.828912","342947.401291","343714.162575","347614.531202","348380.842639","349147.753563","349914.497842","350680.906978","351447.492343","352214.206014","352980.82817","352991.625735","Mapping"
"Mixed","Both","ball","2","F_knife.wav","None","734.044885146","111","346847.596163","353730.775379","354496.998701","340647.476389","341413.74145","342180.828912","342947.401291","343714.162575","347614.531202","348380.842639","349147.753563","349914.497842","350680.906978","351447.492343","352214.206014","352980.82817","353741.248621","Mapping"
"Mixed","Both","ball","2","F_lash.wav","None","735.195627785","111","346847.596163","353730.775379","354496.998701","355263.419276","341413.74145","342180.828912","342947.401291","343714.162575","347614.531202","348380.842639","349147.753563","349914.497842","350680.906978","351447.492343","352214.206014","352980.82817","354506.708904","Mapping"
"Mixed","Both","ball","2","F_ball.wav","None","735.909199546","111","346847.596163","353730.775379","354496.998701","355263.419276","356030.301447","342180.828912","342947.401291","343714.162575","347614.531202","348380.842639","349147.753563","349914.497842","350680.906978","351447.492343","352214.206014","352980.82817","355272.525973","Mapping"
"Mixed","Both","ball","2","M_gnash.wav","space","404.23406515","111","346847.596163","353730.775379","354496.998701","355263.419276","356030.301447","356796.987293","342947.401291","343714.162575","347614.531202","348380.842639","349147.753563","349914.497842","350680.906978","351447.492343","352214.206014","352980.82817","356040.070083","Mapping"
"Mixed","Both","ball","2","M_ball.wav","None","733.451890963","111","346847.596163","353730.775379","354496.998701","355263.419276","356030.301447","356796.987293","357563.822469","343714.162575","347614.531202","348380.842639","349147.753563","349914.497842","350680.906978","351447.492343","352214.206014","352980.82817","356807.209486","Mapping"
"Mixed","Both","ball","2","M_cling.wav","None","733.916269091","111","346847.596163","353730.775379","354496.998701","355263.419276","356030.301447","356796.987293","357563.822469","358330.352182","347614.531202","348380.842639","349147.753563","349914.497842","350680.906978","351447.492343","352214.206014","352980.82817","357573.473929","Mapping"
"Mixed","Both","ball","1","F_cling.wav","space","48.0696307495","111","361463.682197","353730.775379","354496.998701","355263.419276","356030.301447","356796.987293","357563.822469","358330.352182","347614.531202","348380.842639","349147.753563","349914.497842","350680.906978","351447.492343","352214.206014","352980.82817","358340.16503","Mapping"
"Mixed","Both","ball","1","M_tile.wav","None","728.994540928","111","361463.682197","353730.775379","354496.998701","355263.419276","356030.301447","356796.987293","357563.822469","358330.352182","362230.01002","348380.842639","349147.753563","349914.497842","350680.906978","351447.492343","352214.206014","352980.82817","361467.232433","Mapping"
"Mixed","Both","ball","1","M_ball.wav","None","731.456796289","111","361463.682197","353730.775379","354496.998701","355263.419276","356030.301447","356796.987293","357563.822469","358330.352182","362230.01002","362996.764193","349147.753563","349914.497842","350680.906978","351447.492343","352214.206014","352980.82817","362233.449881","Mapping"
"Mixed","Both","ball","1","M_park.wav","space","347.3112598","111","361463.682197","353730.775379","354496.998701","355263.419276","356030.301447","356796.987293","357563.822469","358330.352182","362230.01002","362996.764193","363763.591331","349914.497842","350680.906978","351447.492343","352214.206014","352980.82817","363000.815908","Mapping"
"Mixed","Both","ball","1","F_ball.wav","None","730.728384224","111","361463.682197","353730.775379","354496.998701","355263.419276","356030.301447","356796.987293","357563.822469","358330.352182","362230.01002","362996.764193","363763.591331","364529.927811","350680.906978","351447.492343","352214.206014","352980.82817","363767.538855","Mapping"
"Mixed","Both","ball","1","F_dime.wav","space","502.75117773","111","361463.682197","353730.775379","354496.998701","355263.419276","356030.301447","356796.987293","357563.822469","358330.352182","362230.01002","362996.764193","363763.591331","364529.927811","365296.485659","351447.492343","352214.206014","352980.82817","364533.389933","Mapping"
"Mixed","Both","ball","1","F_ball.wav","None","733.022140193","111","361463.682197","353730.775379","354496.998701","355263.419276","356030.301447","356796.987293","357563.822469","358330.352182","362230.01002","362996.764193","363763.591331","364529.927811","365296.485659","366063.501083","352214.206014","352980.82817","365300.07145","Mapping"
"Mixed","Both","ball","1","M_reek.wav","space","369.007179921","111","361463.682197","353730.775379","354496.998701","355263.419276","356030.301447","356796.987293","357563.822469","358330.352182","362230.01002","362996.764193","363763.591331","364529.927811","365296.485659","366063.501083","366829.818395","352980.82817","366067.150255","Mapping"
"Mixed","Both","ball","1","F_jaw.wav","None","732.912383712","111","361463.682197","353730.775379","354496.998701","355263.419276","356030.301447","356796.987293","357563.822469","358330.352182","362230.01002","362996.764193","363763.591331","364529.927811","365296.485659","366063.501083","366829.818395","367596.624509","366833.546405","Mapping"
"Mixed","Both","ball","1","F_cave.wav","None","733.640177408","111","361463.682197","368363.358276","354496.998701","355263.419276","356030.301447","356796.987293","357563.822469","358330.352182","362230.01002","362996.764193","363763.591331","364529.927811","365296.485659","366063.501083","366829.818395","367596.624509","367600.539569","Mapping"
"Mixed","Both","ball","1","M_gnash.wav","None","734.414965467","111","361463.682197","368363.358276","369130.000529","355263.419276","356030.301447","356796.987293","357563.822469","358330.352182","362230.01002","362996.764193","363763.591331","364529.927811","365296.485659","366063.501083","366829.818395","367596.624509","368366.98797","Mapping"
"Mixed","Both","ball","1","M_bluff.wav","None","730.084376439","111","361463.682197","368363.358276","369130.000529","369896.399462","356030.301447","356796.987293","357563.822469","358330.352182","362230.01002","362996.764193","363763.591331","364529.927811","365296.485659","366063.501083","366829.818395","367596.624509","369138.939035","Mapping"
"Mixed","Both","ball","1","M_ball.wav","None","730.820827011","111","361463.682197","368363.358276","369130.000529","369896.399462","370663.266174","356796.987293","357563.822469","358330.352182","362230.01002","362996.764193","363763.591331","364529.927811","365296.485659","366063.501083","366829.818395","367596.624509","369905.452053","Mapping"
"Mixed","Both","ball","1","F_done.wav","space","451.664944063","111","361463.682197","368363.358276","369130.000529","369896.399462","370663.266174","371429.919556","357563.822469","358330.352182","362230.01002","362996.764193","363763.591331","364529.927811","365296.485659","366063.501083","366829.818395","367596.624509","370672.322475","Mapping"
"Mixed","Both","ball","1","F_depth.wav","None","735.195936955","111","361463.682197","368363.358276","369130.000529","369896.399462","370663.266174","371429.919556","372196.501211","358330.352182","362230.01002","362996.764193","363763.591331","364529.927811","365296.485659","366063.501083","366829.818395","367596.624509","371433.538429","Mapping"
"Mixed","Both","ball","1","M_park.wav","None","730.491248396","111","361463.682197","368363.358276","369130.000529","369896.399462","370663.266174","371429.919556","372196.501211","372963.179327","362230.01002","362996.764193","363763.591331","364529.927811","365296.485659","366063.501083","366829.818395","367596.624509","372205.752291","Mapping"
