"Condition","Talker","Target","Trial","current_stimulus","response_response","response_time_response","subject_nr","time_Audio1","time_Audio10","time_Audio11","time_Audio12","time_Audio13","time_Audio14","time_Audio15","time_Audio16","time_Audio2","time_Audio3","time_Audio4","time_Audio5","time_Audio6","time_Audio7","time_Audio8","time_Audio9","time_response","title"
"Mixed","both","done","47","F_gnash.wav","NA","NA","303","25793.8411459","NA","NA","NA","NA","NA","NA","NA","NA","NA","NA","NA","NA","NA","NA","NA","NA","Mapping"
"Mixed","both","done","47","F_done.wav","None","714.304485824","303","25793.8411459","NA","NA","NA","NA","NA","NA","NA","26543.8934737","NA","NA","NA","NA","NA","NA","NA","25809.2917674","Mapping"
"Mixed","both","done","47","F_reek.wav","space","418.703370728","303","25793.8411459","NA","NA","NA","NA","NA","NA","NA","26543.8934737","27310.2868414","NA","NA","NA","NA","NA","NA","26554.24181","Mapping"
"Mixed","both","done","47","M_done.wav","None","729.283309076","303","25793.8411459","NA","NA","NA","NA","NA","NA","NA","26543.8934737","27310.2868414","28076.9328037","NA","NA","NA","NA","NA","27321.5614604","Mapping"
"Mixed","both","done","47","F_priest.wav","space","678.093192633","303","25793.8411459","NA","NA","NA","NA","NA","NA","NA","26543.8934737","27310.2868414","28076.9328037","28843.4717925","NA","NA","NA","NA","28086.8334575","Mapping"
"Mixed","both","done","47","M_romp.wav","None","724.93447829","303","25793.8411459","NA","NA","NA","NA","NA","NA","NA","26543.8934737","27310.2868414","28076.9328037","28843.4717925","29610.8226697","NA","NA","NA","28853.3062828","Mapping"
"Mixed","both","done","47","M_jolt.wav","None","720.324087888","303","25793.8411459","NA","NA","NA","NA","NA","NA","NA","26543.8934737","27310.2868414","28076.9328037","28843.4717925","29610.8226697","30360.2554142","NA","NA","29621.6468234","Mapping"
"Mixed","both","done","47","F_priest.wav","None","735.792022664","303","25793.8411459","NA","NA","NA","NA","NA","NA","NA","26543.8934737","27310.2868414","28076.9328037","28843.4717925","29610.8226697","30360.2554142","31127.1122326","NA","30369.9022364","Mapping"
"Mixed","both","done","47","F_jolt.wav","None","732.908364385","303","25793.8411459","NA","NA","NA","NA","NA","NA","NA","26543.8934737","27310.2868414","28076.9328037","28843.4717925","29610.8226697","30360.2554142","31127.1122326","31893.5751645","31136.8783955","Mapping"
"Mixed","both","done","47","M_priest.wav","None","736.262584571","303","25793.8411459","32660.4270362","NA","NA","NA","NA","NA","NA","26543.8934737","27310.2868414","28076.9328037","28843.4717925","29610.8226697","30360.2554142","31127.1122326","31893.5751645","31897.3470773","Mapping"
"Mixed","both","done","47","M_cad.wav","None","727.743626107","303","25793.8411459","32660.4270362","33427.2006871","NA","NA","NA","NA","NA","26543.8934737","27310.2868414","28076.9328037","28843.4717925","29610.8226697","30360.2554142","31127.1122326","31893.5751645","32670.0076954","Mapping"
"Mixed","both","done","47","F_done.wav","None","725.042379927","303","25793.8411459","32660.4270362","33427.2006871","34194.4136731","NA","NA","NA","NA","26543.8934737","27310.2868414","28076.9328037","28843.4717925","29610.8226697","30360.2554142","31127.1122326","31893.5751645","33436.9019237","Mapping"
"Mixed","both","done","47","M_bluff.wav","space","424.496349413","303","25793.8411459","32660.4270362","33427.2006871","34194.4136731","34961.1143591","NA","NA","NA","26543.8934737","27310.2868414","28076.9328037","28843.4717925","29610.8226697","30360.2554142","31127.1122326","31893.5751645","34204.2781529","Mapping"
"Mixed","both","done","47","M_done.wav","None","718.724734616","303","25793.8411459","32660.4270362","33427.2006871","34194.4136731","34961.1143591","35726.7242819","NA","NA","26543.8934737","27310.2868414","28076.9328037","28843.4717925","29610.8226697","30360.2554142","31127.1122326","31893.5751645","34970.8987633","Mapping"
"Mixed","both","done","47","F_cling.wav","space","564.910449553","303","25793.8411459","32660.4270362","33427.2006871","34194.4136731","34961.1143591","35726.7242819","36477.2811802","NA","26543.8934737","27310.2868414","28076.9328037","28843.4717925","29610.8226697","30360.2554142","31127.1122326","31893.5751645","35735.8513842","Mapping"
"Mixed","both","done","47","M_knife.wav","None","733.213518281","303","25793.8411459","32660.4270362","33427.2006871","34194.4136731","34961.1143591","35726.7242819","36477.2811802","37243.8402651","26543.8934737","27310.2868414","28076.9328037","28843.4717925","29610.8226697","30360.2554142","31127.1122326","31893.5751645","36487.228828","Mapping"
"Mixed","both","done","42","M_depth.wav","None","730.646144133","303","40410.9576545","32660.4270362","33427.2006871","34194.4136731","34961.1143591","35726.7242819","36477.2811802","37243.8402651","26543.8934737","27310.2868414","28076.9328037","28843.4717925","29610.8226697","30360.2554142","31127.1122326","31893.5751645","37253.5547959","Mapping"
"Mixed","both","done","42","F_done.wav","None","719.475716818","303","40410.9576545","32660.4270362","33427.2006871","34194.4136731","34961.1143591","35726.7242819","36477.2811802","37243.8402651","41160.317434","27310.2868414","28076.9328037","28843.4717925","29610.8226697","30360.2554142","31127.1122326","31893.5751645","40422.159927","Mapping"
"Mixed","both","done","42","F_gnash.wav","space","530.620977283","303","40410.9576545","32660.4270362","33427.2006871","34194.4136731","34961.1143591","35726.7242819","36477.2811802","37243.8402651","41160.317434","41927.2311404","28076.9328037","28843.4717925","29610.8226697","30360.2554142","31127.1122326","31893.5751645","41170.0619552","Mapping"
"Mixed","both","done","42","F_knife.wav","None","731.716811191","303","40410.9576545","32660.4270362","33427.2006871","34194.4136731","34961.1143591","35726.7242819","36477.2811802","37243.8402651","41160.317434","41927.2311404","42694.2032808","28843.4717925","29610.8226697","30360.2554142","31127.1122326","31893.5751645","41937.2789604","Mapping"
"Mixed","both","done","42","M_cad.wav","None","729.642568156","303","40410.9576545","32660.4270362","33427.2006871","34194.4136731","34961.1143591","35726.7242819","36477.2811802","37243.8402651","41160.317434","41927.2311404","42694.2032808","43460.5558375","29610.8226697","30360.2554142","31127.1122326","31893.5751645","42703.7728094","Mapping"
"Mixed","both","done","42","F_gnash.wav","None","727.77392529","303","40410.9576545","32660.4270362","33427.2006871","34194.4136731","34961.1143591","35726.7242819","36477.2811802","37243.8402651","41160.317434","41927.2311404","42694.2032808","43460.5558375","44227.1684092","30360.2554142","31127.1122326","31893.5751645","43469.7512668","Mapping"
"Mixed","both","done","42","M_reek.wav","None","724.38971512","303","40410.9576545","32660.4270362","33427.2006871","34194.4136731","34961.1143591","35726.7242819","36477.2811802","37243.8402651","41160.317434","41927.2311404","42694.2032808","43460.5558375","44227.1684092","44993.9349494","31127.1122326","31893.5751645","44237.1528489","Mapping"
"Mixed","both","done","42","M_done.wav","None","720.792175736","303","40410.9576545","32660.4270362","33427.2006871","34194.4136731","34961.1143591","35726.7242819","36477.2811802","37243.8402651","41160.317434","41927.2311404","42694.2032808","43460.5558375","44227.1684092","44993.9349494","45744.2701701","31893.5751645","45004.4802288","Mapping"
"Mixed","both","done","42","F_cad.wav","space","466.59337217","303","40410.9576545","32660.4270362","33427.2006871","34194.4136731","34961.1143591","35726.7242819","36477.2811802","37243.8402651","41160.317434","41927.2311404","42694.2032808","43460.5558375","44227.1684092","44993.9349494","45744.2701701","46510.4721598","45754.0279855","Mapping"
"Mixed","both","done","42","M_knife.wav","None","732.501492836","303","40410.9576545","47277.0550512","33427.2006871","34194.4136731","34961.1143591","35726.7242819","36477.2811802","37243.8402651","41160.317434","41927.2311404","42694.2032808","43460.5558375","44227.1684092","44993.9349494","45744.2701701","46510.4721598","46520.3292198","Mapping"
"Mixed","both","done","42","M_done.wav","None","730.278537143","303","40410.9576545","47277.0550512","48043.6163","34194.4136731","34961.1143591","35726.7242819","36477.2811802","37243.8402651","41160.317434","41927.2311404","42694.2032808","43460.5558375","44227.1684092","44993.9349494","45744.2701701","46510.4721598","47286.6032468","Mapping"
"Mixed","both","done","42","F_knife.wav","space","527.181734797","303","40410.9576545","47277.0550512","48043.6163","48810.1030379","34961.1143591","35726.7242819","36477.2811802","37243.8402651","41160.317434","41927.2311404","42694.2032808","43460.5558375","44227.1684092","44993.9349494","45744.2701701","46510.4721598","48053.381226","Mapping"
"Mixed","both","done","42","F_done.wav","None","724.870170467","303","40410.9576545","47277.0550512","48043.6163","48810.1030379","49576.8544283","35726.7242819","36477.2811802","37243.8402651","41160.317434","41927.2311404","42694.2032808","43460.5558375","44227.1684092","44993.9349494","45744.2701701","46510.4721598","48819.3915286","Mapping"
"Mixed","both","done","42","M_lash.wav","space","554.053213913","303","40410.9576545","47277.0550512","48043.6163","48810.1030379","49576.8544283","50326.6943539","36477.2811802","37243.8402651","41160.317434","41927.2311404","42694.2032808","43460.5558375","44227.1684092","44993.9349494","45744.2701701","46510.4721598","49586.4941399","Mapping"
"Mixed","both","done","42","M_lash.wav","None","736.050182488","303","40410.9576545","47277.0550512","48043.6163","48810.1030379","49576.8544283","50326.6943539","51093.596621","37243.8402651","41160.317434","41927.2311404","42694.2032808","43460.5558375","44227.1684092","44993.9349494","45744.2701701","46510.4721598","50335.8588661","Mapping"
"Mixed","both","done","42","F_dime.wav","None","731.821620371","303","40410.9576545","47277.0550512","48043.6163","48810.1030379","49576.8544283","50326.6943539","51093.596621","51860.3780014","41160.317434","41927.2311404","42694.2032808","43460.5558375","44227.1684092","44993.9349494","45744.2701701","46510.4721598","51103.923006","Mapping"
"Mixed","both","cave","13","F_knife.wav","space","462.59885421","303","54993.8916648","47277.0550512","48043.6163","48810.1030379","49576.8544283","50326.6943539","51093.596621","51860.3780014","41160.317434","41927.2311404","42694.2032808","43460.5558375","44227.1684092","44993.9349494","45744.2701701","46510.4721598","51869.8986806","Mapping"
"Mixed","both","cave","13","F_cave.wav","None","719.816424884","303","54993.8916648","47277.0550512","48043.6163","48810.1030379","49576.8544283","50326.6943539","51093.596621","51860.3780014","55743.3349215","41927.2311404","42694.2032808","43460.5558375","44227.1684092","44993.9349494","45744.2701701","46510.4721598","55004.032237","Mapping"
"Mixed","both","cave","13","F_depth.wav","None","734.555639327","303","54993.8916648","47277.0550512","48043.6163","48810.1030379","49576.8544283","50326.6943539","51093.596621","51860.3780014","55743.3349215","56510.3429253","42694.2032808","43460.5558375","44227.1684092","44993.9349494","45744.2701701","46510.4721598","55753.1329291","Mapping"
"Mixed","both","cave","13","M_gnash.wav","None","731.38259491","303","54993.8916648","47277.0550512","48043.6163","48810.1030379","49576.8544283","50326.6943539","51093.596621","51860.3780014","55743.3349215","56510.3429253","57276.9242707","43460.5558375","44227.1684092","44993.9349494","45744.2701701","46510.4721598","56520.0889921","Mapping"
"Mixed","both","cave","13","M_dime.wav","None","728.573755827","303","54993.8916648","47277.0550512","48043.6163","48810.1030379","49576.8544283","50326.6943539","51093.596621","51860.3780014","55743.3349215","56510.3429253","57276.9242707","58043.4456361","44227.1684092","44993.9349494","45744.2701701","46510.4721598","57286.7290806","Mapping"
"Mixed","both","cave","13","M_cave.wav","None","725.945783779","303","54993.8916648","47277.0550512","48043.6163","48810.1030379","49576.8544283","50326.6943539","51093.596621","51860.3780014","55743.3349215","56510.3429253","57276.9242707","58043.4456361","58810.6564581","44993.9349494","45744.2701701","46510.4721598","58053.062778","Mapping"
"Mixed","both","cave","13","F_dime.wav","space","543.101062998","303","54993.8916648","47277.0550512","48043.6163","48810.1030379","49576.8544283","50326.6943539","51093.596621","51860.3780014","55743.3349215","56510.3429253","57276.9242707","58043.4456361","58810.6564581","59577.230074","45744.2701701","46510.4721598","58821.3133491","Mapping"
"Mixed","both","cave","13","M_cave.wav","None","718.67588535","303","54993.8916648","47277.0550512","48043.6163","48810.1030379","49576.8544283","50326.6943539","51093.596621","51860.3780014","55743.3349215","56510.3429253","57276.9242707","58043.4456361","58810.6564581","59577.230074","60326.4850439","46510.4721598","59587.7756625","Mapping"
"Mixed","both","cave","13","M_dime.wav","space","580.172784626","303","54993.8916648","47277.0550512","48043.6163","48810.1030379","49576.8544283","50326.6943539","51093.596621","51860.3780014","55743.3349215","56510.3429253","57276.9242707","58043.4456361","58810.6564581","59577.230074","60326.4850439","61093.232106","60336.1473246","Mapping"
"Mixed","both","cave","13","F_bluff.wav","None","731.573972851","303","54993.8916648","61860.2280524","48043.6163","48810.1030379","49576.8544283","50326.6943539","51093.596621","51860.3780014","55743.3349215","56510.3429253","57276.9242707","58043.4456361","58810.6564581","59577.230074","60326.4850439","61093.232106","61102.3496236","Mapping"
"Mixed","both","cave","13","M_jolt.wav","None","733.454364352","303","54993.8916648","61860.2280524","62626.8353681","48810.1030379","49576.8544283","50326.6943539","51093.596621","51860.3780014","55743.3349215","56510.3429253","57276.9242707","58043.4456361","58810.6564581","59577.230074","60326.4850439","61093.232106","61864.3014091","Mapping"
"Mixed","both","cave","13","M_gnash.wav","None","724.74279115","303","54993.8916648","61860.2280524","62626.8353681","63393.7722621","49576.8544283","50326.6943539","51093.596621","51860.3780014","55743.3349215","56510.3429253","57276.9242707","58043.4456361","58810.6564581","59577.230074","60326.4850439","61093.232106","62636.9252354","Mapping"
"Mixed","both","cave","13","F_cave.wav","None","721.661880147","303","54993.8916648","61860.2280524","62626.8353681","63393.7722621","64160.066695","50326.6943539","51093.596621","51860.3780014","55743.3349215","56510.3429253","57276.9242707","58043.4456361","58810.6564581","59577.230074","60326.4850439","61093.232106","63404.0281558","Mapping"
"Mixed","both","cave","13","M_lash.wav","space","514.70876066","303","54993.8916648","61860.2280524","62626.8353681","63393.7722621","64160.066695","64910.214866","51093.596621","51860.3780014","55743.3349215","56510.3429253","57276.9242707","58043.4456361","58810.6564581","59577.230074","60326.4850439","61093.232106","64169.6080887","Mapping"
"Mixed","both","cave","13","F_knife.wav","None","733.650998678","303","54993.8916648","61860.2280524","62626.8353681","63393.7722621","64160.066695","64910.214866","65676.784772","51860.3780014","55743.3349215","56510.3429253","57276.9242707","58043.4456361","58810.6564581","59577.230074","60326.4850439","61093.232106","64919.336712","Mapping"
"Mixed","both","cave","13","F_priest.wav","None","730.853290297","303","54993.8916648","61860.2280524","62626.8353681","63393.7722621","64160.066695","64910.214866","65676.784772","66443.3021182","55743.3349215","56510.3429253","57276.9242707","58043.4456361","58810.6564581","59577.230074","60326.4850439","61093.232106","65686.0828465","Mapping"
"Mixed","both","tile","34","M_lash.wav","None","727.884918451","303","69577.0445699","61860.2280524","62626.8353681","63393.7722621","64160.066695","64910.214866","65676.784772","66443.3021182","55743.3349215","56510.3429253","57276.9242707","58043.4456361","58810.6564581","59577.230074","60326.4850439","61093.232106","66453.2361622","Mapping"
"Mixed","both","tile","34","M_tile.wav","None","719.797256868","303","69577.0445699","61860.2280524","62626.8353681","63393.7722621","64160.066695","64910.214866","65676.784772","66443.3021182","70326.5246181","56510.3429253","57276.9242707","58043.4456361","58810.6564581","59577.230074","60326.4850439","61093.232106","69587.0858971","Mapping"
"Mixed","both","tile","34","M_knife.wav","space","444.116170984","303","69577.0445699","61860.2280524","62626.8353681","63393.7722621","64160.066695","64910.214866","65676.784772","66443.3021182","70326.5246181","71093.4256483","57276.9242707","58043.4456361","58810.6564581","59577.230074","60326.4850439","61093.232106","70336.0480801","Mapping"
"Mixed","both","tile","34","M_tile.wav","None","731.331580784","303","69577.0445699","61860.2280524","62626.8353681","63393.7722621","64160.066695","64910.214866","65676.784772","66443.3021182","70326.5246181","71093.4256483","71860.0224522","58043.4456361","58810.6564581","59577.230074","60326.4850439","61093.232106","71103.2672497","Mapping"
"Mixed","both","tile","34","M_park.wav","space","398.564755917","303","69577.0445699","61860.2280524","62626.8353681","63393.7722621","64160.066695","64910.214866","65676.784772","66443.3021182","70326.5246181","71093.4256483","71860.0224522","72626.6467725","58810.6564581","59577.230074","60326.4850439","61093.232106","71869.550861","Mapping"
"Mixed","both","tile","34","F_park.wav","None","725.438430905","303","69577.0445699","61860.2280524","62626.8353681","63393.7722621","64160.066695","64910.214866","65676.784772","66443.3021182","70326.5246181","71093.4256483","71860.0224522","72626.6467725","73393.5731547","59577.230074","60326.4850439","61093.232106","72636.5576284","Mapping"
"Mixed","both","tile","34","M_gnash.wav","None","722.598056775","303","69577.0445699","61860.2280524","62626.8353681","63393.7722621","64160.066695","64910.214866","65676.784772","66443.3021182","70326.5246181","71093.4256483","71860.0224522","72626.6467725","73393.5731547","74160.3638101","60326.4850439","61093.232106","73403.4796823","Mapping"
"Mixed","both","tile","34","M_dime.wav","None","719.408935402","303","69577.0445699","61860.2280524","62626.8353681","63393.7722621","64160.066695","64910.214866","65676.784772","66443.3021182","70326.5246181","71093.4256483","71860.0224522","72626.6467725","73393.5731547","74160.3638101","74909.8181967","61093.232106","74170.7031801","Mapping"
"Mixed","both","tile","34","F_jolt.wav","None","734.879034571","303","69577.0445699","61860.2280524","62626.8353681","63393.7722621","64160.066695","64910.214866","65676.784772","66443.3021182","70326.5246181","71093.4256483","71860.0224522","72626.6467725","73393.5731547","74160.3638101","74909.8181967","75676.6184364","74919.1827439","Mapping"
"Mixed","both","tile","34","F_tile.wav","None","732.311350759","303","69577.0445699","76443.0804411","62626.8353681","63393.7722621","64160.066695","64910.214866","65676.784772","66443.3021182","70326.5246181","71093.4256483","71860.0224522","72626.6467725","73393.5731547","74160.3638101","74909.8181967","75676.6184364","75685.7749103","Mapping"
"Mixed","both","tile","34","F_cad.wav","space","551.327234134","303","69577.0445699","76443.0804411","77209.9879635","63393.7722621","64160.066695","64910.214866","65676.784772","66443.3021182","70326.5246181","71093.4256483","71860.0224522","72626.6467725","73393.5731547","74160.3638101","74909.8181967","75676.6184364","76452.7795133","Mapping"
"Mixed","both","tile","34","M_jaw.wav","None","726.376771461","303","69577.0445699","76443.0804411","77209.9879635","77976.9053804","64160.066695","64910.214866","65676.784772","66443.3021182","70326.5246181","71093.4256483","71860.0224522","72626.6467725","73393.5731547","74160.3638101","74909.8181967","75676.6184364","77219.5664588","Mapping"
"Mixed","both","tile","34","F_bluff.wav","None","723.136945628","303","69577.0445699","76443.0804411","77209.9879635","77976.9053804","78743.4789962","64910.214866","65676.784772","66443.3021182","70326.5246181","71093.4256483","71860.0224522","72626.6467725","73393.5731547","74160.3638101","74909.8181967","75676.6184364","77986.8530277","Mapping"
"Mixed","both","tile","34","F_priest.wav","None","720.826494042","303","69577.0445699","76443.0804411","77209.9879635","77976.9053804","78743.4789962","79493.1807211","65676.784772","66443.3021182","70326.5246181","71093.4256483","71860.0224522","72626.6467725","73393.5731547","74160.3638101","74909.8181967","75676.6184364","78753.2689655","Mapping"
"Mixed","both","tile","34","F_tile.wav","None","735.36010785","303","69577.0445699","76443.0804411","77209.9879635","77976.9053804","78743.4789962","79493.1807211","80259.8835714","66443.3021182","70326.5246181","71093.4256483","71860.0224522","72626.6467725","73393.5731547","74160.3638101","74909.8181967","75676.6184364","79502.9815119","Mapping"
"Mixed","both","tile","34","F_cad.wav","space","454.934759997","303","69577.0445699","76443.0804411","77209.9879635","77976.9053804","78743.4789962","79493.1807211","80259.8835714","81026.1569801","70326.5246181","71093.4256483","71860.0224522","72626.6467725","73393.5731547","74160.3638101","74909.8181967","75676.6184364","80269.0854934","Mapping"
"Mixed","both","cave","17","M_gnash.wav","None","730.416119564","303","84160.2008757","76443.0804411","77209.9879635","77976.9053804","78743.4789962","79493.1807211","80259.8835714","81026.1569801","70326.5246181","71093.4256483","71860.0224522","72626.6467725","73393.5731547","74160.3638101","74909.8181967","75676.6184364","81035.6300469","Mapping"
"Mixed","both","cave","17","M_cave.wav","None","720.078604296","303","84160.2008757","76443.0804411","77209.9879635","77976.9053804","78743.4789962","79493.1807211","80259.8835714","81026.1569801","84909.3782431","71093.4256483","71860.0224522","72626.6467725","73393.5731547","74160.3638101","74909.8181967","75676.6184364","84170.6487658","Mapping"
"Mixed","both","cave","17","F_jolt.wav","space","461.036293302","303","84160.2008757","76443.0804411","77209.9879635","77976.9053804","78743.4789962","79493.1807211","80259.8835714","81026.1569801","84909.3782431","85676.4895115","71860.0224522","72626.6467725","73393.5731547","74160.3638101","74909.8181967","75676.6184364","84918.846054","Mapping"
"Mixed","both","cave","17","M_gnash.wav","None","732.336703222","303","84160.2008757","76443.0804411","77209.9879635","77976.9053804","78743.4789962","79493.1807211","80259.8835714","81026.1569801","84909.3782431","85676.4895115","86442.9666651","72626.6467725","73393.5731547","74160.3638101","74909.8181967","75676.6184364","85685.8945601","Mapping"
"Mixed","both","cave","17","M_cave.wav","None","729.157784488","303","84160.2008757","76443.0804411","77209.9879635","77976.9053804","78743.4789962","79493.1807211","80259.8835714","81026.1569801","84909.3782431","85676.4895115","86442.9666651","87209.7127996","73393.5731547","74160.3638101","74909.8181967","75676.6184364","86452.9455393","Mapping"
"Mixed","both","cave","17","F_cad.wav","space","464.496250264","303","84160.2008757","76443.0804411","77209.9879635","77976.9053804","78743.4789962","79493.1807211","80259.8835714","81026.1569801","84909.3782431","85676.4895115","86442.9666651","87209.7127996","87976.6663895","74160.3638101","74909.8181967","75676.6184364","87219.3450904","Mapping"
"Mixed","both","cave","17","F_cling.wav","None","722.56002808","303","84160.2008757","76443.0804411","77209.9879635","77976.9053804","78743.4789962","79493.1807211","80259.8835714","81026.1569801","84909.3782431","85676.4895115","86442.9666651","87209.7127996","87976.6663895","88743.2059962","74909.8181967","75676.6184364","87986.9414517","Mapping"
"Mixed","both","cave","17","F_cave.wav","None","719.835593831","303","84160.2008757","76443.0804411","77209.9879635","77976.9053804","78743.4789962","79493.1807211","80259.8835714","81026.1569801","84909.3782431","85676.4895115","86442.9666651","87209.7127996","87976.6663895","88743.2059962","89492.7744674","75676.6184364","88753.6634705","Mapping"
"Mixed","both","cave","17","M_reek.wav","space","541.260863654","303","84160.2008757","76443.0804411","77209.9879635","77976.9053804","78743.4789962","79493.1807211","80259.8835714","81026.1569801","84909.3782431","85676.4895115","86442.9666651","87209.7127996","87976.6663895","88743.2059962","89492.7744674","90259.6850824","89502.5421767","Mapping"
"Mixed","both","cave","17","F_cling.wav","None","731.845736038","303","84160.2008757","91026.3387738","77209.9879635","77976.9053804","78743.4789962","79493.1807211","80259.8835714","81026.1569801","84909.3782431","85676.4895115","86442.9666651","87209.7127996","87976.6663895","88743.2059962","89492.7744674","90259.6850824","90269.2045253","Mapping"
"Mixed","both","cave","17","M_dime.wav","None","729.20446936","303","84160.2008757","91026.3387738","91792.8848732","77976.9053804","78743.4789962","79493.1807211","80259.8835714","81026.1569801","84909.3782431","85676.4895115","86442.9666651","87209.7127996","87976.6663895","88743.2059962","89492.7744674","90259.6850824","91035.9144863","Mapping"
"Mixed","both","cave","17","F_jaw.wav","None","726.284638047","303","84160.2008757","91026.3387738","91792.8848732","92560.1256848","78743.4789962","79493.1807211","80259.8835714","81026.1569801","84909.3782431","85676.4895115","86442.9666651","87209.7127996","87976.6663895","88743.2059962","89492.7744674","90259.6850824","91802.7771791","Mapping"
"Mixed","both","cave","17","F_cave.wav","None","722.371123265","303","84160.2008757","91026.3387738","91792.8848732","92560.1256848","93326.7014651","79493.1807211","80259.8835714","81026.1569801","84909.3782431","85676.4895115","86442.9666651","87209.7127996","87976.6663895","88743.2059962","89492.7744674","90259.6850824","92570.7151764","Mapping"
"Mixed","both","cave","17","F_bluff.wav","space","538.670920301","303","84160.2008757","91026.3387738","91792.8848732","92560.1256848","93326.7014651","94076.1382286","80259.8835714","81026.1569801","84909.3782431","85676.4895115","86442.9666651","87209.7127996","87976.6663895","88743.2059962","89492.7744674","90259.6850824","93337.0627863","Mapping"
"Mixed","both","cave","17","M_greet.wav","None","735.103184823","303","84160.2008757","91026.3387738","91792.8848732","92560.1256848","93326.7014651","94076.1382286","94842.7514187","81026.1569801","84909.3782431","85676.4895115","86442.9666651","87209.7127996","87976.6663895","88743.2059962","89492.7744674","90259.6850824","94085.7185787","Mapping"
"Mixed","both","cave","17","M_dime.wav","None","732.699981891","303","84160.2008757","91026.3387738","91792.8848732","92560.1256848","93326.7014651","94076.1382286","94842.7514187","95609.5986529","84909.3782431","85676.4895115","86442.9666651","87209.7127996","87976.6663895","88743.2059962","89492.7744674","90259.6850824","94852.1926408","Mapping"
"Mixed","both","tile","28","F_bluff.wav","None","729.64627808","303","98743.2124889","91026.3387738","91792.8848732","92560.1256848","93326.7014651","94076.1382286","94842.7514187","95609.5986529","84909.3782431","85676.4895115","86442.9666651","87209.7127996","87976.6663895","88743.2059962","89492.7744674","90259.6850824","95619.2933968","Mapping"
"Mixed","both","tile","28","F_knife.wav","None","719.676679466","303","98743.2124889","91026.3387738","91792.8848732","92560.1256848","93326.7014651","94076.1382286","94842.7514187","95609.5986529","99509.1795069","85676.4895115","86442.9666651","87209.7127996","87976.6663895","88743.2059962","89492.7744674","90259.6850824","98753.5598972","Mapping"
"Mixed","both","tile","28","F_tile.wav","None","721.063320525","303","98743.2124889","91026.3387738","91792.8848732","92560.1256848","93326.7014651","94076.1382286","94842.7514187","95609.5986529","99509.1795069","100259.50638","86442.9666651","87209.7127996","87976.6663895","88743.2059962","89492.7744674","90259.6850824","99518.2695081","Mapping"
"Mixed","both","tile","28","M_lash.wav","space","470.713104587","303","98743.2124889","91026.3387738","91792.8848732","92560.1256848","93326.7014651","94076.1382286","94842.7514187","95609.5986529","99509.1795069","100259.50638","101026.034857","87209.7127996","87976.6663895","88743.2059962","89492.7744674","90259.6850824","100268.869691","Mapping"
"Mixed","both","tile","28","F_gnash.wav","None","731.49884399","303","98743.2124889","91026.3387738","91792.8848732","92560.1256848","93326.7014651","94076.1382286","94842.7514187","95609.5986529","99509.1795069","100259.50638","101026.034857","101792.638463","87976.6663895","88743.2059962","89492.7744674","90259.6850824","101035.70363","Mapping"
"Mixed","both","tile","28","F_tile.wav","None","729.292274918","303","98743.2124889","91026.3387738","91792.8848732","92560.1256848","93326.7014651","94076.1382286","94842.7514187","95609.5986529","99509.1795069","100259.50638","101026.034857","101792.638463","102559.500228","88743.2059962","89492.7744674","90259.6850824","101802.086177","Mapping"
"Mixed","both","tile","28","M_park.wav","space","482.55567532","303","98743.2124889","91026.3387738","91792.8848732","92560.1256848","93326.7014651","94076.1382286","94842.7514187","95609.5986529","99509.1795069","100259.50638","101026.034857","101792.638463","102559.500228","103326.399403","89492.7744674","90259.6850824","102577.001904","Mapping"
"Mixed","both","tile","28","M_knife.wav","None","723.241755273","303","98743.2124889","91026.3387738","91792.8848732","92560.1256848","93326.7014651","94076.1382286","94842.7514187","95609.5986529","99509.1795069","100259.50638","101026.034857","101792.638463","102559.500228","103326.399403","104092.945193","90259.6850824","103336.024274","Mapping"
"Mixed","both","tile","28","M_tile.wav","None","720.404472668","303","98743.2124889","91026.3387738","91792.8848732","92560.1256848","93326.7014651","94076.1382286","94842.7514187","95609.5986529","99509.1795069","100259.50638","101026.034857","101792.638463","102559.500228","103326.399403","104092.945193","104859.811905","104103.034442","Mapping"
"Mixed","both","tile","28","M_park.wav","space","493.664886337","303","98743.2124889","105609.264127","91792.8848732","92560.1256848","93326.7014651","94076.1382286","94842.7514187","95609.5986529","99509.1795069","100259.50638","101026.034857","101792.638463","102559.500228","103326.399403","104092.945193","104859.811905","104869.906101","Mapping"
"Mixed","both","tile","28","M_tile.wav","None","732.422962785","303","98743.2124889","105609.264127","106375.922766","92560.1256848","93326.7014651","94076.1382286","94842.7514187","95609.5986529","99509.1795069","100259.50638","101026.034857","101792.638463","102559.500228","103326.399403","104092.945193","104859.811905","105619.382748","Mapping"
"Mixed","both","tile","28","M_priest.wav","space","473.812875338","303","98743.2124889","105609.264127","106375.922766","107142.585733","93326.7014651","94076.1382286","94842.7514187","95609.5986529","99509.1795069","100259.50638","101026.034857","101792.638463","102559.500228","103326.399403","104092.945193","104859.811905","106385.647191","Mapping"
"Mixed","both","tile","28","F_depth.wav","None","727.399825584","303","98743.2124889","105609.264127","106375.922766","107142.585733","107909.065051","94076.1382286","94842.7514187","95609.5986529","99509.1795069","100259.50638","101026.034857","101792.638463","102559.500228","103326.399403","104092.945193","104859.811905","107152.430117","Mapping"
"Mixed","both","tile","28","F_park.wav","None","725.482333452","303","98743.2124889","105609.264127","106375.922766","107142.585733","107909.065051","108676.325959","94842.7514187","95609.5986529","99509.1795069","100259.50638","101026.034857","101792.638463","102559.500228","103326.399403","104092.945193","104859.811905","107918.63087","Mapping"
"Mixed","both","tile","28","F_gnash.wav","None","722.204169724","303","98743.2124889","105609.264127","106375.922766","107142.585733","107909.065051","108676.325959","109442.824136","95609.5986529","99509.1795069","100259.50638","101026.034857","101792.638463","102559.500228","103326.399403","104092.945193","104859.811905","108686.080992","Mapping"
"Mixed","both","tile","28","M_depth.wav","None","719.759846572","303","98743.2124889","105609.264127","106375.922766","107142.585733","107909.065051","108676.325959","109442.824136","110192.332628","99509.1795069","100259.50638","101026.034857","101792.638463","102559.500228","103326.399403","104092.945193","104859.811905","109452.665738","Mapping"
"Mixed","both","ball","9","M_romp.wav","None","734.862338752","303","113326.197204","105609.264127","106375.922766","107142.585733","107909.065051","108676.325959","109442.824136","110192.332628","99509.1795069","100259.50638","101026.034857","101792.638463","102559.500228","103326.399403","104092.945193","104859.811905","110201.90865","Mapping"
"Mixed","both","ball","9","M_ball.wav","None","720.069020055","303","113326.197204","105609.264127","106375.922766","107142.585733","107909.065051","108676.325959","109442.824136","110192.332628","114075.514626","100259.50638","101026.034857","101792.638463","102559.500228","103326.399403","104092.945193","104859.811905","113335.978516","Mapping"
"Mixed","both","ball","9","F_reek.wav","space","518.24848447","303","113326.197204","105609.264127","106375.922766","107142.585733","107909.065051","108676.325959","109442.824136","110192.332628","114075.514626","114842.465434","101026.034857","101792.638463","102559.500228","103326.399403","104092.945193","104859.811905","114085.101778","Mapping"
"Mixed","both","ball","9","F_ball.wav","None","731.791012455","303","113326.197204","105609.264127","106375.922766","107142.585733","107909.065051","108676.325959","109442.824136","110192.332628","114075.514626","114842.465434","115609.219607","101792.638463","102559.500228","103326.399403","104092.945193","104859.811905","114852.059387","Mapping"
"Mixed","both","ball","9","M_priest.wav","space","584.476475604","303","113326.197204","105609.264127","106375.922766","107142.585733","107909.065051","108676.325959","109442.824136","110192.332628","114075.514626","114842.465434","115609.219607","116375.870825","102559.500228","103326.399403","104092.945193","104859.811905","115618.888998","Mapping"
"Mixed","both","ball","9","M_bluff.wav","None","726.245373022","303","113326.197204","105609.264127","106375.922766","107142.585733","107909.065051","108676.325959","109442.824136","110192.332628","114075.514626","114842.465434","115609.219607","116375.870825","117142.234821","103326.399403","104092.945193","104859.811905","116385.456122","Mapping"
"Mixed","both","ball","9","F_ball.wav","None","724.586040247","303","113326.197204","105609.264127","106375.922766","107142.585733","107909.065051","108676.325959","109442.824136","110192.332628","114075.514626","114842.465434","115609.219607","116375.870825","117142.234821","117909.587245","104092.945193","104859.811905","117151.489921","Mapping"
"Mixed","both","ball","9","F_lash.wav","space","561.090614647","303","113326.197204","105609.264127","106375.922766","107142.585733","107909.065051","108676.325959","109442.824136","110192.332628","114075.514626","114842.465434","115609.219607","116375.870825","117142.234821","117909.587245","118676.159314","104859.811905","117914.243393","Mapping"
"Mixed","both","ball","9","M_cling.wav","None","718.8759204","303","113326.197204","105609.264127","106375.922766","107142.585733","107909.065051","108676.325959","109442.824136","110192.332628","114075.514626","114842.465434","115609.219607","116375.870825","117142.234821","117909.587245","118676.159314","119425.751283","118686.275152","Mapping"
"Mixed","both","ball","9","M_park.wav","None","733.528256882","303","113326.197204","120192.306967","106375.922766","107142.585733","107909.065051","108676.325959","109442.824136","110192.332628","114075.514626","114842.465434","115609.219607","116375.870825","117142.234821","117909.587245","118676.159314","119425.751283","119435.943796","Mapping"
"Mixed","both","ball","9","F_dime.wav","None","732.479232363","303","113326.197204","120192.306967","120959.149254","107142.585733","107909.065051","108676.325959","109442.824136","110192.332628","114075.514626","114842.465434","115609.219607","116375.870825","117142.234821","117909.587245","118676.159314","119425.751283","120201.689137","Mapping"
"Mixed","both","ball","9","F_dime.wav","None","729.152837303","303","113326.197204","120192.306967","120959.149254","121725.694426","107909.065051","108676.325959","109442.824136","110192.332628","114075.514626","114842.465434","115609.219607","116375.870825","117142.234821","117909.587245","118676.159314","119425.751283","120969.154408","Mapping"
"Mixed","both","ball","9","M_ball.wav","None","727.149395272","303","113326.197204","120192.306967","120959.149254","121725.694426","122492.307616","108676.325959","109442.824136","110192.332628","114075.514626","114842.465434","115609.219607","116375.870825","117142.234821","117909.587245","118676.159314","119425.751283","121735.279105","Mapping"
"Mixed","both","ball","9","M_romp.wav","space","373.037252575","303","113326.197204","120192.306967","120959.149254","121725.694426","122492.307616","123259.471753","109442.824136","110192.332628","114075.514626","114842.465434","115609.219607","116375.870825","117142.234821","117909.587245","118676.159314","119425.751283","122502.194357","Mapping"
"Mixed","both","ball","9","F_depth.wav","None","719.947205856","303","113326.197204","120192.306967","120959.149254","121725.694426","122492.307616","123259.471753","124009.033732","110192.332628","114075.514626","114842.465434","115609.219607","116375.870825","117142.234821","117909.587245","118676.159314","119425.751283","123270.341355","Mapping"
"Mixed","both","ball","9","F_dime.wav","None","735.841490794","303","113326.197204","120192.306967","120959.149254","121725.694426","122492.307616","123259.471753","124009.033732","124775.652796","114075.514626","114842.465434","115609.219607","116375.870825","117142.234821","117909.587245","118676.159314","119425.751283","124018.750118","Mapping"
"Mixed","both","ball","4","M_gnash.wav","None","733.540623449","303","127909.473159","120192.306967","120959.149254","121725.694426","122492.307616","123259.471753","124009.033732","124775.652796","114075.514626","114842.465434","115609.219607","116375.870825","117142.234821","117909.587245","118676.159314","119425.751283","124785.342284","Mapping"
"Mixed","both","ball","4","F_gnash.wav","None","725.677421317","303","127909.473159","120192.306967","120959.149254","121725.694426","122492.307616","123259.471753","124009.033732","124775.652796","128659.018443","114842.465434","115609.219607","116375.870825","117142.234821","117909.587245","118676.159314","119425.751283","127914.141984","Mapping"
"Mixed","both","ball","4","M_jaw.wav","None","735.088344663","303","127909.473159","120192.306967","120959.149254","121725.694426","122492.307616","123259.471753","124009.033732","124775.652796","128659.018443","129425.600407","115609.219607","116375.870825","117142.234821","117909.587245","118676.159314","119425.751283","128669.142938","Mapping"
"Mixed","both","ball","4","F_ball.wav","None","732.792115305","303","127909.473159","120192.306967","120959.149254","121725.694426","122492.307616","123259.471753","124009.033732","124775.652796","128659.018443","129425.600407","130192.087763","116375.870825","117142.234821","117909.587245","118676.159314","119425.751283","129435.716554","Mapping"
"Mixed","both","ball","4","M_lash.wav","space","385.240318719","303","127909.473159","120192.306967","120959.149254","121725.694426","122492.307616","123259.471753","124009.033732","124775.652796","128659.018443","129425.600407","130192.087763","130959.018165","117142.234821","117909.587245","118676.159314","119425.751283","130201.831666","Mapping"
"Mixed","both","ball","4","M_cad.wav","None","727.586875204","303","127909.473159","120192.306967","120959.149254","121725.694426","122492.307616","123259.471753","124009.033732","124775.652796","128659.018443","129425.600407","130192.087763","130959.018165","131725.235304","117909.587245","118676.159314","119425.751283","130968.777526","Mapping"
"Mixed","both","ball","4","M_ball.wav","None","726.489928551","303","127909.473159","120192.306967","120959.149254","121725.694426","122492.307616","123259.471753","124009.033732","124775.652796","128659.018443","129425.600407","130192.087763","130959.018165","131725.235304","132492.44087","118676.159314","119425.751283","131734.545127","Mapping"
"Mixed","both","ball","4","F_jaw.wav","space","476.481967606","303","127909.473159","120192.306967","120959.149254","121725.694426","122492.307616","123259.471753","124009.033732","124775.652796","128659.018443","129425.600407","130192.087763","130959.018165","131725.235304","132492.44087","133258.853097","119425.751283","132502.583606","Mapping"
"Mixed","both","ball","4","M_dime.wav","None","720.345111564","303","127909.473159","120192.306967","120959.149254","121725.694426","122492.307616","123259.471753","124009.033732","124775.652796","128659.018443","129425.600407","130192.087763","130959.018165","131725.235304","132492.44087","133258.853097","134008.5743","133268.421698","Mapping"
"Mixed","both","ball","4","M_ball.wav","None","734.68580097","303","127909.473159","134775.453379","120959.149254","121725.694426","122492.307616","123259.471753","124009.033732","124775.652796","128659.018443","129425.600407","130192.087763","130959.018165","131725.235304","132492.44087","133258.853097","134008.5743","134018.485466","Mapping"
"Mixed","both","ball","4","M_reek.wav","space","441.934026778","303","127909.473159","134775.453379","135542.019266","121725.694426","122492.307616","123259.471753","124009.033732","124775.652796","128659.018443","129425.600407","130192.087763","130959.018165","131725.235304","132492.44087","133258.853097","134008.5743","134785.059081","Mapping"
"Mixed","both","ball","4","F_jaw.wav","None","729.35256362","303","127909.473159","134775.453379","135542.019266","136308.954923","122492.307616","123259.471753","124009.033732","124775.652796","128659.018443","129425.600407","130192.087763","130959.018165","131725.235304","132492.44087","133258.853097","134008.5743","135551.809544","Mapping"
"Mixed","both","ball","4","F_park.wav","None","726.783643477","303","127909.473159","134775.453379","135542.019266","136308.954923","137075.473506","123259.471753","124009.033732","124775.652796","128659.018443","129425.600407","130192.087763","130959.018165","131725.235304","132492.44087","133258.853097","134008.5743","136318.726033","Mapping"
"Mixed","both","ball","4","F_park.wav","None","724.865223281","303","127909.473159","134775.453379","135542.019266","136308.954923","137075.473506","137842.598378","124009.033732","124775.652796","128659.018443","129425.600407","130192.087763","130959.018165","131725.235304","132492.44087","133258.853097","134008.5743","137085.121256","Mapping"
"Mixed","both","ball","4","F_ball.wav","None","721.934261732","303","127909.473159","134775.453379","135542.019266","136308.954923","137075.473506","137842.598378","138609.268765","124775.652796","128659.018443","129425.600407","130192.087763","130959.018165","131725.235304","132492.44087","133258.853097","134008.5743","137852.470587","Mapping"
"Mixed","both","ball","4","F_gnash.wav","space","471.383701544","303","127909.473159","134775.453379","135542.019266","136308.954923","137075.473506","137842.598378","138609.268765","139358.819304","128659.018443","129425.600407","130192.087763","130959.018165","131725.235304","132492.44087","133258.853097","134008.5743","138619.533934","Mapping"
"Mixed","both","cave","18","F_cling.wav","None","734.103319235","303","142492.282264","134775.453379","135542.019266","136308.954923","137075.473506","137842.598378","138609.268765","139358.819304","128659.018443","129425.600407","130192.087763","130959.018165","131725.235304","132492.44087","133258.853097","134008.5743","139368.113051","Mapping"
"Mixed","both","cave","18","F_bluff.wav","None","720.079222694","303","142492.282264","134775.453379","135542.019266","136308.954923","137075.473506","137842.598378","138609.268765","139358.819304","143241.573407","129425.600407","130192.087763","130959.018165","131725.235304","132492.44087","133258.853097","134008.5743","142502.405831","Mapping"
"Mixed","both","cave","18","M_greet.wav","None","735.336610582","303","142492.282264","134775.453379","135542.019266","136308.954923","137075.473506","137842.598378","138609.268765","139358.819304","143241.573407","144008.729505","130192.087763","130959.018165","131725.235304","132492.44087","133258.853097","134008.5743","143251.551972","Mapping"
"Mixed","both","cave","18","F_cave.wav","None","732.425126713","303","142492.282264","134775.453379","135542.019266","136308.954923","137075.473506","137842.598378","138609.268765","139358.819304","143241.573407","144008.729505","144775.061348","130959.018165","131725.235304","132492.44087","133258.853097","134008.5743","144018.768977","Mapping"
"Mixed","both","cave","18","M_depth.wav","space","442.264533136","303","142492.282264","134775.453379","135542.019266","136308.954923","137075.473506","137842.598378","138609.268765","139358.819304","143241.573407","144008.729505","144775.061348","145541.732972","131725.235304","132492.44087","133258.853097","134008.5743","144784.544617","Mapping"
"Mixed","both","cave","18","F_knife.wav","None","727.843489032","303","142492.282264","134775.453379","135542.019266","136308.954923","137075.473506","137842.598378","138609.268765","139358.819304","143241.573407","144008.729505","144775.061348","145541.732972","146308.680068","132492.44087","133258.853097","134008.5743","145551.211603","Mapping"
"Mixed","both","cave","18","F_romp.wav","None","725.15275469","303","142492.282264","134775.453379","135542.019266","136308.954923","137075.473506","137842.598378","138609.268765","139358.819304","143241.573407","144008.729505","144775.061348","145541.732972","146308.680068","147075.218129","133258.853097","134008.5743","146318.30463","Mapping"
"Mixed","both","cave","18","F_cave.wav","None","722.888060845","303","142492.282264","134775.453379","135542.019266","136308.954923","137075.473506","137842.598378","138609.268765","139358.819304","143241.573407","144008.729505","144775.061348","145541.732972","146308.680068","147075.218129","147842.143584","134008.5743","147085.103324","Mapping"
"Mixed","both","cave","18","M_jaw.wav","space","486.475991085","303","142492.282264","134775.453379","135542.019266","136308.954923","137075.473506","137842.598378","138609.268765","139358.819304","143241.573407","144008.729505","144775.061348","145541.732972","146308.680068","147075.218129","147842.143584","148591.746065","147852.272408","Mapping"
"Mixed","both","cave","18","M_priest.wav","None","734.211838804","303","142492.282264","149358.701819","135542.019266","136308.954923","137075.473506","137842.598378","138609.268765","139358.819304","143241.573407","144008.729505","144775.061348","145541.732972","146308.680068","147075.218129","147842.143584","148591.746065","148601.531706","Mapping"
"Mixed","both","cave","18","F_gnash.wav","None","731.642918661","303","142492.282264","149358.701819","150125.279145","136308.954923","137075.473506","137842.598378","138609.268765","139358.819304","143241.573407","144008.729505","144775.061348","145541.732972","146308.680068","147075.218129","147842.143584","148591.746065","149368.224353","Mapping"
"Mixed","both","cave","18","M_bluff.wav","None","729.461701587","303","142492.282264","149358.701819","150125.279145","150891.782887","137075.473506","137842.598378","138609.268765","139358.819304","143241.573407","144008.729505","144775.061348","145541.732972","146308.680068","147075.218129","147842.143584","148591.746065","150134.741081","Mapping"
"Mixed","both","cave","18","M_cave.wav","None","727.139192633","303","142492.282264","149358.701819","150125.279145","150891.782887","151658.622392","137842.598378","138609.268765","139358.819304","143241.573407","144008.729505","144775.061348","145541.732972","146308.680068","147075.218129","147842.143584","148591.746065","150901.519988","Mapping"
"Mixed","both","cave","18","F_depth.wav","space","526.221133769","303","142492.282264","149358.701819","150125.279145","150891.782887","151658.622392","152425.55774","138609.268765","139358.819304","143241.573407","144008.729505","144775.061348","145541.732972","146308.680068","147075.218129","147842.143584","148591.746065","151668.460593","Mapping"
"Mixed","both","cave","18","M_cave.wav","None","720.995611977","303","142492.282264","149358.701819","150125.279145","150891.782887","151658.622392","152425.55774","153192.259045","139358.819304","143241.573407","144008.729505","144775.061348","145541.732972","146308.680068","147075.218129","147842.143584","148591.746065","152435.682854","Mapping"
"Mixed","both","cave","18","M_knife.wav","None","718.742357567","303","142492.282264","149358.701819","150125.279145","150891.782887","151658.622392","152425.55774","153192.259045","153941.43734","143241.573407","144008.729505","144775.061348","145541.732972","146308.680068","147075.218129","147842.143584","148591.746065","153202.447848","Mapping"
"Mixed","both","done","37","M_depth.wav","space","27.810129337","303","157075.456502","149358.701819","150125.279145","150891.782887","151658.622392","152425.55774","153192.259045","153941.43734","143241.573407","144008.729505","144775.061348","145541.732972","146308.680068","147075.218129","147842.143584","148591.746065","153950.813327","Mapping"
"Mixed","both","done","37","F_done.wav","space","0.0349362380803","303","157075.456502","149358.701819","150125.279145","150891.782887","151658.622392","152425.55774","153192.259045","153941.43734","157824.834214","144008.729505","144775.061348","145541.732972","146308.680068","147075.218129","147842.143584","148591.746065","157085.492882","Mapping"
"Mixed","both","done","37","M_jaw.wav","space","616.643164307","303","157075.456502","149358.701819","150125.279145","150891.782887","151658.622392","152425.55774","153192.259045","153941.43734","157824.834214","158591.727823","144775.061348","145541.732972","146308.680068","147075.218129","147842.143584","148591.746065","157833.967499","Mapping"
"Mixed","both","done","37","F_greet.wav","None","730.88018829","303","157075.456502","149358.701819","150125.279145","150891.782887","151658.622392","152425.55774","153192.259045","153941.43734","157824.834214","158591.727823","159358.606902","145541.732972","146308.680068","147075.218129","147842.143584","148591.746065","158601.463688","Mapping"
"Mixed","both","done","37","F_romp.wav","None","728.446067311","303","157075.456502","149358.701819","150125.279145","150891.782887","151658.622392","152425.55774","153192.259045","153941.43734","157824.834214","158591.727823","159358.606902","160125.034589","146308.680068","147075.218129","147842.143584","148591.746065","159368.335347","Mapping"
"Mixed","both","done","37","F_lash.wav","None","726.540942211","303","157075.456502","149358.701819","150125.279145","150891.782887","151658.622392","152425.55774","153192.259045","153941.43734","157824.834214","158591.727823","159358.606902","160125.034589","160891.618407","147075.218129","147842.143584","148591.746065","160134.702744","Mapping"
"Mixed","both","done","37","M_cad.wav","None","724.182878155","303","157075.456502","149358.701819","150125.279145","150891.782887","151658.622392","152425.55774","153192.259045","153941.43734","157824.834214","158591.727823","159358.606902","160125.034589","160891.618407","161658.763994","147842.143584","148591.746065","160901.543485","Mapping"
"Mixed","both","done","37","F_done.wav","None","720.429515466","303","157075.456502","149358.701819","150125.279145","150891.782887","151658.622392","152425.55774","153192.259045","153941.43734","157824.834214","158591.727823","159358.606902","160125.034589","160891.618407","161658.763994","162425.45695","148591.746065","161669.767777","Mapping"
"Mixed","both","done","37","M_knife.wav","space","390.950438567","303","157075.456502","149358.701819","150125.279145","150891.782887","151658.622392","152425.55774","153192.259045","153941.43734","157824.834214","158591.727823","159358.606902","160125.034589","160891.618407","161658.763994","162425.45695","163174.529817","162435.487765","Mapping"
"Mixed","both","done","37","M_done.wav","None","734.694457613","303","157075.456502","163941.521435","150125.279145","150891.782887","151658.622392","152425.55774","153192.259045","153941.43734","157824.834214","158591.727823","159358.606902","160125.034589","160891.618407","161658.763994","162425.45695","163174.529817","163183.645789","Mapping"
"Mixed","both","done","37","F_knife.wav","space","563.551014755","303","157075.456502","163941.521435","164708.332805","150891.782887","151658.622392","152425.55774","153192.259045","153941.43734","157824.834214","158591.727823","159358.606902","160125.034589","160891.618407","161658.763994","162425.45695","163174.529817","163950.930812","Mapping"
"Mixed","both","done","37","M_park.wav","None","728.311886545","303","157075.456502","163941.521435","164708.332805","165474.974439","151658.622392","152425.55774","153192.259045","153941.43734","157824.834214","158591.727823","159358.606902","160125.034589","160891.618407","161658.763994","162425.45695","163174.529817","164717.966642","Mapping"
"Mixed","both","done","37","M_lash.wav","None","725.700918585","303","157075.456502","163941.521435","164708.332805","165474.974439","166241.830021","152425.55774","153192.259045","153941.43734","157824.834214","158591.727823","159358.606902","160125.034589","160891.618407","161658.763994","162425.45695","163174.529817","165485.004327","Mapping"
"Mixed","both","done","37","M_done.wav","None","723.108501174","303","157075.456502","163941.521435","164708.332805","165474.974439","166241.830021","167008.774645","153192.259045","153941.43734","157824.834214","158591.727823","159358.606902","160125.034589","160891.618407","161658.763994","162425.45695","163174.529817","166252.141875","Mapping"
"Mixed","both","done","37","F_park.wav","space","423.536057118","303","157075.456502","163941.521435","164708.332805","165474.974439","166241.830021","167008.774645","167758.501413","153941.43734","157824.834214","158591.727823","159358.606902","160125.034589","160891.618407","161658.763994","162425.45695","163174.529817","167018.879352","Mapping"
"Mixed","both","done","37","F_depth.wav","None","735.494289082","303","157075.456502","163941.521435","164708.332805","165474.974439","166241.830021","167008.774645","167758.501413","168524.897872","157824.834214","158591.727823","159358.606902","160125.034589","160891.618407","161658.763994","162425.45695","163174.529817","167768.125665","Mapping"
"Mixed","both","tile","25","M_knife.wav","None","733.386655338","303","171658.602914","163941.521435","164708.332805","165474.974439","166241.830021","167008.774645","167758.501413","168524.897872","157824.834214","158591.727823","159358.606902","160125.034589","160891.618407","161658.763994","162425.45695","163174.529817","168534.716286","Mapping"
"Mixed","both","tile","25","F_tile.wav","None","720.48578551","303","171658.602914","163941.521435","164708.332805","165474.974439","166241.830021","167008.774645","167758.501413","168524.897872","172408.496327","158591.727823","159358.606902","160125.034589","160891.618407","161658.763994","162425.45695","163174.529817","171668.524282","Mapping"
"Mixed","both","tile","25","F_greet.wav","space","488.121720031","303","171658.602914","163941.521435","164708.332805","165474.974439","166241.830021","167008.774645","167758.501413","168524.897872","172408.496327","173174.819203","159358.606902","160125.034589","160891.618407","161658.763994","162425.45695","163174.529817","172418.209621","Mapping"
"Mixed","both","tile","25","M_gnash.wav","None","732.612794731","303","171658.602914","163941.521435","164708.332805","165474.974439","166241.830021","167008.774645","167758.501413","168524.897872","172408.496327","173174.819203","173941.30254","160125.034589","160891.618407","161658.763994","162425.45695","163174.529817","173184.79344","Mapping"
"Mixed","both","tile","25","F_park.wav","None","730.690974277","303","171658.602914","163941.521435","164708.332805","165474.974439","166241.830021","167008.774645","167758.501413","168524.897872","172408.496327","173174.819203","173941.30254","174708.228923","160891.618407","161658.763994","162425.45695","163174.529817","173951.280178","Mapping"
"Mixed","both","tile","25","M_dime.wav","None","728.5830318","303","171658.602914","163941.521435","164708.332805","165474.974439","166241.830021","167008.774645","167758.501413","168524.897872","172408.496327","173174.819203","173941.30254","174708.228923","175474.791099","161658.763994","162425.45695","163174.529817","174718.13916","Mapping"
"Mixed","both","tile","25","M_tile.wav","None","726.757981814","303","171658.602914","163941.521435","164708.332805","165474.974439","166241.830021","167008.774645","167758.501413","168524.897872","172408.496327","173174.819203","173941.30254","174708.228923","175474.791099","176241.352967","162425.45695","163174.529817","175484.654961","Mapping"
"Mixed","both","tile","25","F_jaw.wav","space","494.952901732","303","171658.602914","163941.521435","164708.332805","165474.974439","166241.830021","167008.774645","167758.501413","168524.897872","172408.496327","173174.819203","173941.30254","174708.228923","175474.791099","176241.352967","177008.44723","163174.529817","176251.26877","Mapping"
"Mixed","both","tile","25","F_priest.wav","None","720.86328594","303","171658.602914","163941.521435","164708.332805","165474.974439","166241.830021","167008.774645","167758.501413","168524.897872","172408.496327","173174.819203","173941.30254","174708.228923","175474.791099","176241.352967","177008.44723","177775.082371","177018.890173","Mapping"
"Mixed","both","tile","25","M_dime.wav","None","719.691828359","303","171658.602914","178524.733392","164708.332805","165474.974439","166241.830021","167008.774645","167758.501413","168524.897872","172408.496327","173174.819203","173941.30254","174708.228923","175474.791099","176241.352967","177008.44723","177775.082371","177785.121225","Mapping"
"Mixed","both","tile","25","M_tile.wav","None","734.747636132","303","171658.602914","178524.733392","179291.258777","165474.974439","166241.830021","167008.774645","167758.501413","168524.897872","172408.496327","173174.819203","173941.30254","174708.228923","175474.791099","176241.352967","177008.44723","177775.082371","178534.783994","Mapping"
"Mixed","both","tile","25","F_dime.wav","space","565.107392613","303","171658.602914","178524.733392","179291.258777","180058.050669","166241.830021","167008.774645","167758.501413","168524.897872","172408.496327","173174.819203","173941.30254","174708.228923","175474.791099","176241.352967","177008.44723","177775.082371","179301.083065","Mapping"
"Mixed","both","tile","25","F_reek.wav","None","729.864863679","303","171658.602914","178524.733392","179291.258777","180058.050669","180824.731877","167008.774645","167758.501413","168524.897872","172408.496327","173174.819203","173941.30254","174708.228923","175474.791099","176241.352967","177008.44723","177775.082371","180067.780659","Mapping"
"Mixed","both","tile","25","M_greet.wav","None","726.723045111","303","171658.602914","178524.733392","179291.258777","180058.050669","180824.731877","181591.229436","167758.501413","168524.897872","172408.496327","173174.819203","173941.30254","174708.228923","175474.791099","176241.352967","177008.44723","177775.082371","180835.637034","Mapping"
"Mixed","both","tile","25","F_tile.wav","None","725.747913122","303","171658.602914","178524.733392","179291.258777","180058.050669","180824.731877","181591.229436","182358.411505","168524.897872","172408.496327","173174.819203","173941.30254","174708.228923","175474.791099","176241.352967","177008.44723","177775.082371","181601.302608","Mapping"
"Mixed","both","tile","25","M_reek.wav","space","545.375959016","303","171658.602914","178524.733392","179291.258777","180058.050669","180824.731877","181591.229436","182358.411505","183125.093641","172408.496327","173174.819203","173941.30254","174708.228923","175474.791099","176241.352967","177008.44723","177775.082371","182368.783648","Mapping"
"Mixed","both","cave","16","M_priest.wav","None","720.03593808","303","186241.268871","178524.733392","179291.258777","180058.050669","180824.731877","181591.229436","182358.411505","183125.093641","172408.496327","173174.819203","173941.30254","174708.228923","175474.791099","176241.352967","177008.44723","177775.082371","183135.023975","Mapping"
"Mixed","both","cave","16","F_jolt.wav","None","720.08695174","303","186241.268871","178524.733392","179291.258777","180058.050669","180824.731877","181591.229436","182358.411505","183125.093641","186990.990384","173174.819203","173941.30254","174708.228923","175474.791099","176241.352967","177008.44723","177775.082371","186251.407279","Mapping"
"Mixed","both","cave","16","F_priest.wav","None","735.06979458","303","186241.268871","178524.733392","179291.258777","180058.050669","180824.731877","181591.229436","182358.411505","183125.093641","186990.990384","187757.652732","173941.30254","174708.228923","175474.791099","176241.352967","177008.44723","177775.082371","187001.092927","Mapping"
"Mixed","both","cave","16","M_cave.wav","None","733.695210423","303","186241.268871","178524.733392","179291.258777","180058.050669","180824.731877","181591.229436","182358.411505","183125.093641","186990.990384","187757.652732","188524.568603","174708.228923","175474.791099","176241.352967","177008.44723","177775.082371","187767.056235","Mapping"
"Mixed","both","cave","16","F_jaw.wav","space","459.641921334","303","186241.268871","178524.733392","179291.258777","180058.050669","180824.731877","181591.229436","182358.411505","183125.093641","186990.990384","187757.652732","188524.568603","189291.139127","175474.791099","176241.352967","177008.44723","177775.082371","188534.388562","Mapping"
"Mixed","both","cave","16","F_romp.wav","None","727.92449221","303","186241.268871","178524.733392","179291.258777","180058.050669","180824.731877","181591.229436","182358.411505","183125.093641","186990.990384","187757.652732","188524.568603","189291.139127","190057.94555","176241.352967","177008.44723","177775.082371","189300.810065","Mapping"
"Mixed","both","cave","16","F_cave.wav","None","725.780067034","303","186241.268871","178524.733392","179291.258777","180058.050669","180824.731877","181591.229436","182358.411505","183125.093641","186990.990384","187757.652732","188524.568603","189291.139127","190057.94555","190824.83916","177008.44723","177775.082371","190067.495601","Mapping"
"Mixed","both","cave","16","F_lash.wav","space","510.476179421","303","186241.268871","178524.733392","179291.258777","180058.050669","180824.731877","181591.229436","182358.411505","183125.093641","186990.990384","187757.652732","188524.568603","189291.139127","190057.94555","190824.83916","191591.414941","177775.082371","190835.491723","Mapping"
"Mixed","both","cave","16","M_depth.wav","None","719.702340662","303","186241.268871","178524.733392","179291.258777","180058.050669","180824.731877","181591.229436","182358.411505","183125.093641","186990.990384","187757.652732","188524.568603","189291.139127","190057.94555","190824.83916","191591.414941","192340.915394","191601.62353","Mapping"
"Mixed","both","cave","16","M_cave.wav","None","735.636509024","303","186241.268871","193107.844559","179291.258777","180058.050669","180824.731877","181591.229436","182358.411505","183125.093641","186990.990384","187757.652732","188524.568603","189291.139127","190057.94555","190824.83916","191591.414941","192340.915394","192350.350123","Mapping"
"Mixed","both","cave","16","M_depth.wav","space","524.354036897","303","186241.268871","193107.844559","193874.456821","180058.050669","180824.731877","181591.229436","182358.411505","183125.093641","186990.990384","187757.652732","188524.568603","189291.139127","190057.94555","190824.83916","191591.414941","192340.915394","193117.587225","Mapping"
"Mixed","both","cave","16","M_cad.wav","None","729.91031222","303","186241.268871","193107.844559","193874.456821","194641.052389","180824.731877","181591.229436","182358.411505","183125.093641","186990.990384","187757.652732","188524.568603","189291.139127","190057.94555","190824.83916","191591.414941","192340.915394","193884.125285","Mapping"
"Mixed","both","cave","16","M_reek.wav","None","731.54150974","303","186241.268871","193107.844559","193874.456821","194641.052389","195407.486876","181591.229436","182358.411505","183125.093641","186990.990384","187757.652732","188524.568603","189291.139127","190057.94555","190824.83916","191591.414941","192340.915394","194650.200514","Mapping"
"Mixed","both","cave","16","F_cave.wav","None","729.049882852","303","186241.268871","193107.844559","193874.456821","194641.052389","195407.486876","196174.410476","182358.411505","183125.093641","186990.990384","187757.652732","188524.568603","189291.139127","190057.94555","190824.83916","191591.414941","192340.915394","195417.458021","Mapping"
"Mixed","both","cave","16","M_park.wav","space","537.176995073","303","186241.268871","193107.844559","193874.456821","194641.052389","195407.486876","196174.410476","196941.279661","183125.093641","186990.990384","187757.652732","188524.568603","189291.139127","190057.94555","190824.83916","191591.414941","192340.915394","196184.761904","Mapping"
"Mixed","both","cave","16","F_cling.wav","None","723.425713368","303","186241.268871","193107.844559","193874.456821","194641.052389","195407.486876","196174.410476","196941.279661","197708.243454","186990.990384","187757.652732","188524.568603","189291.139127","190057.94555","190824.83916","191591.414941","192340.915394","196951.165784","Mapping"
"Mixed","both","tile","35","M_bluff.wav","None","721.248824615","303","200824.651183","193107.844559","193874.456821","194641.052389","195407.486876","196174.410476","196941.279661","197708.243454","186990.990384","187757.652732","188524.568603","189291.139127","190057.94555","190824.83916","191591.414941","192340.915394","197718.437204","Mapping"
"Mixed","both","tile","35","F_tile.wav","None","719.904230908","303","200824.651183","193107.844559","193874.456821","194641.052389","195407.486876","196174.410476","196941.279661","197708.243454","201574.278088","187757.652732","188524.568603","189291.139127","190057.94555","190824.83916","191591.414941","192340.915394","200834.676742","Mapping"
"Mixed","both","tile","35","F_bluff.wav","space","433.938807808","303","200824.651183","193107.844559","193874.456821","194641.052389","195407.486876","196174.410476","196941.279661","197708.243454","201574.278088","202341.010928","188524.568603","189291.139127","190057.94555","190824.83916","191591.414941","192340.915394","201583.871732","Mapping"
"Mixed","both","tile","35","M_tile.wav","None","731.989192311","303","200824.651183","193107.844559","193874.456821","194641.052389","195407.486876","196174.410476","196941.279661","197708.243454","201574.278088","202341.010928","203107.629065","189291.139127","190057.94555","190824.83916","191591.414941","192340.915394","202351.03185","Mapping"
"Mixed","both","tile","35","F_bluff.wav","space","596.417053603","303","200824.651183","193107.844559","193874.456821","194641.052389","195407.486876","196174.410476","196941.279661","197708.243454","201574.278088","202341.010928","203107.629065","203874.293887","190057.94555","190824.83916","191591.414941","192340.915394","203117.366784","Mapping"
"Mixed","both","tile","35","F_cad.wav","None","726.983060129","303","200824.651183","193107.844559","193874.456821","194641.052389","195407.486876","196174.410476","196941.279661","197708.243454","201574.278088","202341.010928","203107.629065","203874.293887","204640.824219","190824.83916","191591.414941","192340.915394","203884.376643","Mapping"
"Mixed","both","tile","35","M_cad.wav","None","725.50583072","303","200824.651183","193107.844559","193874.456821","194641.052389","195407.486876","196174.410476","196941.279661","197708.243454","201574.278088","202341.010928","203107.629065","203874.293887","204640.824219","205407.637135","191591.414941","192340.915394","204650.649743","Mapping"
"Mixed","both","tile","35","M_bluff.wav","None","724.043132272","303","200824.651183","193107.844559","193874.456821","194641.052389","195407.486876","196174.410476","196941.279661","197708.243454","201574.278088","202341.010928","203107.629065","203874.293887","204640.824219","205407.637135","206174.546512","192340.915394","205416.883886","Mapping"
"Mixed","both","tile","35","F_gnash.wav","None","721.454424784","303","200824.651183","193107.844559","193874.456821","194641.052389","195407.486876","196174.410476","196941.279661","197708.243454","201574.278088","202341.010928","203107.629065","203874.293887","204640.824219","205407.637135","206174.546512","206940.985019","206184.30742","Mapping"
"Mixed","both","tile","35","M_park.wav","None","719.747479539","303","200824.651183","207690.934701","193874.456821","194641.052389","195407.486876","196174.410476","196941.279661","197708.243454","201574.278088","202341.010928","203107.629065","203874.293887","204640.824219","205407.637135","206174.546512","206940.985019","206950.891547","Mapping"
"Mixed","both","tile","35","M_tile.wav","None","735.495525878","303","200824.651183","207690.934701","208457.158024","194641.052389","195407.486876","196174.410476","196941.279661","197708.243454","201574.278088","202341.010928","203107.629065","203874.293887","204640.824219","205407.637135","206174.546512","206940.985019","207700.604093","Mapping"
"Mixed","both","tile","35","M_knife.wav","space","511.00331964","303","200824.651183","207690.934701","208457.158024","209224.174685","195407.486876","196174.410476","196941.279661","197708.243454","201574.278088","202341.010928","203107.629065","203874.293887","204640.824219","205407.637135","206174.546512","206940.985019","208466.695399","Mapping"
"Mixed","both","tile","35","M_jolt.wav","None","730.514745228","303","200824.651183","207690.934701","208457.158024","209224.174685","209990.764687","196174.410476","196941.279661","197708.243454","201574.278088","202341.010928","203107.629065","203874.293887","204640.824219","205407.637135","206174.546512","206940.985019","209234.111203","Mapping"
"Mixed","both","tile","35","F_park.wav","None","728.953730315","303","200824.651183","207690.934701","208457.158024","209224.174685","209990.764687","210757.500619","196941.279661","197708.243454","201574.278088","202341.010928","203107.629065","203874.293887","204640.824219","205407.637135","206174.546512","206940.985019","210000.513227","Mapping"
"Mixed","both","tile","35","F_tile.wav","None","727.426414378","303","200824.651183","207690.934701","208457.158024","209224.174685","209990.764687","210757.500619","211524.107317","197708.243454","201574.278088","202341.010928","203107.629065","203874.293887","204640.824219","205407.637135","206174.546512","206940.985019","210766.949261","Mapping"
"Mixed","both","tile","35","F_knife.wav","space","451.641446445","303","200824.651183","207690.934701","208457.158024","209224.174685","209990.764687","210757.500619","211524.107317","212290.983303","201574.278088","202341.010928","203107.629065","203874.293887","204640.824219","205407.637135","206174.546512","206940.985019","211533.982618","Mapping"
"Mixed","both","done","43","M_cling.wav","None","721.883557271","303","215407.748437","207690.934701","208457.158024","209224.174685","209990.764687","210757.500619","211524.107317","212290.983303","201574.278088","202341.010928","203107.629065","203874.293887","204640.824219","205407.637135","206174.546512","206940.985019","212300.80079","Mapping"
"Mixed","both","done","43","F_gnash.wav","None","719.180765096","303","215407.748437","207690.934701","208457.158024","209224.174685","209990.764687","210757.500619","211524.107317","212290.983303","216157.25662","202341.010928","203107.629065","203874.293887","204640.824219","205407.637135","206174.546512","206940.985019","215417.88097","Mapping"
"Mixed","both","done","43","F_jaw.wav","None","734.815963078","303","215407.748437","207690.934701","208457.158024","209224.174685","209990.764687","210757.500619","211524.107317","212290.983303","216157.25662","216924.087468","203107.629065","203874.293887","204640.824219","205407.637135","206174.546512","206940.985019","216167.21818","Mapping"
"Mixed","both","done","43","M_done.wav","None","733.328221366","303","215407.748437","207690.934701","208457.158024","209224.174685","209990.764687","210757.500619","211524.107317","212290.983303","216157.25662","216924.087468","217690.517318","203874.293887","204640.824219","205407.637135","206174.546512","206940.985019","216933.612166","Mapping"
"Mixed","both","done","43","F_jolt.wav","space","469.590497203","303","215407.748437","207690.934701","208457.158024","209224.174685","209990.764687","210757.500619","211524.107317","212290.983303","216157.25662","216924.087468","217690.517318","218457.428551","204640.824219","205407.637135","206174.546512","206940.985019","217699.939062","Mapping"
"Mixed","both","done","43","M_lash.wav","None","728.449468501","303","215407.748437","207690.934701","208457.158024","209224.174685","209990.764687","210757.500619","211524.107317","212290.983303","216157.25662","216924.087468","217690.517318","218457.428551","219224.05689","205407.637135","206174.546512","206940.985019","218467.265515","Mapping"
"Mixed","both","done","43","F_depth.wav","None","727.025726344","303","215407.748437","207690.934701","208457.158024","209224.174685","209990.764687","210757.500619","211524.107317","212290.983303","216157.25662","216924.087468","217690.517318","218457.428551","219224.05689","219990.533425","206174.546512","206940.985019","219233.483581","Mapping"
"Mixed","both","done","43","M_park.wav","None","724.49637996","303","215407.748437","207690.934701","208457.158024","209224.174685","209990.764687","210757.500619","211524.107317","212290.983303","216157.25662","216924.087468","217690.517318","218457.428551","219224.05689","219990.533425","220757.385916","206940.985019","220000.903404","Mapping"
"Mixed","both","done","43","F_done.wav","None","723.19692513","303","215407.748437","207690.934701","208457.158024","209224.174685","209990.764687","210757.500619","211524.107317","212290.983303","216157.25662","216924.087468","217690.517318","218457.428551","219224.05689","219990.533425","220757.385916","221524.284473","220767.070148","Mapping"
"Mixed","both","done","43","M_cling.wav","space","474.771930836","303","215407.748437","222273.734222","208457.158024","209224.174685","209990.764687","210757.500619","211524.107317","212290.983303","216157.25662","216924.087468","217690.517318","218457.428551","219224.05689","219990.533425","220757.385916","221524.284473","221534.622915","Mapping"
"Mixed","both","done","43","M_done.wav","None","735.235202126","303","215407.748437","222273.734222","223040.33288","209224.174685","209990.764687","210757.500619","211524.107317","212290.983303","216157.25662","216924.087468","217690.517318","218457.428551","219224.05689","219990.533425","220757.385916","221524.284473","222283.383517","Mapping"
"Mixed","both","done","43","F_dime.wav","space","551.898895297","303","215407.748437","222273.734222","223040.33288","223807.304712","209990.764687","210757.500619","211524.107317","212290.983303","216157.25662","216924.087468","217690.517318","218457.428551","219224.05689","219990.533425","220757.385916","221524.284473","223049.503885","Mapping"
"Mixed","both","done","43","F_done.wav","None","730.278846342","303","215407.748437","222273.734222","223040.33288","223807.304712","224573.55586","210757.500619","211524.107317","212290.983303","216157.25662","216924.087468","217690.517318","218457.428551","219224.05689","219990.533425","220757.385916","221524.284473","223816.567541","Mapping"
"Mixed","both","done","43","F_priest.wav","None","728.940126486","303","215407.748437","222273.734222","223040.33288","223807.304712","224573.55586","225340.560154","211524.107317","212290.983303","216157.25662","216924.087468","217690.517318","218457.428551","219224.05689","219990.533425","220757.385916","221524.284473","224582.846514","Mapping"
"Mixed","both","done","43","M_lash.wav","space","3.06730717421","303","215407.748437","222273.734222","223040.33288","223807.304712","224573.55586","225340.560154","226107.612988","212290.983303","216157.25662","216924.087468","217690.517318","218457.428551","219224.05689","219990.533425","220757.385916","221524.284473","225350.307148","Mapping"
"Mixed","both","done","43","M_depth.wav","None","722.707194742","303","215407.748437","222273.734222","223040.33288","223807.304712","224573.55586","225340.560154","226107.612988","226874.182585","216157.25662","216924.087468","217690.517318","218457.428551","219224.05689","219990.533425","220757.385916","221524.284473","226117.470975","Mapping"
"Mixed","both","done","44","M_gnash.wav","None","721.056209877","303","229991.033359","222273.734222","223040.33288","223807.304712","224573.55586","225340.560154","226107.612988","226874.182585","216157.25662","216924.087468","217690.517318","218457.428551","219224.05689","219990.533425","220757.385916","221524.284473","226884.091895","Mapping"
"Mixed","both","done","44","M_done.wav","None","719.508179929","303","229991.033359","222273.734222","223040.33288","223807.304712","224573.55586","225340.560154","226107.612988","226874.182585","230740.616052","216924.087468","217690.517318","218457.428551","219224.05689","219990.533425","220757.385916","221524.284473","230001.309657","Mapping"
"Mixed","both","done","44","F_gnash.wav","space","643.063560128","303","229991.033359","222273.734222","223040.33288","223807.304712","224573.55586","225340.560154","226107.612988","226874.182585","230740.616052","231507.199871","217690.517318","218457.428551","219224.05689","219990.533425","220757.385916","221524.284473","230750.188673","Mapping"
"Mixed","both","done","44","F_done.wav","None","732.341959141","303","229991.033359","222273.734222","223040.33288","223807.304712","224573.55586","225340.560154","226107.612988","226874.182585","230740.616052","231507.199871","232273.725255","218457.428551","219224.05689","219990.533425","220757.385916","221524.284473","231516.969744","Mapping"
"Mixed","both","done","44","F_gnash.wav","space","477.895507589","303","229991.033359","222273.734222","223040.33288","223807.304712","224573.55586","225340.560154","226107.612988","226874.182585","230740.616052","231507.199871","232273.725255","233040.14614","219224.05689","219990.533425","220757.385916","221524.284473","232283.344561","Mapping"
"Mixed","both","done","44","M_bluff.wav","None","728.372484446","303","229991.033359","222273.734222","223040.33288","223807.304712","224573.55586","225340.560154","226107.612988","226874.182585","230740.616052","231507.199871","232273.725255","233040.14614","233807.049025","219990.533425","220757.385916","221524.284473","233049.267058","Mapping"
"Mixed","both","done","44","M_done.wav","None","726.199924015","303","229991.033359","222273.734222","223040.33288","223807.304712","224573.55586","225340.560154","226107.612988","226874.182585","230740.616052","231507.199871","232273.725255","233040.14614","233807.049025","234573.399418","220757.385916","221524.284473","233816.37338","Mapping"
"Mixed","both","done","44","F_depth.wav","space","666.351104155","303","229991.033359","222273.734222","223040.33288","223807.304712","224573.55586","225340.560154","226107.612988","226874.182585","230740.616052","231507.199871","232273.725255","233040.14614","233807.049025","234573.399418","235340.574376","221524.284473","234582.825799","Mapping"
"Mixed","both","done","44","F_cad.wav","None","720.157133881","303","229991.033359","222273.734222","223040.33288","223807.304712","224573.55586","225340.560154","226107.612988","226874.182585","230740.616052","231507.199871","232273.725255","233040.14614","233807.049025","234573.399418","235340.574376","236090.672152","235350.737517","Mapping"
"Mixed","both","done","44","M_knife.wav","None","735.104422085","303","229991.033359","236856.969058","223040.33288","223807.304712","224573.55586","225340.560154","226107.612988","226874.182585","230740.616052","231507.199871","232273.725255","233040.14614","233807.049025","234573.399418","235340.574376","236090.672152","236100.68318","Mapping"
"Mixed","both","done","44","F_jaw.wav","None","734.138564672","303","229991.033359","236856.969058","237623.674072","223807.304712","224573.55586","225340.560154","226107.612988","226874.182585","230740.616052","231507.199871","232273.725255","233040.14614","233807.049025","234573.399418","235340.574376","236090.672152","236866.647725","Mapping"
"Mixed","both","done","44","M_romp.wav","None","732.906200457","303","229991.033359","236856.969058","237623.674072","238390.246451","224573.55586","225340.560154","226107.612988","226874.182585","230740.616052","231507.199871","232273.725255","233040.14614","233807.049025","234573.399418","235340.574376","236090.672152","237633.269571","Mapping"
"Mixed","both","done","44","M_cad.wav","None","731.063527986","303","229991.033359","236856.969058","237623.674072","238390.246451","239157.049473","225340.560154","226107.612988","226874.182585","230740.616052","231507.199871","232273.725255","233040.14614","233807.049025","234573.399418","235340.574376","236090.672152","238400.104748","Mapping"
"Mixed","both","done","44","M_dime.wav","None","729.215908796","303","229991.033359","236856.969058","237623.674072","238390.246451","239157.049473","239923.624635","226107.612988","226874.182585","230740.616052","231507.199871","232273.725255","233040.14614","233807.049025","234573.399418","235340.574376","236090.672152","239166.843153","Mapping"
"Mixed","both","done","44","F_done.wav","None","727.6245947","303","229991.033359","236856.969058","237623.674072","238390.246451","239157.049473","239923.624635","240690.197323","226874.182585","230740.616052","231507.199871","232273.725255","233040.14614","233807.049025","234573.399418","235340.574376","236090.672152","239933.352461","Mapping"
"Mixed","both","done","44","F_lash.wav","space","556.952640414","303","229991.033359","236856.969058","237623.674072","238390.246451","239157.049473","239923.624635","240690.197323","241457.378774","230740.616052","231507.199871","232273.725255","233040.14614","233807.049025","234573.399418","235340.574376","236090.672152","240700.117455","Mapping"
"Mixed","both","done","48","M_lash.wav","None","721.565418411","303","244573.829169","236856.969058","237623.674072","238390.246451","239157.049473","239923.624635","240690.197323","241457.378774","230740.616052","231507.199871","232273.725255","233040.14614","233807.049025","234573.399418","235340.574376","236090.672152","241467.688463","Mapping"
"Mixed","both","done","48","M_cad.wav","None","720.002547372","303","244573.829169","236856.969058","237623.674072","238390.246451","239157.049473","239923.624635","240690.197323","241457.378774","245340.272004","231507.199871","232273.725255","233040.14614","233807.049025","234573.399418","235340.574376","236090.672152","244583.580492","Mapping"
"Mixed","both","done","48","F_done.wav","None","718.657335266","303","244573.829169","236856.969058","237623.674072","238390.246451","239157.049473","239923.624635","240690.197323","241457.378774","245340.272004","246089.993826","232273.725255","233040.14614","233807.049025","234573.399418","235340.574376","236090.672152","245350.355379","Mapping"
"Mixed","both","done","48","F_cad.wav","space","453.16443406","303","244573.829169","236856.969058","237623.674072","238390.246451","239157.049473","239923.624635","240690.197323","241457.378774","245340.272004","246089.993826","246856.905058","233040.14614","233807.049025","234573.399418","235340.574376","236090.672152","246099.810075","Mapping"
"Mixed","both","done","48","M_lash.wav","None","730.812788475","303","244573.829169","236856.969058","237623.674072","238390.246451","239157.049473","239923.624635","240690.197323","241457.378774","245340.272004","246089.993826","246856.905058","247623.422714","233807.049025","234573.399418","235340.574376","236090.672152","246866.612788","Mapping"
"Mixed","both","done","48","M_knife.wav","None","729.340505786","303","244573.829169","236856.969058","237623.674072","238390.246451","239157.049473","239923.624635","240690.197323","241457.378774","245340.272004","246089.993826","246856.905058","247623.422714","248390.040851","234573.399418","235340.574376","236090.672152","247633.043566","Mapping"
"Mixed","both","done","48","F_priest.wav","None","727.637270931","303","244573.829169","236856.969058","237623.674072","238390.246451","239157.049473","239923.624635","240690.197323","241457.378774","245340.272004","246089.993826","246856.905058","247623.422714","248390.040851","249156.887776","235340.574376","236090.672152","248399.792792","Mapping"
"Mixed","both","done","48","M_done.wav","None","726.261140779","303","244573.829169","236856.969058","237623.674072","238390.246451","239157.049473","239923.624635","240690.197323","241457.378774","245340.272004","246089.993826","246856.905058","247623.422714","248390.040851","249156.887776","249923.391828","236090.672152","249166.190179","Mapping"
"Mixed","both","done","48","F_greet.wav","space","715.803048108","303","244573.829169","236856.969058","237623.674072","238390.246451","239157.049473","239923.624635","240690.197323","241457.378774","245340.272004","246089.993826","246856.905058","247623.422714","248390.040851","249156.887776","249923.391828","250690.353456","249933.094301","Mapping"
"Mixed","both","done","48","F_jaw.wav","None","720.568334684","303","244573.829169","251457.162971","237623.674072","238390.246451","239157.049473","239923.624635","240690.197323","241457.378774","245340.272004","246089.993826","246856.905058","247623.422714","248390.040851","249156.887776","249923.391828","250690.353456","250700.300176","Mapping"
"Mixed","both","done","48","M_greet.wav","None","718.372586183","303","244573.829169","251457.162971","252206.636835","238390.246451","239157.049473","239923.624635","240690.197323","241457.378774","245340.272004","246089.993826","246856.905058","247623.422714","248390.040851","249156.887776","249923.391828","250690.353456","251467.493375","Mapping"
"Mixed","both","done","48","F_done.wav","None","734.681472648","303","244573.829169","251457.162971","252206.636835","252973.382042","239157.049473","239923.624635","240690.197323","241457.378774","245340.272004","246089.993826","246856.905058","247623.422714","248390.040851","249156.887776","249923.391828","250690.353456","252216.248103","Mapping"
"Mixed","both","done","48","F_reek.wav","space","601.529232692","303","244573.829169","251457.162971","252206.636835","252973.382042","253739.963697","239923.624635","240690.197323","241457.378774","245340.272004","246089.993826","246856.905058","247623.422714","248390.040851","249156.887776","249923.391828","250690.353456","252983.377921","Mapping"
"Mixed","both","done","48","F_depth.wav","None","730.006155558","303","244573.829169","251457.162971","252206.636835","252973.382042","253739.963697","254506.780941","240690.197323","241457.378774","245340.272004","246089.993826","246856.905058","247623.422714","248390.040851","249156.887776","249923.391828","250690.353456","253749.444802","Mapping"
"Mixed","both","done","48","M_done.wav","None","727.952626999","303","244573.829169","251457.162971","252206.636835","252973.382042","253739.963697","254506.780941","255273.3459","241457.378774","245340.272004","246089.993826","246856.905058","247623.422714","248390.040851","249156.887776","249923.391828","250690.353456","254516.558235","Mapping"
"Mixed","both","done","48","M_park.wav","space","717.879145872","303","244573.829169","251457.162971","252206.636835","252973.382042","253739.963697","254506.780941","255273.3459","256040.284959","245340.272004","246089.993826","246856.905058","247623.422714","248390.040851","249156.887776","249923.391828","250690.353456","255282.970153","Mapping"
"Mixed","both","done","41","M_dime.wav","None","723.041720223","303","259156.968779","251457.162971","252206.636835","252973.382042","253739.963697","254506.780941","255273.3459","256040.284959","245340.272004","246089.993826","246856.905058","247623.422714","248390.040851","249156.887776","249923.391828","250690.353456","256050.198597","Mapping"
"Mixed","both","done","41","F_gnash.wav","None","718.797390349","303","259156.968779","251457.162971","252206.636835","252973.382042","253739.963697","254506.780941","255273.3459","256040.284959","259906.478508","246089.993826","246856.905058","247623.422714","248390.040851","249156.887776","249923.391828","250690.353456","259167.552705","Mapping"
"Mixed","both","done","41","F_done.wav","None","735.065774992","303","259156.968779","251457.162971","252206.636835","252973.382042","253739.963697","254506.780941","255273.3459","256040.284959","259906.478508","260673.206401","246856.905058","247623.422714","248390.040851","249156.887776","249923.391828","250690.353456","259916.2153","Mapping"
"Mixed","both","done","41","F_knife.wav","space","525.962665211","303","259156.968779","251457.162971","252206.636835","252973.382042","253739.963697","254506.780941","255273.3459","256040.284959","259906.478508","260673.206401","261439.779089","247623.422714","248390.040851","249156.887776","249923.391828","250690.353456","260682.790461","Mapping"
"Mixed","both","done","41","M_lash.wav","None","730.544116814","303","259156.968779","251457.162971","252206.636835","252973.382042","253739.963697","254506.780941","255273.3459","256040.284959","259906.478508","260673.206401","261439.779089","262206.674554","248390.040851","249156.887776","249923.391828","250690.353456","261449.348927","Mapping"
"Mixed","both","done","41","M_done.wav","None","728.58426813","303","259156.968779","251457.162971","252206.636835","252973.382042","253739.963697","254506.780941","255273.3459","256040.284959","259906.478508","260673.206401","261439.779089","262206.674554","262973.172423","249156.887776","249923.391828","250690.353456","262216.395269","Mapping"
"Mixed","both","done","41","M_jolt.wav","space","553.342116065","303","259156.968779","251457.162971","252206.636835","252973.382042","253739.963697","254506.780941","255273.3459","256040.284959","259906.478508","260673.206401","261439.779089","262206.674554","262973.172423","263740.091385","249923.391828","250690.353456","262983.3671","Mapping"
"Mixed","both","done","41","M_jolt.wav","None","723.302043974","303","259156.968779","251457.162971","252206.636835","252973.382042","253739.963697","254506.780941","255273.3459","256040.284959","259906.478508","260673.206401","261439.779089","262206.674554","262973.172423","263740.091385","264506.932745","250690.353456","263750.316361","Mapping"
"Mixed","both","done","41","M_priest.wav","None","721.223781817","303","259156.968779","251457.162971","252206.636835","252973.382042","253739.963697","254506.780941","255273.3459","256040.284959","259906.478508","260673.206401","261439.779089","262206.674554","262973.172423","263740.091385","264506.932745","265272.997771","264517.213063","Mapping"
"Mixed","both","done","41","M_gnash.wav","None","721.055591479","303","259156.968779","266023.026911","252206.636835","252973.382042","253739.963697","254506.780941","255273.3459","256040.284959","259906.478508","260673.206401","261439.779089","262206.674554","262973.172423","263740.091385","264506.932745","265272.997771","265282.545658","Mapping"
"Mixed","both","done","41","F_gnash.wav","None","736.152209807","303","259156.968779","266023.026911","266789.593725","252973.382042","253739.963697","254506.780941","255273.3459","256040.284959","259906.478508","260673.206401","261439.779089","262206.674554","262973.172423","263740.091385","264506.932745","265272.997771","266032.533677","Mapping"
"Mixed","both","done","41","M_done.wav","None","735.218197107","303","259156.968779","266023.026911","266789.593725","267556.53773","253739.963697","254506.780941","255273.3459","256040.284959","259906.478508","260673.206401","261439.779089","262206.674554","262973.172423","263740.091385","264506.932745","265272.997771","266798.704132","Mapping"
"Mixed","both","done","41","F_gnash.wav","space","530.260790605","303","259156.968779","266023.026911","266789.593725","267556.53773","268323.138553","254506.780941","255273.3459","256040.284959","259906.478508","260673.206401","261439.779089","262206.674554","262973.172423","263740.091385","264506.932745","265272.997771","267566.333574","Mapping"
"Mixed","both","done","41","F_done.wav","None","729.528792202","303","259156.968779","266023.026911","266789.593725","267556.53773","268323.138553","269089.62962","255273.3459","256040.284959","259906.478508","260673.206401","261439.779089","262206.674554","262973.172423","263740.091385","264506.932745","265272.997771","268333.005816","Mapping"
"Mixed","both","done","41","F_cad.wav","space","629.225276876","303","259156.968779","266023.026911","266789.593725","267556.53773","268323.138553","269089.62962","269856.480873","256040.284959","259906.478508","260673.206401","261439.779089","262206.674554","262973.172423","263740.091385","264506.932745","265272.997771","269099.321581","Mapping"
"Mixed","both","done","41","F_lash.wav","None","725.214589387","303","259156.968779","266023.026911","266789.593725","267556.53773","268323.138553","269089.62962","269856.480873","270623.408801","259906.478508","260673.206401","261439.779089","262206.674554","262973.172423","263740.091385","264506.932745","265272.997771","269866.042673","Mapping"
"Mixed","both","cave","22","M_gnash.wav","None","722.83395566","303","273739.957822","266023.026911","266789.593725","267556.53773","268323.138553","269089.62962","269856.480873","270623.408801","259906.478508","260673.206401","261439.779089","262206.674554","262973.172423","263740.091385","264506.932745","265272.997771","270633.573489","Mapping"
"Mixed","both","cave","22","M_bluff.wav","None","720.335527323","303","273739.957822","266023.026911","266789.593725","267556.53773","268323.138553","269089.62962","269856.480873","270623.408801","274489.975523","260673.206401","261439.779089","262206.674554","262973.172423","263740.091385","264506.932745","265272.997771","273749.626596","Mapping"
"Mixed","both","cave","22","M_cave.wav","None","734.607889783","303","273739.957822","266023.026911","266789.593725","267556.53773","268323.138553","269089.62962","269856.480873","270623.408801","274489.975523","275256.220797","261439.779089","262206.674554","262973.172423","263740.091385","264506.932745","265272.997771","274500.568724","Mapping"
"Mixed","both","cave","22","F_lash.wav","space","446.552146692","303","273739.957822","266023.026911","266789.593725","267556.53773","268323.138553","269089.62962","269856.480873","270623.408801","274489.975523","275256.220797","276022.988264","262206.674554","262973.172423","263740.091385","264506.932745","265272.997771","275265.905647","Mapping"
"Mixed","both","cave","22","F_priest.wav","None","730.947278906","303","273739.957822","266023.026911","266789.593725","267556.53773","268323.138553","269089.62962","269856.480873","270623.408801","274489.975523","275256.220797","276022.988264","276789.505919","262973.172423","263740.091385","264506.932745","265272.997771","276032.800803","Mapping"
"Mixed","both","cave","22","M_park.wav","None","729.943702929","303","273739.957822","266023.026911","266789.593725","267556.53773","268323.138553","269089.62962","269856.480873","270623.408801","274489.975523","275256.220797","276022.988264","276789.505919","277556.363356","263740.091385","264506.932745","265272.997771","276798.917461","Mapping"
"Mixed","both","cave","22","M_knife.wav","None","727.845344227","303","273739.957822","266023.026911","266789.593725","267556.53773","268323.138553","269089.62962","269856.480873","270623.408801","274489.975523","275256.220797","276022.988264","276789.505919","277556.363356","278322.897398","264506.932745","265272.997771","277566.13663","Mapping"
"Mixed","both","cave","22","M_jolt.wav","None","726.628747769","303","273739.957822","266023.026911","266789.593725","267556.53773","268323.138553","269089.62962","269856.480873","270623.408801","274489.975523","275256.220797","276022.988264","276789.505919","277556.363356","278322.897398","279089.451845","265272.997771","278332.483313","Mapping"
"Mixed","both","cave","22","F_cave.wav","None","725.549424067","303","273739.957822","266023.026911","266789.593725","267556.53773","268323.138553","269089.62962","269856.480873","270623.408801","274489.975523","275256.220797","276022.988264","276789.505919","277556.363356","278322.897398","279089.451845","279856.509008","279098.818556","Mapping"
"Mixed","both","cave","22","F_park.wav","space","582.084402442","303","273739.957822","280622.928037","266789.593725","267556.53773","268323.138553","269089.62962","269856.480873","270623.408801","274489.975523","275256.220797","276022.988264","276789.505919","277556.363356","278322.897398","279089.451845","279856.509008","279866.251983","Mapping"
"Mixed","both","cave","22","F_gnash.wav","None","720.499698073","303","273739.957822","280622.928037","281389.777435","267556.53773","268323.138553","269089.62962","269856.480873","270623.408801","274489.975523","275256.220797","276022.988264","276789.505919","277556.363356","278322.897398","279089.451845","279856.509008","280632.650916","Mapping"
"Mixed","both","cave","22","F_cave.wav","None","719.186330214","303","273739.957822","280622.928037","281389.777435","282139.250991","268323.138553","269089.62962","269856.480873","270623.408801","274489.975523","275256.220797","276022.988264","276789.505919","277556.363356","278322.897398","279089.451845","279856.509008","281399.478981","Mapping"
"Mixed","both","cave","22","F_depth.wav","space","451.92712266","303","273739.957822","280622.928037","281389.777435","282139.250991","282906.256212","269089.62962","269856.480873","270623.408801","274489.975523","275256.220797","276022.988264","276789.505919","277556.363356","278322.897398","279089.451845","279856.509008","282148.49496","Mapping"
"Mixed","both","cave","22","M_cave.wav","None","736.358737573","303","273739.957822","280622.928037","281389.777435","282139.250991","282906.256212","283672.844978","269856.480873","270623.408801","274489.975523","275256.220797","276022.988264","276789.505919","277556.363356","278322.897398","279089.451845","279856.509008","282910.942351","Mapping"
"Mixed","both","cave","22","M_romp.wav","space","574.095057789","303","273739.957822","280622.928037","281389.777435","282139.250991","282906.256212","283672.844978","284439.309765","270623.408801","274489.975523","275256.220797","276022.988264","276789.505919","277556.363356","278322.897398","279089.451845","279856.509008","283682.219109","Mapping"
"Mixed","both","cave","22","F_dime.wav","None","727.217413485","303","273739.957822","280622.928037","281389.777435","282139.250991","282906.256212","283672.844978","284439.309765","285206.178332","274489.975523","275256.220797","276022.988264","276789.505919","277556.363356","278322.897398","279089.451845","279856.509008","284448.775411","Mapping"
