"Condition","Talker","Target","Trial","current_stimulus","response_response","response_time_response","subject_nr","time_Audio1","time_Audio10","time_Audio11","time_Audio12","time_Audio13","time_Audio14","time_Audio15","time_Audio16","time_Audio2","time_Audio3","time_Audio4","time_Audio5","time_Audio6","time_Audio7","time_Audio8","time_Audio9","time_response","title"
"Blocked","Female","cave","7","F_greet.wav","NA","NA","438","48699.0909588","NA","NA","NA","NA","NA","NA","NA","NA","NA","NA","NA","NA","NA","NA","NA","NA","Mapping"
"Blocked","Female","cave","7","F_cave.wav","None","726.202645215","438","48699.0909588","NA","NA","NA","NA","NA","NA","NA","49465.9372463","NA","NA","NA","NA","NA","NA","NA","48709.6990435","Mapping"
"Blocked","Female","cave","7","F_greet.wav","space","713.15294331","438","48699.0909588","NA","NA","NA","NA","NA","NA","NA","49465.9372463","50233.1780506","NA","NA","NA","NA","NA","NA","49469.0173617","Mapping"
"Blocked","Female","cave","7","F_cad.wav","None","740.564498537","438","48699.0909588","NA","NA","NA","NA","NA","NA","NA","49465.9372463","50233.1780506","51017.3398091","NA","NA","NA","NA","NA","50236.1286635","Mapping"
"Blocked","Female","cave","7","F_jaw.wav","None","726.892824245","438","48699.0909588","NA","NA","NA","NA","NA","NA","NA","49465.9372463","50233.1780506","51017.3398091","51784.6190735","NA","NA","NA","NA","51020.4601875","Mapping"
"Blocked","Female","cave","7","F_cave.wav","None","730.487644381","438","48699.0909588","NA","NA","NA","NA","NA","NA","NA","49465.9372463","50233.1780506","51017.3398091","51784.6190735","52551.4371168","NA","NA","NA","51787.4801465","Mapping"
"Blocked","Female","cave","7","F_greet.wav","space","569.538015734","438","48699.0909588","NA","NA","NA","NA","NA","NA","NA","49465.9372463","50233.1780506","51017.3398091","51784.6190735","52551.4371168","53319.0949731","NA","NA","52554.5526877","Mapping"
"Blocked","Female","cave","7","F_gnash.wav","None","736.86661727","438","48699.0909588","NA","NA","NA","NA","NA","NA","NA","49465.9372463","50233.1780506","51017.3398091","51784.6190735","52551.4371168","53319.0949731","54086.4220122","NA","53322.2889666","Mapping"
"Blocked","Female","cave","7","F_jolt.wav","None","739.492722922","438","48699.0909588","NA","NA","NA","NA","NA","NA","NA","49465.9372463","50233.1780506","51017.3398091","51784.6190735","52551.4371168","53319.0949731","54086.4220122","54870.2295168","54089.7512171","Mapping"
"Blocked","Female","cave","7","F_greet.wav","None","726.304504464","438","48699.0909588","55637.2362552","NA","NA","NA","NA","NA","NA","49465.9372463","50233.1780506","51017.3398091","51784.6190735","52551.4371168","53319.0949731","54086.4220122","54870.2295168","54873.4944212","Mapping"
"Blocked","Female","cave","7","F_cling.wav","None","730.136695711","438","48699.0909588","55637.2362552","56404.3325335","NA","NA","NA","NA","NA","49465.9372463","50233.1780506","51017.3398091","51784.6190735","52551.4371168","53319.0949731","54086.4220122","54870.2295168","55640.1895724","Mapping"
"Blocked","Female","cave","7","F_greet.wav","None","734.301506975","438","48699.0909588","55637.2362552","56404.3325335","57171.5093377","NA","NA","NA","NA","49465.9372463","50233.1780506","51017.3398091","51784.6190735","52551.4371168","53319.0949731","54086.4220122","54870.2295168","56407.2798413","Mapping"
"Blocked","Female","cave","7","F_cave.wav","None","737.794768342","438","48699.0909588","55637.2362552","56404.3325335","57171.5093377","57938.6867429","NA","NA","NA","49465.9372463","50233.1780506","51017.3398091","51784.6190735","52551.4371168","53319.0949731","54086.4220122","54870.2295168","57174.3223355","Mapping"
"Blocked","Female","cave","7","F_lash.wav","space","454.671733787","438","48699.0909588","55637.2362552","56404.3325335","57171.5093377","57938.6867429","58723.0086517","NA","NA","49465.9372463","50233.1780506","51017.3398091","51784.6190735","52551.4371168","53319.0949731","54086.4220122","54870.2295168","57941.5369989","Mapping"
"Blocked","Female","cave","7","F_cave.wav","None","727.214026407","438","48699.0909588","55637.2362552","56404.3325335","57171.5093377","57938.6867429","58723.0086517","59489.7587889","NA","49465.9372463","50233.1780506","51017.3398091","51784.6190735","52551.4371168","53319.0949731","54086.4220122","54870.2295168","58725.966476","Mapping"
"Blocked","Female","cave","7","F_priest.wav","space","647.361484946","438","48699.0909588","55637.2362552","56404.3325335","57171.5093377","57938.6867429","58723.0086517","59489.7587889","60257.0527763","49465.9372463","50233.1780506","51017.3398091","51784.6190735","52551.4371168","53319.0949731","54086.4220122","54870.2295168","59492.8404067","Mapping"
"Blocked","Female","done","20","F_reek.wav","None","734.932493458","438","63426.5345441","55637.2362552","56404.3325335","57171.5093377","57938.6867429","58723.0086517","59489.7587889","60257.0527763","49465.9372463","50233.1780506","51017.3398091","51784.6190735","52551.4371168","53319.0949731","54086.4220122","54870.2295168","60259.7951638","Mapping"
"Blocked","Female","done","20","F_done.wav","None","734.060830702","438","63426.5345441","55637.2362552","56404.3325335","57171.5093377","57938.6867429","58723.0086517","59489.7587889","60257.0527763","64193.3282494","50233.1780506","51017.3398091","51784.6190735","52551.4371168","53319.0949731","54086.4220122","54870.2295168","63429.8120682","Mapping"
"Blocked","Female","done","20","F_gnash.wav","space","361.171555611","438","63426.5345441","55637.2362552","56404.3325335","57171.5093377","57938.6867429","58723.0086517","59489.7587889","60257.0527763","64193.3282494","64960.9671761","51017.3398091","51784.6190735","52551.4371168","53319.0949731","54086.4220122","54870.2295168","64196.0087401","Mapping"
"Blocked","Female","done","20","F_cling.wav","None","740.625794366","438","63426.5345441","55637.2362552","56404.3325335","57171.5093377","57938.6867429","58723.0086517","59489.7587889","60257.0527763","64193.3282494","64960.9671761","65745.3963527","51784.6190735","52551.4371168","53319.0949731","54086.4220122","54870.2295168","64964.1957236","Mapping"
"Blocked","Female","done","20","F_cling.wav","None","726.571321604","438","63426.5345441","55637.2362552","56404.3325335","57171.5093377","57938.6867429","58723.0086517","59489.7587889","60257.0527763","64193.3282494","64960.9671761","65745.3963527","66511.6513157","52551.4371168","53319.0949731","54086.4220122","54870.2295168","65749.0254264","Mapping"
"Blocked","Female","done","20","F_romp.wav","None","731.72738259","438","63426.5345441","55637.2362552","56404.3325335","57171.5093377","57938.6867429","58723.0086517","59489.7587889","60257.0527763","64193.3282494","64960.9671761","65745.3963527","66511.6513157","67278.8536598","53319.0949731","54086.4220122","54870.2295168","66514.2515809","Mapping"
"Blocked","Female","done","20","F_priest.wav","None","735.311986758","438","63426.5345441","55637.2362552","56404.3325335","57171.5093377","57938.6867429","58723.0086517","59489.7587889","60257.0527763","64193.3282494","64960.9671761","65745.3963527","66511.6513157","67278.8536598","68046.5668025","54086.4220122","54870.2295168","67281.503803","Mapping"
"Blocked","Female","done","20","F_done.wav","None","736.44025069","438","63426.5345441","55637.2362552","56404.3325335","57171.5093377","57938.6867429","58723.0086517","59489.7587889","60257.0527763","64193.3282494","64960.9671761","65745.3963527","66511.6513157","67278.8536598","68046.5668025","68813.3031181","54870.2295168","68050.1297729","Mapping"
"Blocked","Female","done","20","F_romp.wav","space","412.873085781","438","63426.5345441","55637.2362552","56404.3325335","57171.5093377","57938.6867429","58723.0086517","59489.7587889","60257.0527763","64193.3282494","64960.9671761","65745.3963527","66511.6513157","67278.8536598","68046.5668025","68813.3031181","69598.2974783","68816.3015058","Mapping"
"Blocked","Female","done","20","F_done.wav","None","725.518776053","438","63426.5345441","70365.1107141","56404.3325335","57171.5093377","57938.6867429","58723.0086517","59489.7587889","60257.0527763","64193.3282494","64960.9671761","65745.3963527","66511.6513157","67278.8536598","68046.5668025","68813.3031181","69598.2974783","69601.6843733","Mapping"
"Blocked","Female","done","20","F_cling.wav","None","729.083549224","438","63426.5345441","70365.1107141","71131.540851","57171.5093377","57938.6867429","58723.0086517","59489.7587889","60257.0527763","64193.3282494","64960.9671761","65745.3963527","66511.6513157","67278.8536598","68046.5668025","68813.3031181","69598.2974783","70368.7190554","Mapping"
"Blocked","Female","done","20","F_romp.wav","space","145.049971125","438","63426.5345441","70365.1107141","71131.540851","71898.8949323","57938.6867429","58723.0086517","59489.7587889","60257.0527763","64193.3282494","64960.9671761","65745.3963527","66511.6513157","67278.8536598","68046.5668025","68813.3031181","69598.2974783","71134.1047594","Mapping"
"Blocked","Female","done","20","F_park.wav","None","737.448026244","438","63426.5345441","70365.1107141","71131.540851","71898.8949323","72666.0744408","58723.0086517","59489.7587889","60257.0527763","64193.3282494","64960.9671761","65745.3963527","66511.6513157","67278.8536598","68046.5668025","68813.3031181","69598.2974783","71901.6733762","Mapping"
"Blocked","Female","done","20","F_dime.wav","None","740.757700591","438","63426.5345441","70365.1107141","71131.540851","71898.8949323","72666.0744408","73450.2241805","59489.7587889","60257.0527763","64193.3282494","64960.9671761","65745.3963527","66511.6513157","67278.8536598","68046.5668025","68813.3031181","69598.2974783","72669.2161525","Mapping"
"Blocked","Female","done","20","F_done.wav","space","397.57376683","438","63426.5345441","70365.1107141","71131.540851","71898.8949323","72666.0744408","73450.2241805","74217.1164398","60257.0527763","64193.3282494","64960.9671761","65745.3963527","66511.6513157","67278.8536598","68046.5668025","68813.3031181","69598.2974783","73453.601761","Mapping"
"Blocked","Female","done","20","F_lash.wav","space","602.964374502","438","63426.5345441","70365.1107141","71131.540851","71898.8949323","72666.0744408","73450.2241805","74217.1164398","74984.511986","64193.3282494","64960.9671761","65745.3963527","66511.6513157","67278.8536598","68046.5668025","68813.3031181","69598.2974783","74220.1595975","Mapping"
"Blocked","Female","tile","15","F_cad.wav","None","734.401863876","438","78120.5000898","70365.1107141","71131.540851","71898.8949323","72666.0744408","73450.2241805","74217.1164398","74984.511986","64193.3282494","64960.9671761","65745.3963527","66511.6513157","67278.8536598","68046.5668025","68813.3031181","69598.2974783","74987.7089842","Mapping"
"Blocked","Female","tile","15","F_cling.wav","None","732.698500833","438","78120.5000898","70365.1107141","71131.540851","71898.8949323","72666.0744408","73450.2241805","74217.1164398","74984.511986","78887.2321988","64960.9671761","65745.3963527","66511.6513157","67278.8536598","68046.5668025","68813.3031181","69598.2974783","78123.9230413","Mapping"
"Blocked","Female","tile","15","F_reek.wav","None","736.993715978","438","78120.5000898","70365.1107141","71131.540851","71898.8949323","72666.0744408","73450.2241805","74217.1164398","74984.511986","78887.2321988","79654.4766087","65745.3963527","66511.6513157","67278.8536598","68046.5668025","68813.3031181","69598.2974783","78889.9117881","Mapping"
"Blocked","Female","tile","15","F_tile.wav","None","740.697907109","438","78120.5000898","70365.1107141","71131.540851","71898.8949323","72666.0744408","73450.2241805","74217.1164398","74984.511986","78887.2321988","79654.4766087","80438.75525","66511.6513157","67278.8536598","68046.5668025","68813.3031181","69598.2974783","79657.2232028","Mapping"
"Blocked","Female","tile","15","F_park.wav","space","535.088857923","438","78120.5000898","70365.1107141","71131.540851","71898.8949323","72666.0744408","73450.2241805","74217.1164398","74984.511986","78887.2321988","79654.4766087","80438.75525","81206.4843176","67278.8536598","68046.5668025","68813.3031181","69598.2974783","80442.1012811","Mapping"
"Blocked","Female","tile","15","F_park.wav","space","23.1247532392","438","78120.5000898","70365.1107141","71131.540851","71898.8949323","72666.0744408","73450.2241805","74217.1164398","74984.511986","78887.2321988","79654.4766087","80438.75525","81206.4843176","81972.8934216","68046.5668025","68813.3031181","69598.2974783","81210.1115885","Mapping"
"Blocked","Female","tile","15","F_tile.wav","None","734.673789","438","78120.5000898","70365.1107141","71131.540851","71898.8949323","72666.0744408","73450.2241805","74217.1164398","74984.511986","78887.2321988","79654.4766087","80438.75525","81206.4843176","81972.8934216","82740.3400476","68813.3031181","69598.2974783","81975.7541941","Mapping"
"Blocked","Female","tile","15","F_bluff.wav","space","424.850411131","438","78120.5000898","70365.1107141","71131.540851","71898.8949323","72666.0744408","73450.2241805","74217.1164398","74984.511986","78887.2321988","79654.4766087","80438.75525","81206.4843176","81972.8934216","82740.3400476","83507.7620352","69598.2974783","82743.3651771","Mapping"
"Blocked","Female","tile","15","F_bluff.wav","None","740.149549805","438","78120.5000898","70365.1107141","71131.540851","71898.8949323","72666.0744408","73450.2241805","74217.1164398","74984.511986","78887.2321988","79654.4766087","80438.75525","81206.4843176","81972.8934216","82740.3400476","83507.7620352","84291.9490331","83511.3484422","Mapping"
"Blocked","Female","tile","15","F_tile.wav","None","726.302401174","438","78120.5000898","85058.4660058","71131.540851","71898.8949323","72666.0744408","73450.2241805","74217.1164398","74984.511986","78887.2321988","79654.4766087","80438.75525","81206.4843176","81972.8934216","82740.3400476","83507.7620352","84291.9490331","84295.8872902","Mapping"
"Blocked","Female","tile","15","F_reek.wav","space","424.645190291","438","78120.5000898","85058.4660058","85825.7581904","71898.8949323","72666.0744408","73450.2241805","74217.1164398","74984.511986","78887.2321988","79654.4766087","80438.75525","81206.4843176","81972.8934216","82740.3400476","83507.7620352","84291.9490331","85061.5482245","Mapping"
"Blocked","Female","tile","15","F_jaw.wav","None","735.186089933","438","78120.5000898","85058.4660058","85825.7581904","86593.2417742","72666.0744408","73450.2241805","74217.1164398","74984.511986","78887.2321988","79654.4766087","80438.75525","81206.4843176","81972.8934216","82740.3400476","83507.7620352","84291.9490331","85828.6270756","Mapping"
"Blocked","Female","tile","15","F_lash.wav","None","738.394806442","438","78120.5000898","85058.4660058","85825.7581904","86593.2417742","87360.0321743","73450.2241805","74217.1164398","74984.511986","78887.2321988","79654.4766087","80438.75525","81206.4843176","81972.8934216","82740.3400476","83507.7620352","84291.9490331","86596.3218896","Mapping"
"Blocked","Female","tile","15","F_tile.wav","None","742.669890104","438","78120.5000898","85058.4660058","85825.7581904","86593.2417742","87360.0321743","88144.3063085","74217.1164398","74984.511986","78887.2321988","79654.4766087","80438.75525","81206.4843176","81972.8934216","82740.3400476","83507.7620352","84291.9490331","87362.9133788","Mapping"
"Blocked","Female","tile","15","F_jaw.wav","space","454.887170599","438","78120.5000898","85058.4660058","85825.7581904","86593.2417742","87360.0321743","88144.3063085","88911.629141","74984.511986","78887.2321988","79654.4766087","80438.75525","81206.4843176","81972.8934216","82740.3400476","83507.7620352","84291.9490331","88147.3095037","Mapping"
"Blocked","Female","tile","15","F_cling.wav","None","731.620415358","438","78120.5000898","85058.4660058","85825.7581904","86593.2417742","87360.0321743","88144.3063085","88911.629141","89678.4333627","78887.2321988","79654.4766087","80438.75525","81206.4843176","81972.8934216","82740.3400476","83507.7620352","84291.9490331","88914.8501768","Mapping"
"Blocked","Female","cave","10","F_reek.wav","None","736.053846584","438","92814.3295228","85058.4660058","85825.7581904","86593.2417742","87360.0321743","88144.3063085","88911.629141","89678.4333627","78887.2321988","79654.4766087","80438.75525","81206.4843176","81972.8934216","82740.3400476","83507.7620352","84291.9490331","89681.1616281","Mapping"
"Blocked","Female","cave","10","F_cave.wav","None","733.326783091","438","92814.3295228","85058.4660058","85825.7581904","86593.2417742","87360.0321743","88144.3063085","88911.629141","89678.4333627","93581.3152282","79654.4766087","80438.75525","81206.4843176","81972.8934216","82740.3400476","83507.7620352","84291.9490331","92817.655122","Mapping"
"Blocked","Female","cave","10","F_greet.wav","space","418.14873373","438","92814.3295228","85058.4660058","85825.7581904","86593.2417742","87360.0321743","88144.3063085","88911.629141","89678.4333627","93581.3152282","94348.5695536","80438.75525","81206.4843176","81972.8934216","82740.3400476","83507.7620352","84291.9490331","93584.099381","Mapping"
"Blocked","Female","cave","10","F_priest.wav","None","739.793793615","438","92814.3295228","85058.4660058","85825.7581904","86593.2417742","87360.0321743","88144.3063085","88911.629141","89678.4333627","93581.3152282","94348.5695536","95133.2604394","81206.4843176","81972.8934216","82740.3400476","83507.7620352","84291.9490331","94351.8735191","Mapping"
"Blocked","Female","cave","10","F_knife.wav","None","725.174437717","438","92814.3295228","85058.4660058","85825.7581904","86593.2417742","87360.0321743","88144.3063085","88911.629141","89678.4333627","93581.3152282","94348.5695536","95133.2604394","95899.98083","81972.8934216","82740.3400476","83507.7620352","84291.9490331","95136.7939637","Mapping"
"Blocked","Female","cave","10","F_romp.wav","None","730.181165232","438","92814.3295228","85058.4660058","85825.7581904","86593.2417742","87360.0321743","88144.3063085","88911.629141","89678.4333627","93581.3152282","94348.5695536","95133.2604394","95899.98083","96666.7715306","82740.3400476","83507.7620352","84291.9490331","95902.7956307","Mapping"
"Blocked","Female","cave","10","F_cave.wav","None","734.114013849","438","92814.3295228","85058.4660058","85825.7581904","86593.2417742","87360.0321743","88144.3063085","88911.629141","89678.4333627","93581.3152282","94348.5695536","95133.2604394","95899.98083","96666.7715306","97434.1063819","83507.7620352","84291.9490331","96669.7993643","Mapping"
"Blocked","Female","cave","10","F_gnash.wav","space","421.522408134","438","92814.3295228","85058.4660058","85825.7581904","86593.2417742","87360.0321743","88144.3063085","88911.629141","89678.4333627","93581.3152282","94348.5695536","95133.2604394","95899.98083","96666.7715306","97434.1063819","98201.3216463","84291.9490331","97436.7039429","Mapping"
"Blocked","Female","cave","10","F_cave.wav","None","741.776293056","438","92814.3295228","85058.4660058","85825.7581904","86593.2417742","87360.0321743","88144.3063085","88911.629141","89678.4333627","93581.3152282","94348.5695536","95133.2604394","95899.98083","96666.7715306","97434.1063819","98201.3216463","98985.5450011","98204.0069445","Mapping"
"Blocked","Female","cave","10","F_reek.wav","space","612.725735413","438","92814.3295228","99752.421636","85825.7581904","86593.2417742","87360.0321743","88144.3063085","88911.629141","89678.4333627","93581.3152282","94348.5695536","95133.2604394","95899.98083","96666.7715306","97434.1063819","98201.3216463","98985.5450011","98988.4893042","Mapping"
"Blocked","Female","cave","10","F_dime.wav","None","732.010425101","438","92814.3295228","99752.421636","100519.657332","86593.2417742","87360.0321743","88144.3063085","88911.629141","89678.4333627","93581.3152282","94348.5695536","95133.2604394","95899.98083","96666.7715306","97434.1063819","98201.3216463","98985.5450011","99755.2376385","Mapping"
"Blocked","Female","cave","10","F_knife.wav","None","735.731743007","438","92814.3295228","99752.421636","100519.657332","101286.901141","87360.0321743","88144.3063085","88911.629141","89678.4333627","93581.3152282","94348.5695536","95133.2604394","95899.98083","96666.7715306","97434.1063819","98201.3216463","98985.5450011","100522.531325","Mapping"
"Blocked","Female","cave","10","F_priest.wav","None","739.263764972","438","92814.3295228","99752.421636","100519.657332","101286.901141","102054.01665","88144.3063085","88911.629141","89678.4333627","93581.3152282","94348.5695536","95133.2604394","95899.98083","96666.7715306","97434.1063819","98201.3216463","98985.5450011","101289.863172","Mapping"
"Blocked","Female","cave","10","F_park.wav","None","742.903054637","438","92814.3295228","99752.421636","100519.657332","101286.901141","102054.01665","102838.316925","88911.629141","89678.4333627","93581.3152282","94348.5695536","95133.2604394","95899.98083","96666.7715306","97434.1063819","98201.3216463","98985.5450011","102056.998511","Mapping"
"Blocked","Female","cave","10","F_cave.wav","None","729.582929955","438","92814.3295228","99752.421636","100519.657332","101286.901141","102054.01665","102838.316925","103605.209184","89678.4333627","93581.3152282","94348.5695536","95133.2604394","95899.98083","96666.7715306","97434.1063819","98201.3216463","98985.5450011","102841.14765","Mapping"
"Blocked","Female","cave","10","F_romp.wav","space","467.251801467","438","92814.3295228","99752.421636","100519.657332","101286.901141","102054.01665","102838.316925","103605.209184","104372.870646","93581.3152282","94348.5695536","95133.2604394","95899.98083","96666.7715306","97434.1063819","98201.3216463","98985.5450011","103607.961787","Mapping"
"Blocked","Female","done","24","F_depth.wav","None","736.674316624","438","107508.391219","99752.421636","100519.657332","101286.901141","102054.01665","102838.316925","103605.209184","104372.870646","93581.3152282","94348.5695536","95133.2604394","95899.98083","96666.7715306","97434.1063819","98201.3216463","98985.5450011","104375.875644","Mapping"
"Blocked","Female","done","24","F_done.wav","None","734.172004511","438","107508.391219","99752.421636","100519.657332","101286.901141","102054.01665","102838.316925","103605.209184","104372.870646","108275.336962","94348.5695536","95133.2604394","95899.98083","96666.7715306","97434.1063819","98201.3216463","98985.5450011","107511.382696","Mapping"
"Blocked","Female","done","24","F_cad.wav","space","699.946396198","438","107508.391219","99752.421636","100519.657332","101286.901141","102054.01665","102838.316925","103605.209184","104372.870646","108275.336962","109042.470799","95133.2604394","95899.98083","96666.7715306","97434.1063819","98201.3216463","98985.5450011","108278.298993","Mapping"
"Blocked","Female","done","24","F_done.wav","None","741.013099883","438","107508.391219","99752.421636","100519.657332","101286.901141","102054.01665","102838.316925","103605.209184","104372.870646","108275.336962","109042.470799","109827.438417","95899.98083","96666.7715306","97434.1063819","98201.3216463","98985.5450011","109045.132059","Mapping"
"Blocked","Female","done","24","F_depth.wav","space","603.462252886","438","107508.391219","99752.421636","100519.657332","101286.901141","102054.01665","102838.316925","103605.209184","104372.870646","108275.336962","109042.470799","109827.438417","110594.538602","96666.7715306","97434.1063819","98201.3216463","98985.5450011","109830.738176","Mapping"
"Blocked","Female","done","24","F_done.wav","None","729.806178977","438","107508.391219","99752.421636","100519.657332","101286.901141","102054.01665","102838.316925","103605.209184","104372.870646","108275.336962","109042.470799","109827.438417","110594.538602","111361.23195","97434.1063819","98201.3216463","98985.5450011","110597.791187","Mapping"
"Blocked","Female","done","24","F_cling.wav","space","484.767385329","438","107508.391219","99752.421636","100519.657332","101286.901141","102054.01665","102838.316925","103605.209184","104372.870646","108275.336962","109042.470799","109827.438417","110594.538602","111361.23195","112128.097167","98201.3216463","98985.5450011","111364.477023","Mapping"
"Blocked","Female","done","24","F_jaw.wav","None","737.361490956","438","107508.391219","99752.421636","100519.657332","101286.901141","102054.01665","102838.316925","103605.209184","104372.870646","108275.336962","109042.470799","109827.438417","110594.538602","111361.23195","112128.097167","112895.327154","98985.5450011","112130.859386","Mapping"
"Blocked","Female","done","24","F_bluff.wav","None","740.612273228","438","107508.391219","99752.421636","100519.657332","101286.901141","102054.01665","102838.316925","103605.209184","104372.870646","108275.336962","109042.470799","109827.438417","110594.538602","111361.23195","112128.097167","112895.327154","113679.504838","112898.080359","Mapping"
"Blocked","Female","done","24","F_done.wav","None","726.705932055","438","107508.391219","114446.802731","100519.657332","101286.901141","102054.01665","102838.316925","103605.209184","104372.870646","108275.336962","109042.470799","109827.438417","110594.538602","111361.23195","112128.097167","112895.327154","113679.504838","113682.69793","Mapping"
"Blocked","Female","done","24","F_romp.wav","space","518.4987209","438","107508.391219","114446.802731","115214.070878","101286.901141","102054.01665","102838.316925","103605.209184","104372.870646","108275.336962","109042.470799","109827.438417","110594.538602","111361.23195","112128.097167","112895.327154","113679.504838","114449.727804","Mapping"
"Blocked","Female","done","24","F_depth.wav","None","733.961074744","438","107508.391219","114446.802731","115214.070878","115981.206518","102054.01665","102838.316925","103605.209184","104372.870646","108275.336962","109042.470799","109827.438417","110594.538602","111361.23195","112128.097167","112895.327154","113679.504838","115217.162412","Mapping"
"Blocked","Female","done","24","F_dime.wav","None","738.073303801","438","107508.391219","114446.802731","115214.070878","115981.206518","116748.050102","102838.316925","103605.209184","104372.870646","108275.336962","109042.470799","109827.438417","110594.538602","111361.23195","112128.097167","112895.327154","113679.504838","115984.201601","Mapping"
"Blocked","Female","done","24","F_cad.wav","None","741.762471447","438","107508.391219","114446.802731","115214.070878","115981.206518","116748.050102","117532.125024","103605.209184","104372.870646","108275.336962","109042.470799","109827.438417","110594.538602","111361.23195","112128.097167","112895.327154","113679.504838","116750.799099","Mapping"
"Blocked","Female","done","24","F_gnash.wav","space","57.0180420073","438","107508.391219","114446.802731","115214.070878","115981.206518","116748.050102","117532.125024","118299.505547","104372.870646","108275.336962","109042.470799","109827.438417","110594.538602","111361.23195","112128.097167","112895.327154","113679.504838","117535.206041","Mapping"
"Blocked","Female","done","24","F_depth.wav","None","730.677240797","438","107508.391219","114446.802731","115214.070878","115981.206518","116748.050102","117532.125024","118299.505547","119066.884567","108275.336962","109042.470799","109827.438417","110594.538602","111361.23195","112128.097167","112895.327154","113679.504838","118302.43032","Mapping"
"Blocked","Female","done","21","F_lash.wav","None","734.07645513","438","122202.439093","114446.802731","115214.070878","115981.206518","116748.050102","117532.125024","118299.505547","119066.884567","108275.336962","109042.470799","109827.438417","110594.538602","111361.23195","112128.097167","112895.327154","113679.504838","119069.838185","Mapping"
"Blocked","Female","done","21","F_depth.wav","None","733.529600177","438","122202.439093","114446.802731","115214.070878","115981.206518","116748.050102","117532.125024","118299.505547","119066.884567","122969.267353","109042.470799","109827.438417","110594.538602","111361.23195","112128.097167","112895.327154","113679.504838","122205.458213","Mapping"
"Blocked","Female","done","21","F_done.wav","None","737.641528765","438","122202.439093","114446.802731","115214.070878","115981.206518","116748.050102","117532.125024","118299.505547","119066.884567","122969.267353","123736.52949","109827.438417","110594.538602","111361.23195","112128.097167","112895.327154","113679.504838","122972.308106","Mapping"
"Blocked","Female","done","21","F_knife.wav","space","350.404522429","438","122202.439093","114446.802731","115214.070878","115981.206518","116748.050102","117532.125024","118299.505547","119066.884567","122969.267353","123736.52949","124520.695455","110594.538602","111361.23195","112128.097167","112895.327154","113679.504838","123739.814826","Mapping"
"Blocked","Female","done","21","F_greet.wav","None","727.246777609","438","122202.439093","114446.802731","115214.070878","115981.206518","116748.050102","117532.125024","118299.505547","119066.884567","122969.267353","123736.52949","124520.695455","125287.643302","111361.23195","112128.097167","112895.327154","113679.504838","124523.761749","Mapping"
"Blocked","Female","done","21","F_reek.wav","None","731.81061271","438","122202.439093","114446.802731","115214.070878","115981.206518","116748.050102","117532.125024","118299.505547","119066.884567","122969.267353","123736.52949","124520.695455","125287.643302","126054.897627","112128.097167","112895.327154","113679.504838","125290.388694","Mapping"
"Blocked","Female","done","21","F_done.wav","None","735.1764749","438","122202.439093","114446.802731","115214.070878","115981.206518","116748.050102","117532.125024","118299.505547","119066.884567","122969.267353","123736.52949","124520.695455","125287.643302","126054.897627","126822.068722","112895.327154","113679.504838","126058.057367","Mapping"
"Blocked","Female","done","21","F_gnash.wav","space","408.999129239","438","122202.439093","114446.802731","115214.070878","115981.206518","116748.050102","117532.125024","118299.505547","119066.884567","122969.267353","123736.52949","124520.695455","125287.643302","126054.897627","126822.068722","127606.880697","113679.504838","126825.235974","Mapping"
"Blocked","Female","done","21","F_reek.wav","None","724.44820232","438","122202.439093","114446.802731","115214.070878","115981.206518","116748.050102","117532.125024","118299.505547","119066.884567","122969.267353","123736.52949","124520.695455","125287.643302","126054.897627","126822.068722","127606.880697","128374.055699","127610.420531","Mapping"
"Blocked","Female","done","21","F_dime.wav","None","727.71460902","438","122202.439093","129140.737329","115214.070878","115981.206518","116748.050102","117532.125024","118299.505547","119066.884567","122969.267353","123736.52949","124520.695455","125287.643302","126054.897627","126822.068722","127606.880697","128374.055699","128377.634594","Mapping"
"Blocked","Female","done","21","F_cad.wav","None","733.070782862","438","122202.439093","129140.737329","129907.634396","115981.206518","116748.050102","117532.125024","118299.505547","119066.884567","122969.267353","123736.52949","124520.695455","125287.643302","126054.897627","126822.068722","127606.880697","128374.055699","129143.890759","Mapping"
"Blocked","Female","done","21","F_gnash.wav","None","738.173660699","438","122202.439093","129140.737329","129907.634396","130674.818111","116748.050102","117532.125024","118299.505547","119066.884567","122969.267353","123736.52949","124520.695455","125287.643302","126054.897627","126822.068722","127606.880697","128374.055699","129910.276126","Mapping"
"Blocked","Female","done","21","F_done.wav","None","741.963485714","438","122202.439093","129140.737329","129907.634396","130674.818111","131458.998799","117532.125024","118299.505547","119066.884567","122969.267353","123736.52949","124520.695455","125287.643302","126054.897627","126822.068722","127606.880697","128374.055699","130677.562301","Mapping"
"Blocked","Female","done","21","F_dime.wav","space","587.210144338","438","122202.439093","129140.737329","129907.634396","130674.818111","131458.998799","132225.979096","118299.505547","119066.884567","122969.267353","123736.52949","124520.695455","125287.643302","126054.897627","126822.068722","127606.880697","128374.055699","131462.043158","Mapping"
"Blocked","Female","done","21","F_done.wav","None","732.2736366","438","122202.439093","129140.737329","129907.634396","130674.818111","131458.998799","132225.979096","132993.18805","119066.884567","122969.267353","123736.52949","124520.695455","125287.643302","126054.897627","126822.068722","127606.880697","128374.055699","132228.822441","Mapping"
"Blocked","Female","done","21","F_gnash.wav","space","621.310456769","438","122202.439093","129140.737329","129907.634396","130674.818111","131458.998799","132225.979096","132993.18805","133760.422845","122969.267353","123736.52949","124520.695455","125287.643302","126054.897627","126822.068722","127606.880697","128374.055699","132995.952973","Mapping"
"Blocked","Female","ball","3","F_reek.wav","None","739.392065556","438","136913.222232","129140.737329","129907.634396","130674.818111","131458.998799","132225.979096","132993.18805","133760.422845","122969.267353","123736.52949","124520.695455","125287.643302","126054.897627","126822.068722","127606.880697","128374.055699","133763.27881","Mapping"
"Blocked","Female","ball","3","F_depth.wav","None","733.324679804","438","136913.222232","129140.737329","129907.634396","130674.818111","131458.998799","132225.979096","132993.18805","133760.422845","137679.967561","123736.52949","124520.695455","125287.643302","126054.897627","126822.068722","127606.880697","128374.055699","136916.695662","Mapping"
"Blocked","Female","ball","3","F_priest.wav","None","737.886712086","438","136913.222232","129140.737329","129907.634396","130674.818111","131458.998799","132225.979096","132993.18805","133760.422845","137679.967561","138447.189436","124520.695455","125287.643302","126054.897627","126822.068722","127606.880697","128374.055699","137683.055188","Mapping"
"Blocked","Female","ball","3","F_ball.wav","None","741.554546377","438","136913.222232","129140.737329","129907.634396","130674.818111","131458.998799","132225.979096","132993.18805","133760.422845","137679.967561","138447.189436","139231.386049","125287.643302","126054.897627","126822.068722","127606.880697","128374.055699","138450.086265","Mapping"
"Blocked","Female","ball","3","F_depth.wav","space","514.917722368","438","136913.222232","129140.737329","129907.634396","130674.818111","131458.998799","132225.979096","132993.18805","133760.422845","137679.967561","138447.189436","139231.386049","139998.546928","126054.897627","126822.068722","127606.880697","128374.055699","139234.293695","Mapping"
"Blocked","Female","ball","3","F_bluff.wav","None","731.509542016","438","136913.222232","129140.737329","129907.634396","130674.818111","131458.998799","132225.979096","132993.18805","133760.422845","137679.967561","138447.189436","139231.386049","139998.546928","140765.853836","126822.068722","127606.880697","128374.055699","140001.612621","Mapping"
"Blocked","Female","ball","3","F_gnash.wav","None","735.077920821","438","136913.222232","129140.737329","129907.634396","130674.818111","131458.998799","132225.979096","132993.18805","133760.422845","137679.967561","138447.189436","139231.386049","139998.546928","140765.853836","141532.64694","127606.880697","128374.055699","140768.796036","Mapping"
"Blocked","Female","ball","3","F_ball.wav","None","739.878826556","438","136913.222232","129140.737329","129907.634396","130674.818111","131458.998799","132225.979096","132993.18805","133760.422845","137679.967561","138447.189436","139231.386049","139998.546928","140765.853836","141532.64694","142317.261807","128374.055699","141535.278755","Mapping"
"Blocked","Female","ball","3","F_jaw.wav","space","344.740667562","438","136913.222232","129140.737329","129907.634396","130674.818111","131458.998799","132225.979096","132993.18805","133760.422845","137679.967561","138447.189436","139231.386049","139998.546928","140765.853836","141532.64694","142317.261807","143084.737579","142320.497566","Mapping"
"Blocked","Female","ball","3","F_bluff.wav","None","727.698684124","438","136913.222232","143851.050833","129907.634396","130674.818111","131458.998799","132225.979096","132993.18805","133760.422845","137679.967561","138447.189436","139231.386049","139998.546928","140765.853836","141532.64694","142317.261807","143084.737579","143088.277713","Mapping"
"Blocked","Female","ball","3","F_cad.wav","None","732.794050218","438","136913.222232","143851.050833","144618.266398","130674.818111","131458.998799","132225.979096","132993.18805","133760.422845","137679.967561","138447.189436","139231.386049","139998.546928","140765.853836","141532.64694","142317.261807","143084.737579","143853.924225","Mapping"
"Blocked","Female","ball","3","F_greet.wav","None","737.119612804","438","136913.222232","143851.050833","144618.266398","145385.528836","131458.998799","132225.979096","132993.18805","133760.422845","137679.967561","138447.189436","139231.386049","139998.546928","140765.853836","141532.64694","142317.261807","143084.737579","144620.964616","Mapping"
"Blocked","Female","ball","3","F_ball.wav","None","740.341549979","438","136913.222232","143851.050833","144618.266398","145385.528836","146169.699308","132225.979096","132993.18805","133760.422845","137679.967561","138447.189436","139231.386049","139998.546928","140765.853836","141532.64694","142317.261807","143084.737579","145388.244181","Mapping"
"Blocked","Female","ball","3","F_greet.wav","space","361.937152542","438","136913.222232","143851.050833","144618.266398","145385.528836","146169.699308","146936.997802","132993.18805","133760.422845","137679.967561","138447.189436","139231.386049","139998.546928","140765.853836","141532.64694","142317.261807","143084.737579","146172.32962","Mapping"
"Blocked","Female","ball","3","F_ball.wav","None","730.376771044","438","136913.222232","143851.050833","144618.266398","145385.528836","146169.699308","146936.997802","147703.911095","133760.422845","137679.967561","138447.189436","139231.386049","139998.546928","140765.853836","141532.64694","142317.261807","143084.737579","146939.505823","Mapping"
"Blocked","Female","ball","3","F_reek.wav","space","401.145751268","438","136913.222232","143851.050833","144618.266398","145385.528836","146169.699308","146936.997802","147703.911095","148471.123655","137679.967561","138447.189436","139231.386049","139998.546928","140765.853836","141532.64694","142317.261807","143084.737579","147707.045595","Mapping"
"Blocked","Female","ball","1","F_reek.wav","None","737.929679261","438","151623.705201","143851.050833","144618.266398","145385.528836","146169.699308","146936.997802","147703.911095","148471.123655","137679.967561","138447.189436","139231.386049","139998.546928","140765.853836","141532.64694","142317.261807","143084.737579","148473.854324","Mapping"
"Blocked","Female","ball","1","F_ball.wav","None","732.724341233","438","151623.705201","143851.050833","144618.266398","145385.528836","146169.699308","146936.997802","147703.911095","148471.123655","152390.959827","138447.189436","139231.386049","139998.546928","140765.853836","141532.64694","142317.261807","143084.737579","151626.802743","Mapping"
"Blocked","Female","ball","1","F_gnash.wav","space","261.232310593","438","151623.705201","143851.050833","144618.266398","145385.528836","146169.699308","146936.997802","147703.911095","148471.123655","152390.959827","153157.840969","139231.386049","139998.546928","140765.853836","141532.64694","142317.261807","143084.737579","152393.961519","Mapping"
"Blocked","Female","ball","1","F_ball.wav","None","740.311803474","438","151623.705201","143851.050833","144618.266398","145385.528836","146169.699308","146936.997802","147703.911095","148471.123655","152390.959827","153157.840969","153942.819404","139998.546928","140765.853836","141532.64694","142317.261807","143084.737579","153160.53498","Mapping"
"Blocked","Female","ball","1","F_depth.wav","space","614.058919713","438","151623.705201","143851.050833","144618.266398","145385.528836","146169.699308","146936.997802","147703.911095","148471.123655","152390.959827","153157.840969","153942.819404","154709.244132","140765.853836","141532.64694","142317.261807","143084.737579","153946.170543","Mapping"
"Blocked","Female","ball","1","F_cad.wav","None","730.069390484","438","151623.705201","143851.050833","144618.266398","145385.528836","146169.699308","146936.997802","147703.911095","148471.123655","152390.959827","153157.840969","153942.819404","154709.244132","155476.643284","141532.64694","142317.261807","143084.737579","154712.303215","Mapping"
"Blocked","Female","ball","1","F_priest.wav","None","733.875741334","438","151623.705201","143851.050833","144618.266398","145385.528836","146169.699308","146936.997802","147703.911095","148471.123655","152390.959827","153157.840969","153942.819404","154709.244132","155476.643284","156243.902117","142317.261807","143084.737579","155479.867325","Mapping"
"Blocked","Female","ball","1","F_dime.wav","None","737.496401875","438","151623.705201","143851.050833","144618.266398","145385.528836","146169.699308","146936.997802","147703.911095","148471.123655","152390.959827","153157.840969","153942.819404","154709.244132","155476.643284","156243.902117","157010.574733","143084.737579","156247.095209","Mapping"
"Blocked","Female","ball","1","F_lash.wav","None","742.482997921","438","151623.705201","143851.050833","144618.266398","145385.528836","146169.699308","146936.997802","147703.911095","148471.123655","152390.959827","153157.840969","153942.819404","154709.244132","155476.643284","156243.902117","157010.574733","157794.900848","157013.224275","Mapping"
"Blocked","Female","ball","1","F_ball.wav","None","728.833858855","438","151623.705201","158561.738422","144618.266398","145385.528836","146169.699308","146936.997802","147703.911095","148471.123655","152390.959827","153157.840969","153942.819404","154709.244132","155476.643284","156243.902117","157010.574733","157794.900848","157797.99779","Mapping"
"Blocked","Female","ball","1","F_park.wav","space","310.716073509","438","151623.705201","158561.738422","159329.344297","145385.528836","146169.699308","146936.997802","147703.911095","148471.123655","152390.959827","153157.840969","153942.819404","154709.244132","155476.643284","156243.902117","157010.574733","157794.900848","158564.54511","Mapping"
"Blocked","Female","ball","1","F_ball.wav","None","735.723630325","438","151623.705201","158561.738422","159329.344297","160096.535524","146169.699308","146936.997802","147703.911095","148471.123655","152390.959827","153157.840969","153942.819404","154709.244132","155476.643284","156243.902117","157010.574733","157794.900848","159332.42261","Mapping"
"Blocked","Female","ball","1","F_cling.wav","space","290.455998911","438","151623.705201","158561.738422","159329.344297","160096.535524","160880.294653","146936.997802","147703.911095","148471.123655","152390.959827","153157.840969","153942.819404","154709.244132","155476.643284","156243.902117","157010.574733","157794.900848","160099.803433","Mapping"
"Blocked","Female","ball","1","F_cling.wav","None","726.298495068","438","151623.705201","158561.738422","159329.344297","160096.535524","160880.294653","161647.619588","147703.911095","148471.123655","152390.959827","153157.840969","153942.819404","154709.244132","155476.643284","156243.902117","157010.574733","157794.900848","160883.173153","Mapping"
"Blocked","Female","ball","1","F_jolt.wav","None","729.827211864","438","151623.705201","158561.738422","159329.344297","160096.535524","160880.294653","161647.619588","162414.50704","148471.123655","152390.959827","153157.840969","153942.819404","154709.244132","155476.643284","156243.902117","157010.574733","157794.900848","161650.346652","Mapping"
"Blocked","Female","ball","1","F_romp.wav","None","733.972492595","438","151623.705201","158561.738422","159329.344297","160096.535524","160880.294653","161647.619588","162414.50704","163181.799525","152390.959827","153157.840969","153942.819404","154709.244132","155476.643284","156243.902117","157010.574733","157794.900848","162417.770142","Mapping"
"Blocked","Female","cave","9","F_dime.wav","None","737.857266049","438","166334.420132","158561.738422","159329.344297","160096.535524","160880.294653","161647.619588","162414.50704","163181.799525","152390.959827","153157.840969","153942.819404","154709.244132","155476.643284","156243.902117","157010.574733","157794.900848","163184.61703","Mapping"
"Blocked","Female","cave","9","F_cave.wav","None","733.090012927","438","166334.420132","158561.738422","159329.344297","160096.535524","160880.294653","161647.619588","162414.50704","163181.799525","167101.252598","153157.840969","153942.819404","154709.244132","155476.643284","156243.902117","157010.574733","157794.900848","166337.84669","Mapping"
"Blocked","Female","cave","9","F_depth.wav","space","665.008674561","438","166334.420132","158561.738422","159329.344297","160096.535524","160880.294653","161647.619588","162414.50704","163181.799525","167101.252598","167868.520445","153942.819404","154709.244132","155476.643284","156243.902117","157010.574733","157794.900848","167104.248883","Mapping"
"Blocked","Female","cave","9","F_gnash.wav","None","741.434959415","438","166334.420132","158561.738422","159329.344297","160096.535524","160880.294653","161647.619588","162414.50704","163181.799525","167101.252598","167868.520445","168653.258504","154709.244132","155476.643284","156243.902117","157010.574733","157794.900848","167871.289574","Mapping"
"Blocked","Female","cave","9","F_cave.wav","None","726.476072694","438","166334.420132","158561.738422","159329.344297","160096.535524","160880.294653","161647.619588","162414.50704","163181.799525","167101.252598","167868.520445","168653.258504","169420.135139","155476.643284","156243.902117","157010.574733","157794.900848","168657.133963","Mapping"
"Blocked","Female","cave","9","F_romp.wav","space","406.949925513","438","166334.420132","158561.738422","159329.344297","160096.535524","160880.294653","161647.619588","162414.50704","163181.799525","167101.252598","167868.520445","168653.258504","169420.135139","170186.889483","156243.902117","157010.574733","157794.900848","169423.305696","Mapping"
"Blocked","Female","cave","9","F_lash.wav","None","735.270822403","438","166334.420132","158561.738422","159329.344297","160096.535524","160880.294653","161647.619588","162414.50704","163181.799525","167101.252598","167868.520445","168653.258504","169420.135139","170186.889483","170954.03624","157010.574733","157794.900848","170189.802537","Mapping"
"Blocked","Female","cave","9","F_jaw.wav","None","739.467783933","438","166334.420132","158561.738422","159329.344297","160096.535524","160880.294653","161647.619588","162414.50704","163181.799525","167101.252598","167868.520445","168653.258504","169420.135139","170186.889483","170954.03624","171738.137003","157794.900848","170956.916243","Mapping"
"Blocked","Female","cave","9","F_greet.wav","None","726.041292957","438","166334.420132","158561.738422","159329.344297","160096.535524","160880.294653","161647.619588","162414.50704","163181.799525","167101.252598","167868.520445","168653.258504","169420.135139","170186.889483","170954.03624","171738.137003","172505.467348","171741.159729","Mapping"
"Blocked","Female","cave","9","F_park.wav","None","730.276714618","438","166334.420132","173272.370724","159329.344297","160096.535524","160880.294653","161647.619588","162414.50704","163181.799525","167101.252598","167868.520445","168653.258504","169420.135139","170186.889483","170954.03624","171738.137003","172505.467348","172508.261716","Mapping"
"Blocked","Female","cave","9","F_cave.wav","None","734.910559171","438","166334.420132","173272.370724","174039.615134","160096.535524","160880.294653","161647.619588","162414.50704","163181.799525","167101.252598","167868.520445","168653.258504","169420.135139","170186.889483","170954.03624","171738.137003","172505.467348","173274.985412","Mapping"
"Blocked","Female","cave","9","F_gnash.wav","space","316.892830251","438","166334.420132","173272.370724","174039.615134","174807.380859","160880.294653","161647.619588","162414.50704","163181.799525","167101.252598","167868.520445","168653.258504","169420.135139","170186.889483","170954.03624","171738.137003","172505.467348","174042.405296","Mapping"
"Blocked","Female","cave","9","F_cave.wav","None","741.231841861","438","166334.420132","173272.370724","174039.615134","174807.380859","175591.797717","161647.619588","162414.50704","163181.799525","167101.252598","167868.520445","168653.258504","169420.135139","170186.889483","170954.03624","171738.137003","172505.467348","174810.551116","Mapping"
"Blocked","Female","cave","9","F_cling.wav","space","463.060248396","438","166334.420132","173272.370724","174039.615134","174807.380859","175591.797717","176358.337525","162414.50704","163181.799525","167101.252598","167868.520445","168653.258504","169420.135139","170186.889483","170954.03624","171738.137003","172505.467348","175595.182208","Mapping"
"Blocked","Female","cave","9","F_jaw.wav","None","732.470143823","438","166334.420132","173272.370724","174039.615134","174807.380859","175591.797717","176358.337525","177125.647738","163181.799525","167101.252598","167868.520445","168653.258504","169420.135139","170186.889483","170954.03624","171738.137003","172505.467348","176361.593716","Mapping"
"Blocked","Female","cave","9","F_dime.wav","None","736.42763096","438","166334.420132","173272.370724","174039.615134","174807.380859","175591.797717","176358.337525","177125.647738","177892.498232","167101.252598","167868.520445","168653.258504","169420.135139","170186.889483","170954.03624","171738.137003","172505.467348","177128.80237","Mapping"
"Blocked","Female","done","22","F_jaw.wav","None","740.862865001","438","181045.230614","173272.370724","174039.615134","174807.380859","175591.797717","176358.337525","177125.647738","177892.498232","167101.252598","167868.520445","168653.258504","169420.135139","170186.889483","170954.03624","171738.137003","172505.467348","177895.748714","Mapping"
"Blocked","Female","done","22","F_lash.wav","None","733.565356077","438","181045.230614","173272.370724","174039.615134","174807.380859","175591.797717","176358.337525","177125.647738","177892.498232","181812.432958","167868.520445","168653.258504","169420.135139","170186.889483","170954.03624","171738.137003","172505.467348","181048.474185","Mapping"
"Blocked","Female","done","22","F_cad.wav","None","737.266242042","438","181045.230614","173272.370724","174039.615134","174807.380859","175591.797717","176358.337525","177125.647738","177892.498232","181812.432958","182579.519921","168653.258504","169420.135139","170186.889483","170954.03624","171738.137003","172505.467348","181815.443064","Mapping"
"Blocked","Female","done","22","F_depth.wav","None","741.255578971","438","181045.230614","173272.370724","174039.615134","174807.380859","175591.797717","176358.337525","177125.647738","177892.498232","181812.432958","182579.519921","183364.101136","169420.135139","170186.889483","170954.03624","171738.137003","172505.467348","182582.730741","Mapping"
"Blocked","Female","done","22","F_bluff.wav","space","344.728648772","438","181045.230614","173272.370724","174039.615134","174807.380859","175591.797717","176358.337525","177125.647738","177892.498232","181812.432958","182579.519921","183364.101136","184130.673094","170186.889483","170954.03624","171738.137003","172505.467348","183367.58358","Mapping"
"Blocked","Female","done","22","F_done.wav","None","731.718068029","438","181045.230614","173272.370724","174039.615134","174807.380859","175591.797717","176358.337525","177125.647738","177892.498232","181812.432958","182579.519921","183364.101136","184130.673094","184897.51848","170954.03624","171738.137003","172505.467348","184134.007407","Mapping"
"Blocked","Female","done","22","F_depth.wav","space","410.905008888","438","181045.230614","173272.370724","174039.615134","174807.380859","175591.797717","176358.337525","177125.647738","177892.498232","181812.432958","182579.519921","183364.101136","184130.673094","184897.51848","185664.785726","171738.137003","172505.467348","184900.366934","Mapping"
"Blocked","Female","done","22","F_done.wav","None","740.133925377","438","181045.230614","173272.370724","174039.615134","174807.380859","175591.797717","176358.337525","177125.647738","177892.498232","181812.432958","182579.519921","183364.101136","184130.673094","184897.51848","185664.785726","186449.047841","172505.467348","185667.361954","Mapping"
"Blocked","Female","done","22","F_cling.wav","space","495.604728432","438","181045.230614","173272.370724","174039.615134","174807.380859","175591.797717","176358.337525","177125.647738","177892.498232","181812.432958","182579.519921","183364.101136","184130.673094","184897.51848","185664.785726","186449.047841","187216.228852","186451.700088","Mapping"
"Blocked","Female","done","22","F_done.wav","None","730.366855543","438","181045.230614","187983.101581","174039.615134","174807.380859","175591.797717","176358.337525","177125.647738","177892.498232","181812.432958","182579.519921","183364.101136","184130.673094","184897.51848","185664.785726","186449.047841","187216.228852","187219.034939","Mapping"
"Blocked","Female","done","22","F_bluff.wav","space","514.235055085","438","181045.230614","187983.101581","188750.736902","174807.380859","175591.797717","176358.337525","177125.647738","177892.498232","181812.432958","182579.519921","183364.101136","184130.673094","184897.51848","185664.785726","186449.047841","187216.228852","187986.047386","Mapping"
"Blocked","Female","done","22","F_gnash.wav","None","737.574524013","438","181045.230614","187983.101581","188750.736902","189517.984617","175591.797717","176358.337525","177125.647738","177892.498232","181812.432958","182579.519921","183364.101136","184130.673094","184897.51848","185664.785726","186449.047841","187216.228852","188753.462764","Mapping"
"Blocked","Female","done","22","F_dime.wav","None","741.17355073","438","181045.230614","187983.101581","188750.736902","189517.984617","190301.826075","176358.337525","177125.647738","177892.498232","181812.432958","182579.519921","183364.101136","184130.673094","184897.51848","185664.785726","186449.047841","187216.228852","189521.360996","Mapping"
"Blocked","Female","done","22","F_done.wav","None","729.716038055","438","181045.230614","187983.101581","188750.736902","189517.984617","190301.826075","191068.675367","177125.647738","177892.498232","181812.432958","182579.519921","183364.101136","184130.673094","184897.51848","185664.785726","186449.047841","187216.228852","190304.696462","Mapping"
"Blocked","Female","done","22","F_greet.wav","space","489.67375595","438","181045.230614","187983.101581","188750.736902","189517.984617","190301.826075","191068.675367","191836.198012","177892.498232","181812.432958","182579.519921","183364.101136","184130.673094","184897.51848","185664.785726","186449.047841","187216.228852","191071.614562","Mapping"
"Blocked","Female","done","22","F_romp.wav","None","737.154166825","438","181045.230614","187983.101581","188750.736902","189517.984617","190301.826075","191068.675367","191836.198012","192603.595962","181812.432958","182579.519921","183364.101136","184130.673094","184897.51848","185664.785726","186449.047841","187216.228852","191839.325902","Mapping"
"Blocked","Female","cave","8","F_romp.wav","None","740.677174694","438","195755.866522","187983.101581","188750.736902","189517.984617","190301.826075","191068.675367","191836.198012","192603.595962","181812.432958","182579.519921","183364.101136","184130.673094","184897.51848","185664.785726","186449.047841","187216.228852","192606.861768","Mapping"
"Blocked","Female","cave","8","F_cave.wav","None","733.601111981","438","195755.866522","187983.101581","188750.736902","189517.984617","190301.826075","191068.675367","191836.198012","192603.595962","196522.692377","182579.519921","183364.101136","184130.673094","184897.51848","185664.785726","186449.047841","187216.228852","195759.073135","Mapping"
"Blocked","Female","cave","8","F_greet.wav","None","738.807651884","438","195755.866522","187983.101581","188750.736902","189517.984617","190301.826075","191068.675367","191836.198012","192603.595962","196522.692377","197289.815998","183364.101136","184130.673094","184897.51848","185664.785726","186449.047841","187216.228852","196525.298652","Mapping"
"Blocked","Female","cave","8","F_dime.wav","space","54.6602558461","438","195755.866522","187983.101581","188750.736902","189517.984617","190301.826075","191068.675367","191836.198012","192603.595962","196522.692377","197289.815998","198074.144217","184130.673094","184897.51848","185664.785726","186449.047841","187216.228852","197292.68248","Mapping"
"Blocked","Female","cave","8","F_cave.wav","None","729.019248691","438","195755.866522","187983.101581","188750.736902","189517.984617","190301.826075","191068.675367","191836.198012","192603.595962","196522.692377","197289.815998","198074.144217","198840.953847","184897.51848","185664.785726","186449.047841","187216.228852","198077.026924","Mapping"
"Blocked","Female","cave","8","F_gnash.wav","None","733.623046268","438","195755.866522","187983.101581","188750.736902","189517.984617","190301.826075","191068.675367","191836.198012","192603.595962","196522.692377","197289.815998","198074.144217","198840.953847","199608.277281","185664.785726","186449.047841","187216.228852","198843.904761","Mapping"
"Blocked","Female","cave","8","F_dime.wav","space","40.3188344644","438","195755.866522","187983.101581","188750.736902","189517.984617","190301.826075","191068.675367","191836.198012","192603.595962","196522.692377","197289.815998","198074.144217","198840.953847","199608.277281","200375.697766","186449.047841","187216.228852","199610.949358","Mapping"
"Blocked","Female","cave","8","F_cad.wav","None","739.98879849","438","195755.866522","187983.101581","188750.736902","189517.984617","190301.826075","191068.675367","191836.198012","192603.595962","196522.692377","197289.815998","198074.144217","198840.953847","199608.277281","200375.697766","201160.348689","187216.228852","200378.726201","Mapping"
"Blocked","Female","cave","8","F_cave.wav","None","726.483584436","438","195755.866522","187983.101581","188750.736902","189517.984617","190301.826075","191068.675367","191836.198012","192603.595962","196522.692377","197289.815998","198074.144217","198840.953847","199608.277281","200375.697766","201160.348689","201926.619577","201163.798983","Mapping"
"Blocked","Female","cave","8","F_knife.wav","space","662.142193105","438","195755.866522","202693.816212","188750.736902","189517.984617","190301.826075","191068.675367","191836.198012","192603.595962","196522.692377","197289.815998","198074.144217","198840.953847","199608.277281","200375.697766","201160.348689","201926.619577","201929.158546","Mapping"
"Blocked","Female","cave","8","F_park.wav","None","734.87119763","438","195755.866522","202693.816212","203461.329843","189517.984617","190301.826075","191068.675367","191836.198012","192603.595962","196522.692377","197289.815998","198074.144217","198840.953847","199608.277281","200375.697766","201160.348689","201926.619577","202696.880703","Mapping"
"Blocked","Female","cave","8","F_jaw.wav","None","738.779107258","438","195755.866522","202693.816212","203461.329843","204245.777649","190301.826075","191068.675367","191836.198012","192603.595962","196522.692377","197289.815998","198074.144217","198840.953847","199608.277281","200375.697766","201160.348689","201926.619577","203464.630503","Mapping"
"Blocked","Female","cave","8","F_cave.wav","None","724.702099262","438","195755.866522","202693.816212","203461.329843","204245.777649","205012.12726","191068.675367","191836.198012","192603.595962","196522.692377","197289.815998","198074.144217","198840.953847","199608.277281","200375.697766","201160.348689","201926.619577","204249.699981","Mapping"
"Blocked","Female","cave","8","F_jaw.wav","space","436.153482351","438","195755.866522","202693.816212","203461.329843","204245.777649","205012.12726","205779.743651","191836.198012","192603.595962","196522.692377","197289.815998","198074.144217","198840.953847","199608.277281","200375.697766","201160.348689","201926.619577","205015.153591","Mapping"
"Blocked","Female","cave","8","F_lash.wav","None","733.770576917","438","195755.866522","202693.816212","203461.329843","204245.777649","205012.12726","205779.743651","206546.865169","192603.595962","196522.692377","197289.815998","198074.144217","198840.953847","199608.277281","200375.697766","201160.348689","201926.619577","205782.842396","Mapping"
"Blocked","Female","cave","8","F_lash.wav","None","737.706730702","438","195755.866522","202693.816212","203461.329843","204245.777649","205012.12726","205779.743651","206546.865169","207314.081635","196522.692377","197289.815998","198074.144217","198840.953847","199608.277281","200375.697766","201160.348689","201926.619577","206549.887895","Mapping"
"Blocked","Female","ball","4","F_greet.wav","None","741.637476029","438","210466.474486","202693.816212","203461.329843","204245.777649","205012.12726","205779.743651","206546.865169","207314.081635","196522.692377","197289.815998","198074.144217","198840.953847","199608.277281","200375.697766","201160.348689","201926.619577","207317.424361","Mapping"
"Blocked","Female","ball","4","F_cad.wav","None","734.435216014","438","210466.474486","202693.816212","203461.329843","204245.777649","205012.12726","205779.743651","206546.865169","207314.081635","211233.300041","197289.815998","198074.144217","198840.953847","199608.277281","200375.697766","201160.348689","201926.619577","210469.732179","Mapping"
"Blocked","Female","ball","4","F_jolt.wav","None","739.282394094","438","210466.474486","202693.816212","203461.329843","204245.777649","205012.12726","205779.743651","206546.865169","207314.081635","211233.300041","212017.441969","198074.144217","198840.953847","199608.277281","200375.697766","201160.348689","201926.619577","211235.916832","Mapping"
"Blocked","Female","ball","4","F_depth.wav","None","726.728467285","438","210466.474486","202693.816212","203461.329843","204245.777649","205012.12726","205779.743651","206546.865169","207314.081635","211233.300041","212017.441969","212784.646416","198840.953847","199608.277281","200375.697766","201160.348689","201926.619577","212020.266685","Mapping"
"Blocked","Female","ball","4","F_gnash.wav","None","730.362048027","438","210466.474486","202693.816212","203461.329843","204245.777649","205012.12726","205779.743651","206546.865169","207314.081635","211233.300041","212017.441969","212784.646416","213551.534469","199608.277281","200375.697766","201160.348689","201926.619577","212787.819377","Mapping"
"Blocked","Female","ball","4","F_gnash.wav","None","735.103160281","438","210466.474486","202693.816212","203461.329843","204245.777649","205012.12726","205779.743651","206546.865169","207314.081635","211233.300041","212017.441969","212784.646416","213551.534469","214318.923104","200375.697766","201160.348689","201926.619577","213554.613383","Mapping"
"Blocked","Female","ball","4","F_ball.wav","None","739.125548884","438","210466.474486","202693.816212","203461.329843","204245.777649","205012.12726","205779.743651","206546.865169","207314.081635","211233.300041","212017.441969","212784.646416","213551.534469","214318.923104","215103.152168","201160.348689","201926.619577","214321.661586","Mapping"
"Blocked","Female","ball","4","F_cling.wav","space","401.46965766","438","210466.474486","202693.816212","203461.329843","204245.777649","205012.12726","205779.743651","206546.865169","207314.081635","211233.300041","212017.441969","212784.646416","213551.534469","214318.923104","215103.152168","215870.353611","201926.619577","215105.881936","Mapping"
"Blocked","Female","ball","4","F_gnash.wav","None","729.668263361","438","210466.474486","202693.816212","203461.329843","204245.777649","205012.12726","205779.743651","206546.865169","207314.081635","211233.300041","212017.441969","212784.646416","213551.534469","214318.923104","215103.152168","215870.353611","216637.266603","215873.235416","Mapping"
"Blocked","Female","ball","4","F_ball.wav","None","734.215873097","438","210466.474486","217404.508308","203461.329843","204245.777649","205012.12726","205779.743651","206546.865169","207314.081635","211233.300041","212017.441969","212784.646416","213551.534469","214318.923104","215103.152168","215870.353611","216637.266603","216639.977441","Mapping"
"Blocked","Female","ball","4","F_priest.wav","space","364.809042458","438","210466.474486","217404.508308","218171.658371","204245.777649","205012.12726","205779.743651","206546.865169","207314.081635","211233.300041","212017.441969","212784.646416","213551.534469","214318.923104","215103.152168","215870.353611","216637.266603","217407.491072","Mapping"
"Blocked","Female","ball","4","F_ball.wav","None","742.022678256","438","210466.474486","217404.508308","218171.658371","218955.938214","205012.12726","205779.743651","206546.865169","207314.081635","211233.300041","212017.441969","212784.646416","213551.534469","214318.923104","215103.152168","215870.353611","216637.266603","218174.204251","Mapping"
"Blocked","Female","ball","4","F_cling.wav","space","537.133855072","438","210466.474486","217404.508308","218171.658371","218955.938214","219722.744238","205779.743651","206546.865169","207314.081635","211233.300041","212017.441969","212784.646416","213551.534469","214318.923104","215103.152168","215870.353611","216637.266603","218959.220846","Mapping"
"Blocked","Female","ball","4","F_ball.wav","None","732.779327198","438","210466.474486","217404.508308","218171.658371","218955.938214","219722.744238","220489.987747","206546.865169","207314.081635","211233.300041","212017.441969","212784.646416","213551.534469","214318.923104","215103.152168","215870.353611","216637.266603","219725.451471","Mapping"
"Blocked","Female","ball","4","F_park.wav","space","476.783303016","438","210466.474486","217404.508308","218171.658371","218955.938214","219722.744238","220489.987747","221257.156739","207314.081635","211233.300041","212017.441969","212784.646416","213551.534469","214318.923104","215103.152168","215870.353611","216637.266603","220492.577195","Mapping"
"Blocked","Female","ball","4","F_priest.wav","None","740.660047919","438","210466.474486","217404.508308","218171.658371","218955.938214","219722.744238","220489.987747","221257.156739","222041.464826","211233.300041","212017.441969","212784.646416","213551.534469","214318.923104","215103.152168","215870.353611","216637.266603","221259.695107","Mapping"
"Blocked","Female","tile","18","F_park.wav","None","727.958590458","438","225177.153362","217404.508308","218171.658371","218955.938214","219722.744238","220489.987747","221257.156739","222041.464826","211233.300041","212017.441969","212784.646416","213551.534469","214318.923104","215103.152168","215870.353611","216637.266603","222044.14712","Mapping"
"Blocked","Female","tile","18","F_jolt.wav","None","733.583384263","438","225177.153362","217404.508308","218171.658371","218955.938214","219722.744238","220489.987747","221257.156739","222041.464826","225944.008062","212017.441969","212784.646416","213551.534469","214318.923104","215103.152168","215870.353611","216637.266603","225180.61267","Mapping"
"Blocked","Female","tile","18","F_greet.wav","None","738.982825751","438","225177.153362","217404.508308","218171.658371","218955.938214","219722.744238","220489.987747","221257.156739","222041.464826","225944.008062","226728.253351","212784.646416","213551.534469","214318.923104","215103.152168","215870.353611","216637.266603","225946.753755","Mapping"
"Blocked","Female","tile","18","F_reek.wav","None","726.355283852","438","225177.153362","217404.508308","218171.658371","218955.938214","219722.744238","220489.987747","221257.156739","222041.464826","225944.008062","226728.253351","227495.155226","213551.534469","214318.923104","215103.152168","215870.353611","216637.266603","226731.042612","Mapping"
"Blocked","Female","tile","18","F_tile.wav","None","731.025485245","438","225177.153362","217404.508308","218171.658371","218955.938214","219722.744238","220489.987747","221257.156739","222041.464826","225944.008062","226728.253351","227495.155226","228262.363579","214318.923104","215103.152168","215870.353611","216637.266603","227498.237444","Mapping"
"Blocked","Female","tile","18","F_depth.wav","space","532.140047751","438","225177.153362","217404.508308","218171.658371","218955.938214","219722.744238","220489.987747","221257.156739","222041.464826","225944.008062","226728.253351","227495.155226","228262.363579","229029.508834","215103.152168","215870.353611","216637.266603","228265.182286","Mapping"
"Blocked","Female","tile","18","F_priest.wav","None","739.936516751","438","225177.153362","217404.508308","218171.658371","218955.938214","219722.744238","220489.987747","221257.156739","222041.464826","225944.008062","226728.253351","227495.155226","228262.363579","229029.508834","229813.678104","215870.353611","216637.266603","229032.1737","Mapping"
"Blocked","Female","tile","18","F_tile.wav","None","727.529219184","438","225177.153362","217404.508308","218171.658371","218955.938214","219722.744238","220489.987747","221257.156739","222041.464826","225944.008062","226728.253351","227495.155226","228262.363579","229029.508834","229813.678104","230580.728711","216637.266603","229816.684905","Mapping"
"Blocked","Female","tile","18","F_bluff.wav","space","459.778217264","438","225177.153362","217404.508308","218171.658371","218955.938214","219722.744238","220489.987747","221257.156739","222041.464826","225944.008062","226728.253351","227495.155226","228262.363579","229029.508834","229813.678104","230580.728711","231348.218004","230583.550122","Mapping"
"Blocked","Female","tile","18","F_reek.wav","None","735.006709489","438","225177.153362","232115.545043","218171.658371","218955.938214","219722.744238","220489.987747","221257.156739","222041.464826","225944.008062","226728.253351","227495.155226","228262.363579","229029.508834","229813.678104","230580.728711","231348.218004","231351.286101","Mapping"
"Blocked","Female","tile","18","F_tile.wav","None","739.017980708","438","225177.153362","232115.545043","232899.222444","218955.938214","219722.744238","220489.987747","221257.156739","222041.464826","225944.008062","226728.253351","227495.155226","228262.363579","229029.508834","229813.678104","230580.728711","231348.218004","232118.883563","Mapping"
"Blocked","Female","tile","18","F_priest.wav","space","505.14854924","438","225177.153362","232115.545043","232899.222444","233666.619493","219722.744238","220489.987747","221257.156739","222041.464826","225944.008062","226728.253351","227495.155226","228262.363579","229029.508834","229813.678104","230580.728711","231348.218004","232902.169752","Mapping"
"Blocked","Female","tile","18","F_knife.wav","None","729.953409158","438","225177.153362","232115.545043","232899.222444","233666.619493","234433.494625","220489.987747","221257.156739","222041.464826","225944.008062","226728.253351","227495.155226","228262.363579","229029.508834","229813.678104","230580.728711","231348.218004","233669.99497","Mapping"
"Blocked","Female","tile","18","F_tile.wav","None","735.696888518","438","225177.153362","232115.545043","232899.222444","233666.619493","234433.494625","235200.768481","221257.156739","222041.464826","225944.008062","226728.253351","227495.155226","228262.363579","229029.508834","229813.678104","230580.728711","231348.218004","234436.326252","Mapping"
"Blocked","Female","tile","18","F_reek.wav","space","550.629454086","438","225177.153362","232115.545043","232899.222444","233666.619493","234433.494625","235200.768481","235984.841601","222041.464826","225944.008062","226728.253351","227495.155226","228262.363579","229029.508834","229813.678104","230580.728711","231348.218004","235203.753648","Mapping"
"Blocked","Female","tile","18","F_cad.wav","None","725.934025257","438","225177.153362","232115.545043","232899.222444","233666.619493","234433.494625","235200.768481","235984.841601","236751.750086","225944.008062","226728.253351","227495.155226","228262.363579","229029.508834","229813.678104","230580.728711","231348.218004","235987.883557","Mapping"
"Blocked","Female","tile","16","F_cling.wav","None","731.231006557","438","239887.896237","232115.545043","232899.222444","233666.619493","234433.494625","235200.768481","235984.841601","236751.750086","225944.008062","226728.253351","227495.155226","228262.363579","229029.508834","229813.678104","230580.728711","231348.218004","236754.479854","Mapping"
"Blocked","Female","tile","16","F_cling.wav","None","733.38176906","438","239887.896237","232115.545043","232899.222444","233666.619493","234433.494625","235200.768481","235984.841601","236751.750086","240654.734111","226728.253351","227495.155226","228262.363579","229029.508834","229813.678104","230580.728711","231348.218004","239891.076108","Mapping"
"Blocked","Female","tile","16","F_tile.wav","None","737.791763644","438","239887.896237","232115.545043","232899.222444","233666.619493","234433.494625","235200.768481","235984.841601","236751.750086","240654.734111","241421.880268","227495.155226","228262.363579","229029.508834","229813.678104","230580.728711","231348.218004","240657.813325","Mapping"
"Blocked","Female","tile","16","F_park.wav","space","551.386637871","438","239887.896237","232115.545043","232899.222444","233666.619493","234433.494625","235200.768481","235984.841601","236751.750086","240654.734111","241421.880268","242206.79921","228262.363579","229029.508834","229813.678104","230580.728711","231348.218004","241424.941754","Mapping"
"Blocked","Female","tile","16","F_tile.wav","None","727.671341374","438","239887.896237","232115.545043","232899.222444","233666.619493","234433.494625","235200.768481","235984.841601","236751.750086","240654.734111","241421.880268","242206.79921","242973.477835","229029.508834","229813.678104","230580.728711","231348.218004","242210.301786","Mapping"
"Blocked","Female","tile","16","F_cling.wav","None","733.193975462","438","239887.896237","232115.545043","232899.222444","233666.619493","234433.494625","235200.768481","235984.841601","236751.750086","240654.734111","241421.880268","242206.79921","242973.477835","243740.177493","229813.678104","230580.728711","231348.218004","242976.49365","Mapping"
"Blocked","Female","tile","16","F_jaw.wav","space","159.414228205","438","239887.896237","232115.545043","232899.222444","233666.619493","234433.494625","235200.768481","235984.841601","236751.750086","240654.734111","241421.880268","242206.79921","242973.477835","243740.177493","244507.439631","230580.728711","231348.218004","243742.917477","Mapping"
"Blocked","Female","tile","16","F_priest.wav","None","741.372161236","438","239887.896237","232115.545043","232899.222444","233666.619493","234433.494625","235200.768481","235984.841601","236751.750086","240654.734111","241421.880268","242206.79921","242973.477835","243740.177493","244507.439631","245291.596582","231348.218004","244510.105699","Mapping"
"Blocked","Female","tile","16","F_tile.wav","None","728.765952692","438","239887.896237","232115.545043","232899.222444","233666.619493","234433.494625","235200.768481","235984.841601","236751.750086","240654.734111","241421.880268","242206.79921","242973.477835","243740.177493","244507.439631","245291.596582","246058.597011","245294.369317","Mapping"
"Blocked","Female","tile","16","F_reek.wav","space","461.592754113","438","239887.896237","246825.86666","232899.222444","233666.619493","234433.494625","235200.768481","235984.841601","236751.750086","240654.734111","241421.880268","242206.79921","242973.477835","243740.177493","244507.439631","245291.596582","246058.597011","246061.740525","Mapping"
"Blocked","Female","tile","16","F_priest.wav","None","736.223912467","438","239887.896237","246825.86666","247593.017323","233666.619493","234433.494625","235200.768481","235984.841601","236751.750086","240654.734111","241421.880268","242206.79921","242973.477835","243740.177493","244507.439631","245291.596582","246058.597011","246828.836203","Mapping"
"Blocked","Female","tile","16","F_cad.wav","None","741.191278445","438","239887.896237","246825.86666","247593.017323","248377.898106","234433.494625","235200.768481","235984.841601","236751.750086","240654.734111","241421.880268","242206.79921","242973.477835","243740.177493","244507.439631","245291.596582","246058.597011","247595.806284","Mapping"
"Blocked","Female","tile","16","F_romp.wav","None","726.83242982","438","239887.896237","246825.86666","247593.017323","248377.898106","249144.619999","235200.768481","235984.841601","236751.750086","240654.734111","241421.880268","242206.79921","242973.477835","243740.177493","244507.439631","245291.596582","246058.597011","248381.439442","Mapping"
"Blocked","Female","tile","16","F_tile.wav","None","732.348153102","438","239887.896237","246825.86666","247593.017323","248377.898106","249144.619999","249911.866813","235984.841601","236751.750086","240654.734111","241421.880268","242206.79921","242973.477835","243740.177493","244507.439631","245291.596582","246058.597011","249147.595551","Mapping"
"Blocked","Female","tile","16","F_jolt.wav","space","638.408688144","438","239887.896237","246825.86666","247593.017323","248377.898106","249144.619999","249911.866813","250678.554152","236751.750086","240654.734111","241421.880268","242206.79921","242973.477835","243740.177493","244507.439631","245291.596582","246058.597011","249914.919585","Mapping"
"Blocked","Female","tile","16","F_romp.wav","None","741.515785779","438","239887.896237","246825.86666","247593.017323","248377.898106","249144.619999","249911.866813","250678.554152","251462.93976","240654.734111","241421.880268","242206.79921","242973.477835","243740.177493","244507.439631","245291.596582","246058.597011","250681.25868","Mapping"
"Blocked","Female","cave","11","F_greet.wav","None","729.142140823","438","254598.559488","246825.86666","247593.017323","248377.898106","249144.619999","249911.866813","250678.554152","251462.93976","240654.734111","241421.880268","242206.79921","242973.477835","243740.177493","244507.439631","245291.596582","246058.597011","251465.603124","Mapping"
"Blocked","Female","cave","11","F_greet.wav","None","734.4532442","438","254598.559488","246825.86666","247593.017323","248377.898106","249144.619999","249911.866813","250678.554152","251462.93976","255365.352893","241421.880268","242206.79921","242973.477835","243740.177493","244507.439631","245291.596582","246058.597011","254601.617369","Mapping"
"Blocked","Female","cave","11","F_cave.wav","None","739.638751224","438","254598.559488","246825.86666","247593.017323","248377.898106","249144.619999","249911.866813","250678.554152","251462.93976","255365.352893","256149.384247","242206.79921","242973.477835","243740.177493","244507.439631","245291.596582","246058.597011","255368.180313","Mapping"
"Blocked","Female","cave","11","F_cad.wav","space","600.772748116","438","254598.559488","246825.86666","247593.017323","248377.898106","249144.619999","249911.866813","250678.554152","251462.93976","255365.352893","256149.384247","256917.545991","242973.477835","243740.177493","244507.439631","245291.596582","246058.597011","256152.575837","Mapping"
"Blocked","Female","cave","11","F_cave.wav","None","728.365426508","438","254598.559488","246825.86666","247593.017323","248377.898106","249144.619999","249911.866813","250678.554152","251462.93976","255365.352893","256149.384247","256917.545991","257683.68287","243740.177493","244507.439631","245291.596582","246058.597011","256920.977056","Mapping"
"Blocked","Female","cave","11","F_cling.wav","None","734.814408846","438","254598.559488","246825.86666","247593.017323","248377.898106","249144.619999","249911.866813","250678.554152","251462.93976","255365.352893","256149.384247","256917.545991","257683.68287","258450.907449","244507.439631","245291.596582","246058.597011","257686.504281","Mapping"
"Blocked","Female","cave","11","F_dime.wav","space","409.633420888","438","254598.559488","246825.86666","247593.017323","248377.898106","249144.619999","249911.866813","250678.554152","251462.93976","255365.352893","256149.384247","256917.545991","257683.68287","258450.907449","259235.311386","245291.596582","246058.597011","258453.740278","Mapping"
"Blocked","Female","cave","11","F_cave.wav","None","724.65823068","438","254598.559488","246825.86666","247593.017323","248377.898106","249144.619999","249911.866813","250678.554152","251462.93976","255365.352893","256149.384247","256917.545991","257683.68287","258450.907449","259235.311386","260002.799477","246058.597011","259238.944065","Mapping"
"Blocked","Female","cave","11","F_reek.wav","space","561.15100348","438","254598.559488","246825.86666","247593.017323","248377.898106","249144.619999","249911.866813","250678.554152","251462.93976","255365.352893","256149.384247","256917.545991","257683.68287","258450.907449","259235.311386","260002.799477","260769.187848","260006.195987","Mapping"
"Blocked","Female","cave","11","F_romp.wav","None","734.224286251","438","254598.559488","261536.50347","247593.017323","248377.898106","249144.619999","249911.866813","250678.554152","251462.93976","255365.352893","256149.384247","256917.545991","257683.68287","258450.907449","259235.311386","260002.799477","260769.187848","260771.761071","Mapping"
"Blocked","Female","cave","11","F_gnash.wav","None","738.53091924","438","254598.559488","261536.50347","262303.67817","248377.898106","249144.619999","249911.866813","250678.554152","251462.93976","255365.352893","256149.384247","256917.545991","257683.68287","258450.907449","259235.311386","260002.799477","260769.187848","261539.366045","Mapping"
"Blocked","Female","cave","11","F_romp.wav","None","742.733890165","438","254598.559488","261536.50347","262303.67817","263087.982352","249144.619999","249911.866813","250678.554152","251462.93976","255365.352893","256149.384247","256917.545991","257683.68287","258450.907449","259235.311386","260002.799477","260769.187848","262306.845122","Mapping"
"Blocked","Female","cave","11","F_cave.wav","None","729.87618843","438","254598.559488","261536.50347","262303.67817","263087.982352","263854.857184","249911.866813","250678.554152","251462.93976","255365.352893","256149.384247","256917.545991","257683.68287","258450.907449","259235.311386","260002.799477","260769.187848","263090.874673","Mapping"
"Blocked","Female","cave","11","F_knife.wav","space","522.871156765","438","254598.559488","261536.50347","262303.67817","263087.982352","263854.857184","264622.496711","250678.554152","251462.93976","255365.352893","256149.384247","256917.545991","257683.68287","258450.907449","259235.311386","260002.799477","260769.187848","263857.512134","Mapping"
"Blocked","Female","cave","11","F_cad.wav","None","736.632551332","438","254598.559488","261536.50347","262303.67817","263087.982352","263854.857184","264622.496711","265389.650079","251462.93976","255365.352893","256149.384247","256917.545991","257683.68287","258450.907449","259235.311386","260002.799477","260769.187848","264625.910649","Mapping"
"Blocked","Female","cave","11","F_jaw.wav","None","741.560856244","438","254598.559488","261536.50347","262303.67817","263087.982352","263854.857184","264622.496711","265389.650079","266173.475311","255365.352893","256149.384247","256917.545991","257683.68287","258450.907449","259235.311386","260002.799477","260769.187848","265392.773762","Mapping"
"Blocked","Female","done","23","F_cling.wav","None","729.861765885","438","269309.121481","261536.50347","262303.67817","263087.982352","263854.857184","264622.496711","265389.650079","266173.475311","255365.352893","256149.384247","256917.545991","257683.68287","258450.907449","259235.311386","260002.799477","260769.187848","266176.157605","Mapping"
"Blocked","Female","done","23","F_jaw.wav","None","733.520886555","438","269309.121481","261536.50347","262303.67817","263087.982352","263854.857184","264622.496711","265389.650079","266173.475311","270076.03928","256149.384247","256917.545991","257683.68287","258450.907449","259235.311386","260002.799477","260769.187848","269312.28092","Mapping"
"Blocked","Female","done","23","F_cad.wav","None","738.529116421","438","269309.121481","261536.50347","262303.67817","263087.982352","263854.857184","264622.496711","265389.650079","266173.475311","270076.03928","270843.239521","256917.545991","257683.68287","258450.907449","259235.311386","260002.799477","260769.187848","270078.945423","Mapping"
"Blocked","Female","done","23","F_done.wav","None","742.755523988","438","269309.121481","261536.50347","262303.67817","263087.982352","263854.857184","264622.496711","265389.650079","266173.475311","270076.03928","270843.239521","271627.507645","257683.68287","258450.907449","259235.311386","260002.799477","260769.187848","270845.981608","Mapping"
"Blocked","Female","done","23","F_dime.wav","space","577.938849594","438","269309.121481","261536.50347","262303.67817","263087.982352","263854.857184","264622.496711","265389.650079","266173.475311","270076.03928","270843.239521","271627.507645","272394.37737","258450.907449","259235.311386","260002.799477","260769.187848","271630.454052","Mapping"
"Blocked","Female","done","23","F_done.wav","None","733.64648291","438","269309.121481","261536.50347","262303.67817","263087.982352","263854.857184","264622.496711","265389.650079","266173.475311","270076.03928","270843.239521","271627.507645","272394.37737","273161.620578","259235.311386","260002.799477","260769.187848","272397.507964","Mapping"
"Blocked","Female","done","23","F_cling.wav","None","738.112064402","438","269309.121481","261536.50347","262303.67817","263087.982352","263854.857184","264622.496711","265389.650079","266173.475311","270076.03928","270843.239521","271627.507645","272394.37737","273161.620578","273928.833438","260002.799477","260769.187848","273164.463322","Mapping"
"Blocked","Female","done","23","F_dime.wav","None","742.98478241","438","269309.121481","261536.50347","262303.67817","263087.982352","263854.857184","264622.496711","265389.650079","266173.475311","270076.03928","270843.239521","271627.507645","272394.37737","273161.620578","273928.833438","274713.027046","260769.187848","273931.383825","Mapping"
"Blocked","Female","done","23","F_done.wav","None","729.79686442","438","269309.121481","261536.50347","262303.67817","263087.982352","263854.857184","264622.496711","265389.650079","266173.475311","270076.03928","270843.239521","271627.507645","272394.37737","273161.620578","273928.833438","274713.027046","275480.182517","274715.974655","Mapping"
"Blocked","Female","done","23","F_gnash.wav","space","428.892029802","438","269309.121481","276247.628242","262303.67817","263087.982352","263854.857184","264622.496711","265389.650079","266173.475311","270076.03928","270843.239521","271627.507645","272394.37737","273161.620578","273928.833438","274713.027046","275480.182517","275483.475065","Mapping"
"Blocked","Female","done","23","F_reek.wav","None","736.704964544","438","269309.121481","276247.628242","277014.373271","263087.982352","263854.857184","264622.496711","265389.650079","266173.475311","270076.03928","270843.239521","271627.507645","272394.37737","273161.620578","273928.833438","274713.027046","275480.182517","276250.841766","Mapping"
"Blocked","Female","done","23","F_greet.wav","None","742.537983886","438","269309.121481","276247.628242","277014.373271","277798.617058","263854.857184","264622.496711","265389.650079","266173.475311","270076.03928","270843.239521","271627.507645","272394.37737","273161.620578","273928.833438","274713.027046","275480.182517","277016.982851","Mapping"
"Blocked","Female","done","23","F_done.wav","None","729.932676746","438","269309.121481","276247.628242","277014.373271","277798.617058","278565.535759","264622.496711","265389.650079","266173.475311","270076.03928","270843.239521","271627.507645","272394.37737","273161.620578","273928.833438","274713.027046","275480.182517","277801.576685","Mapping"
"Blocked","Female","done","23","F_knife.wav","space","602.385068818","438","269309.121481","276247.628242","277014.373271","277798.617058","278565.535759","279332.804206","265389.650079","266173.475311","270076.03928","270843.239521","271627.507645","272394.37737","273161.620578","273928.833438","274713.027046","275480.182517","278589.01116","Mapping"
"Blocked","Female","done","23","F_depth.wav","None","738.465416831","438","269309.121481","276247.628242","277014.373271","277798.617058","278565.535759","279332.804206","280099.902888","266173.475311","270076.03928","270843.239521","271627.507645","272394.37737","273161.620578","273928.833438","274713.027046","275480.182517","279335.238612","Mapping"
"Blocked","Female","done","23","F_priest.wav","None","742.316838143","438","269309.121481","276247.628242","277014.373271","277798.617058","278565.535759","279332.804206","280099.902888","280884.11182","270076.03928","270843.239521","271627.507645","272394.37737","273161.620578","273928.833438","274713.027046","275480.182517","280102.644675","Mapping"
"Blocked","Female","ball","2","F_gnash.wav","None","729.965728417","438","284019.955699","276247.628242","277014.373271","277798.617058","278565.535759","279332.804206","280099.902888","280884.11182","270076.03928","270843.239521","271627.507645","272394.37737","273161.620578","273928.833438","274713.027046","275480.182517","280887.00925","Mapping"
"Blocked","Female","ball","2","F_cling.wav","None","733.739027597","438","284019.955699","276247.628242","277014.373271","277798.617058","278565.535759","279332.804206","280099.902888","280884.11182","284786.706737","270843.239521","271627.507645","272394.37737","273161.620578","273928.833438","274713.027046","275480.182517","284023.09681","Mapping"
"Blocked","Female","ball","2","F_greet.wav","None","739.233417524","438","284019.955699","276247.628242","277014.373271","277798.617058","278565.535759","279332.804206","280099.902888","280884.11182","284786.706737","285570.958336","271627.507645","272394.37737","273161.620578","273928.833438","274713.027046","275480.182517","284789.633914","Mapping"
"Blocked","Female","ball","2","F_depth.wav","None","727.312280018","438","284019.955699","276247.628242","277014.373271","277798.617058","278565.535759","279332.804206","280099.902888","280884.11182","284786.706737","285570.958336","286337.828661","272394.37737","273161.620578","273928.833438","274713.027046","275480.182517","285573.681494","Mapping"
"Blocked","Female","ball","2","F_priest.wav","None","732.049486167","438","284019.955699","276247.628242","277014.373271","277798.617058","278565.535759","279332.804206","280099.902888","280884.11182","284786.706737","285570.958336","286337.828661","287105.045428","273161.620578","273928.833438","274713.027046","275480.182517","286340.592082","Mapping"
"Blocked","Female","ball","2","F_ball.wav","None","737.44291826","438","284019.955699","276247.628242","277014.373271","277798.617058","278565.535759","279332.804206","280099.902888","280884.11182","284786.706737","285570.958336","286337.828661","287105.045428","287872.209613","273928.833438","274713.027046","275480.182517","287107.718407","Mapping"
"Blocked","Female","ball","2","F_knife.wav","space","510.162488034","438","284019.955699","276247.628242","277014.373271","277798.617058","278565.535759","279332.804206","280099.902888","280884.11182","284786.706737","285570.958336","286337.828661","287105.045428","287872.209613","288656.457305","274713.027046","275480.182517","287875.22723","Mapping"
"Blocked","Female","ball","2","F_ball.wav","None","728.198665794","438","284019.955699","276247.628242","277014.373271","277798.617058","278565.535759","279332.804206","280099.902888","280884.11182","284786.706737","285570.958336","286337.828661","287105.045428","287872.209613","288656.457305","289423.287367","275480.182517","288659.451787","Mapping"
"Blocked","Female","ball","2","F_knife.wav","space","517.489743466","438","284019.955699","276247.628242","277014.373271","277798.617058","278565.535759","279332.804206","280099.902888","280884.11182","284786.706737","285570.958336","286337.828661","287105.045428","287872.209613","288656.457305","289423.287367","290190.57174","289425.945623","Mapping"
"Blocked","Female","ball","2","F_ball.wav","None","736.589283686","438","284019.955699","290957.822159","277014.373271","277798.617058","278565.535759","279332.804206","280099.902888","280884.11182","284786.706737","285570.958336","286337.828661","287105.045428","287872.209613","288656.457305","289423.287367","290190.57174","290193.265151","Mapping"
"Blocked","Female","ball","2","F_bluff.wav","space","552.596028632","438","284019.955699","290957.822159","291741.930735","277798.617058","278565.535759","279332.804206","280099.902888","280884.11182","284786.706737","285570.958336","286337.828661","287105.045428","287872.209613","288656.457305","289423.287367","290190.57174","290960.79681","Mapping"
"Blocked","Female","ball","2","F_jolt.wav","None","727.559266157","438","284019.955699","290957.822159","291741.930735","292508.923351","278565.535759","279332.804206","280099.902888","280884.11182","284786.706737","285570.958336","286337.828661","287105.045428","287872.209613","288656.457305","289423.287367","290190.57174","291744.814042","Mapping"
"Blocked","Female","ball","2","F_bluff.wav","None","732.768209818","438","284019.955699","290957.822159","291741.930735","292508.923351","293276.101958","279332.804206","280099.902888","280884.11182","284786.706737","285570.958336","286337.828661","287105.045428","287872.209613","288656.457305","289423.287367","290190.57174","292511.675954","Mapping"
"Blocked","Female","ball","2","F_ball.wav","None","737.733172042","438","284019.955699","290957.822159","291741.930735","292508.923351","293276.101958","294043.340959","280099.902888","280884.11182","284786.706737","285570.958336","286337.828661","287105.045428","287872.209613","288656.457305","289423.287367","290190.57174","293279.175463","Mapping"
"Blocked","Female","ball","2","F_knife.wav","space","507.25664504","438","284019.955699","290957.822159","291741.930735","292508.923351","293276.101958","294043.340959","294827.769535","280884.11182","284786.706737","285570.958336","286337.828661","287105.045428","287872.209613","288656.457305","289423.287367","290190.57174","294046.152455","Mapping"
"Blocked","Female","ball","2","F_romp.wav","None","727.909012952","438","284019.955699","290957.822159","291741.930735","292508.923351","293276.101958","294043.340959","294827.769535","295594.46048","284786.706737","285570.958336","286337.828661","287105.045428","287872.209613","288656.457305","289423.287367","290190.57174","294830.63812","Mapping"
"Blocked","Female","ball","5","F_depth.wav","None","733.667816265","438","298730.59972","290957.822159","291741.930735","292508.923351","293276.101958","294043.340959","294827.769535","295594.46048","284786.706737","285570.958336","286337.828661","287105.045428","287872.209613","288656.457305","289423.287367","290190.57174","295597.122642","Mapping"
"Blocked","Female","ball","5","F_romp.wav","None","733.268792432","438","298730.59972","290957.822159","291741.930735","292508.923351","293276.101958","294043.340959","294827.769535","295594.46048","299497.405143","285570.958336","286337.828661","287105.045428","287872.209613","288656.457305","289423.287367","290190.57174","298733.845995","Mapping"
"Blocked","Female","ball","5","F_priest.wav","None","739.124947944","438","298730.59972","290957.822159","291741.930735","292508.923351","293276.101958","294043.340959","294827.769535","295594.46048","299497.405143","300281.612273","286337.828661","287105.045428","287872.209613","288656.457305","289423.287367","290190.57174","299500.118686","Mapping"
"Blocked","Female","ball","5","F_romp.wav","None","726.49139665","438","298730.59972","290957.822159","291741.930735","292508.923351","293276.101958","294043.340959","294827.769535","295594.46048","299497.405143","300281.612273","301048.384344","287105.045428","287872.209613","288656.457305","289423.287367","290190.57174","300284.308989","Mapping"
"Blocked","Female","ball","5","F_bluff.wav","None","731.638443544","438","298730.59972","290957.822159","291741.930735","292508.923351","293276.101958","294043.340959","294827.769535","295594.46048","299497.405143","300281.612273","301048.384344","301815.663608","287872.209613","288656.457305","289423.287367","290190.57174","301051.096384","Mapping"
"Blocked","Female","ball","5","F_gnash.wav","None","735.894297144","438","298730.59972","290957.822159","291741.930735","292508.923351","293276.101958","294043.340959","294827.769535","295594.46048","299497.405143","300281.612273","301048.384344","301815.663608","302582.909821","288656.457305","289423.287367","290190.57174","301818.564043","Mapping"
"Blocked","Female","ball","5","F_ball.wav","None","741.165438045","438","298730.59972","290957.822159","291741.930735","292508.923351","293276.101958","294043.340959","294827.769535","295594.46048","299497.405143","300281.612273","301048.384344","301815.663608","302582.909821","303367.074584","289423.287367","290190.57174","302585.721016","Mapping"
"Blocked","Female","ball","5","F_cad.wav","space","372.178664122","438","298730.59972","290957.822159","291741.930735","292508.923351","293276.101958","294043.340959","294827.769535","295594.46048","299497.405143","300281.612273","301048.384344","301815.663608","302582.909821","303367.074584","304134.08613","290190.57174","303370.213892","Mapping"
"Blocked","Female","ball","5","F_ball.wav","None","732.297073242","438","298730.59972","290957.822159","291741.930735","292508.923351","293276.101958","294043.340959","294827.769535","295594.46048","299497.405143","300281.612273","301048.384344","301815.663608","302582.909821","303367.074584","304134.08613","304901.243103","304137.024424","Mapping"
"Blocked","Female","ball","5","F_cling.wav","space","394.119566528","438","298730.59972","305668.537692","291741.930735","292508.923351","293276.101958","294043.340959","294827.769535","295594.46048","299497.405143","300281.612273","301048.384344","301815.663608","302582.909821","303367.074584","304134.08613","304901.243103","304904.264327","Mapping"
"Blocked","Female","ball","5","F_greet.wav","None","740.218958319","438","298730.59972","305668.537692","306452.764953","292508.923351","293276.101958","294043.340959","294827.769535","295594.46048","299497.405143","300281.612273","301048.384344","301815.663608","302582.909821","303367.074584","304134.08613","304901.243103","305671.407478","Mapping"
"Blocked","Female","ball","5","F_ball.wav","None","728.274985111","438","298730.59972","305668.537692","306452.764953","307219.733531","293276.101958","294043.340959","294827.769535","295594.46048","299497.405143","300281.612273","301048.384344","301815.663608","302582.909821","303367.074584","304134.08613","304901.243103","306455.598683","Mapping"
"Blocked","Female","ball","5","F_lash.wav","space","482.960360227","438","298730.59972","305668.537692","306452.764953","307219.733531","307986.816289","294043.340959","294827.769535","295594.46048","299497.405143","300281.612273","301048.384344","301815.663608","302582.909821","303367.074584","304134.08613","304901.243103","307222.436858","Mapping"
