"Condition","Talker","Target","Trial","current_stimulus","response_response","response_time_response","subject_nr","time_Audio1","time_Audio10","time_Audio11","time_Audio12","time_Audio13","time_Audio14","time_Audio15","time_Audio16","time_Audio2","time_Audio3","time_Audio4","time_Audio5","time_Audio6","time_Audio7","time_Audio8","time_Audio9","time_response"
"Blocked","Female","cave","8","F_jaw.wav","NA","NA","306","41903.5091354","NA","NA","NA","NA","NA","NA","NA","NA","NA","NA","NA","NA","NA","NA","NA","NA"
"Blocked","Female","cave","8","F_bluff.wav","None","718.241493683","306","41903.5091354","NA","NA","NA","NA","NA","NA","NA","42670.2352036","NA","NA","NA","NA","NA","NA","NA","41918.1006975"
"Blocked","Female","cave","8","F_knife.wav","None","722.888619639","306","41903.5091354","NA","NA","NA","NA","NA","NA","NA","42670.2352036","43436.3787966","NA","NA","NA","NA","NA","NA","42680.2189043"
"Blocked","Female","cave","8","F_greet.wav","None","724.357484374","306","41903.5091354","NA","NA","NA","NA","NA","NA","NA","42670.2352036","43436.3787966","44203.4536083","NA","NA","NA","NA","NA","43445.4380805"
"Blocked","Female","cave","8","F_cave.wav","None","722.511742264","306","41903.5091354","NA","NA","NA","NA","NA","NA","NA","42670.2352036","43436.3787966","44203.4536083","44969.9020428","NA","NA","NA","NA","44213.6138449"
"Blocked","Female","cave","8","F_dime.wav","space","435.348643921","306","41903.5091354","NA","NA","NA","NA","NA","NA","NA","42670.2352036","43436.3787966","44203.4536083","44969.9020428","45735.9102196","NA","NA","NA","44979.5741006"
"Blocked","Female","cave","8","F_romp.wav","None","725.135045126","306","41903.5091354","NA","NA","NA","NA","NA","NA","NA","42670.2352036","43436.3787966","44203.4536083","44969.9020428","45735.9102196","46503.2945098","NA","NA","45744.8118269"
"Blocked","Female","cave","8","F_cave.wav","None","723.165326286","306","41903.5091354","NA","NA","NA","NA","NA","NA","NA","42670.2352036","43436.3787966","44203.4536083","44969.9020428","45735.9102196","46503.2945098","47269.7689142","NA","46513.4875183"
"Blocked","Female","cave","8","F_bluff.wav","space","447.506115772","306","41903.5091354","NA","NA","NA","NA","NA","NA","NA","42670.2352036","43436.3787966","44203.4536083","44969.9020428","45735.9102196","46503.2945098","47269.7689142","48020.0079023","47279.3364725"
"Blocked","Female","cave","8","F_cave.wav","None","735.419258941","306","41903.5091354","48785.9734138","NA","NA","NA","NA","NA","NA","42670.2352036","43436.3787966","44203.4536083","44969.9020428","45735.9102196","46503.2945098","47269.7689142","48020.0079023","48029.2928796"
"Blocked","Female","cave","8","F_cling.wav","space","427.592818625","306","41903.5091354","48785.9734138","49552.7542052","NA","NA","NA","NA","NA","42670.2352036","43436.3787966","44203.4536083","44969.9020428","45735.9102196","46503.2945098","47269.7689142","48020.0079023","48795.2083061"
"Blocked","Female","cave","8","F_jaw.wav","None","734.535343014","306","41903.5091354","48785.9734138","49552.7542052","50319.3263072","NA","NA","NA","NA","42670.2352036","43436.3787966","44203.4536083","44969.9020428","45735.9102196","46503.2945098","47269.7689142","48020.0079023","49561.9445769"
"Blocked","Female","cave","8","F_cave.wav","None","731.322144624","306","41903.5091354","48785.9734138","49552.7542052","50319.3263072","51085.7184725","NA","NA","NA","42670.2352036","43436.3787966","44203.4536083","44969.9020428","45735.9102196","46503.2945098","47269.7689142","48020.0079023","50328.4975104"
"Blocked","Female","cave","8","F_priest.wav","space","487.835727166","306","41903.5091354","48785.9734138","49552.7542052","50319.3263072","51085.7184725","51852.3097429","NA","NA","42670.2352036","43436.3787966","44203.4536083","44969.9020428","45735.9102196","46503.2945098","47269.7689142","48020.0079023","51094.9091534"
"Blocked","Female","cave","8","F_cling.wav","None","728.646901436","306","41903.5091354","48785.9734138","49552.7542052","50319.3263072","51085.7184725","51852.3097429","52619.7527754","NA","42670.2352036","43436.3787966","44203.4536083","44969.9020428","45735.9102196","46503.2945098","47269.7689142","48020.0079023","51861.1609559"
"Blocked","Female","cave","8","F_cad.wav","None","724.008431658","306","41903.5091354","48785.9734138","49552.7542052","50319.3263072","51085.7184725","51852.3097429","52619.7527754","53386.6624907","42670.2352036","43436.3787966","44203.4536083","44969.9020428","45735.9102196","46503.2945098","47269.7689142","48020.0079023","52629.0788725"
"Blocked","Female","ball","4","F_bluff.wav","None","723.87394309","306","56552.8509752","48785.9734138","49552.7542052","50319.3263072","51085.7184725","51852.3097429","52619.7527754","53386.6624907","42670.2352036","43436.3787966","44203.4536083","44969.9020428","45735.9102196","46503.2945098","47269.7689142","48020.0079023","53396.1697612"
"Blocked","Female","ball","4","F_greet.wav","None","719.07965187","306","56552.8509752","48785.9734138","49552.7542052","50319.3263072","51085.7184725","51852.3097429","52619.7527754","53386.6624907","57302.130301","43436.3787966","44203.4536083","44969.9020428","45735.9102196","46503.2945098","47269.7689142","48020.0079023","56563.0371817"
"Blocked","Female","ball","4","F_knife.wav","None","734.38477749","306","56552.8509752","48785.9734138","49552.7542052","50319.3263072","51085.7184725","51852.3097429","52619.7527754","53386.6624907","57302.130301","58069.1438974","44203.4536083","44969.9020428","45735.9102196","46503.2945098","47269.7689142","48020.0079023","57311.0779747"
"Blocked","Female","ball","4","F_ball.wav","None","731.631932314","306","56552.8509752","48785.9734138","49552.7542052","50319.3263072","51085.7184725","51852.3097429","52619.7527754","53386.6624907","57302.130301","58069.1438974","58836.4406927","44969.9020428","45735.9102196","46503.2945098","47269.7689142","48020.0079023","58078.344781"
"Blocked","Female","ball","4","F_greet.wav","space","465.122591704","306","56552.8509752","48785.9734138","49552.7542052","50319.3263072","51085.7184725","51852.3097429","52619.7527754","53386.6624907","57302.130301","58069.1438974","58836.4406927","59602.5496586","45735.9102196","46503.2945098","47269.7689142","48020.0079023","58845.4056797"
"Blocked","Female","ball","4","F_knife.wav","None","728.821582161","306","56552.8509752","48785.9734138","49552.7542052","50319.3263072","51085.7184725","51852.3097429","52619.7527754","53386.6624907","57302.130301","58069.1438974","58836.4406927","59602.5496586","60368.9962379","46503.2945098","47269.7689142","48020.0079023","59611.5214475"
"Blocked","Female","ball","4","F_depth.wav","None","725.795740262","306","56552.8509752","48785.9734138","49552.7542052","50319.3263072","51085.7184725","51852.3097429","52619.7527754","53386.6624907","57302.130301","58069.1438974","58836.4406927","59602.5496586","60368.9962379","61135.3043094","47269.7689142","48020.0079023","60378.2883263"
"Blocked","Female","ball","4","F_ball.wav","None","726.760349236","306","56552.8509752","48785.9734138","49552.7542052","50319.3263072","51085.7184725","51852.3097429","52619.7527754","53386.6624907","57302.130301","58069.1438974","58836.4406927","59602.5496586","60368.9962379","61135.3043094","61902.1747597","48020.0079023","61144.1651061"
"Blocked","Female","ball","4","F_cling.wav","space","391.317346133","306","56552.8509752","48785.9734138","49552.7542052","50319.3263072","51085.7184725","51852.3097429","52619.7527754","53386.6624907","57302.130301","58069.1438974","58836.4406927","59602.5496586","60368.9962379","61135.3043094","61902.1747597","62669.3914803","61911.1295445"
"Blocked","Female","ball","4","F_bluff.wav","None","719.340900425","306","56552.8509752","63418.6717337","49552.7542052","50319.3263072","51085.7184725","51852.3097429","52619.7527754","53386.6624907","57302.130301","58069.1438974","58836.4406927","59602.5496586","60368.9962379","61135.3043094","61902.1747597","62669.3914803","62678.84681"
"Blocked","Female","ball","4","F_ball.wav","None","734.431771096","306","56552.8509752","63418.6717337","64185.7700422","50319.3263072","51085.7184725","51852.3097429","52619.7527754","53386.6624907","57302.130301","58069.1438974","58836.4406927","59602.5496586","60368.9962379","61135.3043094","61902.1747597","62669.3914803","63427.5714862"
"Blocked","Female","ball","4","F_bluff.wav","space","458.988978993","306","56552.8509752","63418.6717337","64185.7700422","64952.4240741","51085.7184725","51852.3097429","52619.7527754","53386.6624907","57302.130301","58069.1438974","58836.4406927","59602.5496586","60368.9962379","61135.3043094","61902.1747597","62669.3914803","64195.3561506"
"Blocked","Female","ball","4","F_gnash.wav","None","727.628496941","306","56552.8509752","63418.6717337","64185.7700422","64952.4240741","65718.9204297","51852.3097429","52619.7527754","53386.6624907","57302.130301","58069.1438974","58836.4406927","59602.5496586","60368.9962379","61135.3043094","61902.1747597","62669.3914803","64961.8614721"
"Blocked","Female","ball","4","F_greet.wav","None","733.830436599","306","56552.8509752","63418.6717337","64185.7700422","64952.4240741","65718.9204297","66485.7710931","52619.7527754","53386.6624907","57302.130301","58069.1438974","58836.4406927","59602.5496586","60368.9962379","61135.3043094","61902.1747597","62669.3914803","65722.7253783"
"Blocked","Female","ball","4","F_ball.wav","None","724.905641284","306","56552.8509752","63418.6717337","64185.7700422","64952.4240741","65718.9204297","66485.7710931","67252.8069494","53386.6624907","57302.130301","58069.1438974","58836.4406927","59602.5496586","60368.9962379","61135.3043094","61902.1747597","62669.3914803","66495.3330867"
"Blocked","Female","ball","4","F_priest.wav","space","439.782443922","306","56552.8509752","63418.6717337","64185.7700422","64952.4240741","65718.9204297","66485.7710931","67252.8069494","68001.9932156","57302.130301","58069.1438974","58836.4406927","59602.5496586","60368.9962379","61135.3043094","61902.1747597","62669.3914803","67262.4923014"
"Blocked","Female","ball","3","F_gnash.wav","None","735.858897679","306","71136.0753779","63418.6717337","64185.7700422","64952.4240741","65718.9204297","66485.7710931","67252.8069494","68001.9932156","57302.130301","58069.1438974","58836.4406927","59602.5496586","60368.9962379","61135.3043094","61902.1747597","62669.3914803","68011.6148787"
"Blocked","Female","ball","3","F_jolt.wav","None","719.114588108","306","71136.0753779","63418.6717337","64185.7700422","64952.4240741","65718.9204297","66485.7710931","67252.8069494","68001.9932156","71902.6740687","58069.1438974","58836.4406927","59602.5496586","60368.9962379","61135.3043094","61902.1747597","62669.3914803","71145.8550268"
"Blocked","Female","ball","3","F_ball.wav","None","719.673257321","306","71136.0753779","63418.6717337","64185.7700422","64952.4240741","65718.9204297","66485.7710931","67252.8069494","68001.9932156","71902.6740687","72652.5299954","58836.4406927","59602.5496586","60368.9962379","61135.3043094","61902.1747597","62669.3914803","71912.3417977"
"Blocked","Female","ball","3","F_greet.wav","space","416.554232128","306","71136.0753779","63418.6717337","64185.7700422","64952.4240741","65718.9204297","66485.7710931","67252.8069494","68001.9932156","71902.6740687","72652.5299954","73418.2095253","59602.5496586","60368.9962379","61135.3043094","61902.1747597","62669.3914803","72661.5364114"
"Blocked","Female","ball","3","F_park.wav","None","731.957179029","306","71136.0753779","63418.6717337","64185.7700422","64952.4240741","65718.9204297","66485.7710931","67252.8069494","68001.9932156","71902.6740687","72652.5299954","73418.2095253","74185.3251471","60368.9962379","61135.3043094","61902.1747597","62669.3914803","73427.4233938"
"Blocked","Female","ball","3","F_dime.wav","None","731.57968279","306","71136.0753779","63418.6717337","64185.7700422","64952.4240741","65718.9204297","66485.7710931","67252.8069494","68001.9932156","71902.6740687","72652.5299954","73418.2095253","74185.3251471","74952.109958","61135.3043094","61902.1747597","62669.3914803","74194.8231426"
"Blocked","Female","ball","3","F_ball.wav","None","728.792211041","306","71136.0753779","63418.6717337","64185.7700422","64952.4240741","65718.9204297","66485.7710931","67252.8069494","68001.9932156","71902.6740687","72652.5299954","73418.2095253","74185.3251471","74952.109958","75718.6802048","61902.1747597","62669.3914803","74961.5996056"
"Blocked","Female","ball","3","F_romp.wav","space","469.888439402","306","71136.0753779","63418.6717337","64185.7700422","64952.4240741","65718.9204297","66485.7710931","67252.8069494","68001.9932156","71902.6740687","72652.5299954","73418.2095253","74185.3251471","74952.109958","75718.6802048","76485.1641934","62669.3914803","75728.1312062"
"Blocked","Female","ball","3","F_reek.wav","None","723.857866134","306","71136.0753779","63418.6717337","64185.7700422","64952.4240741","65718.9204297","66485.7710931","67252.8069494","68001.9932156","71902.6740687","72652.5299954","73418.2095253","74185.3251471","74952.109958","75718.6802048","76485.1641934","77251.5532672","76494.0450867"
"Blocked","Female","ball","3","F_romp.wav","None","724.457345903","306","71136.0753779","78018.9765128","64185.7700422","64952.4240741","65718.9204297","66485.7710931","67252.8069494","68001.9932156","71902.6740687","72652.5299954","73418.2095253","74185.3251471","74952.109958","75718.6802048","76485.1641934","77251.5532672","77260.5581372"
"Blocked","Female","ball","3","F_ball.wav","None","719.857522286","306","71136.0753779","78018.9765128","78768.3306579","64952.4240741","65718.9204297","66485.7710931","67252.8069494","68001.9932156","71902.6740687","72652.5299954","73418.2095253","74185.3251471","74952.109958","75718.6802048","76485.1641934","77251.5532672","78028.7264814"
"Blocked","Female","ball","3","F_knife.wav","space","516.51923405","306","71136.0753779","78018.9765128","78768.3306579","79534.9509902","65718.9204297","66485.7710931","67252.8069494","68001.9932156","71902.6740687","72652.5299954","73418.2095253","74185.3251471","74952.109958","75718.6802048","76485.1641934","77251.5532672","78777.39798"
"Blocked","Female","ball","3","F_ball.wav","None","732.270985842","306","71136.0753779","78018.9765128","78768.3306579","79534.9509902","80301.9046076","66485.7710931","67252.8069494","68001.9932156","71902.6740687","72652.5299954","73418.2095253","74185.3251471","74952.109958","75718.6802048","76485.1641934","77251.5532672","79543.9385469"
"Blocked","Female","ball","3","F_depth.wav","space","582.312043756","306","71136.0753779","78018.9765128","78768.3306579","79534.9509902","80301.9046076","81068.0553117","67252.8069494","68001.9932156","71902.6740687","72652.5299954","73418.2095253","74185.3251471","74952.109958","75718.6802048","76485.1641934","77251.5532672","80311.5534773"
"Blocked","Female","ball","3","F_priest.wav","None","732.089812402","306","71136.0753779","78018.9765128","78768.3306579","79534.9509902","80301.9046076","81068.0553117","81835.7194001","68001.9932156","71902.6740687","72652.5299954","73418.2095253","74185.3251471","74952.109958","75718.6802048","76485.1641934","77251.5532672","81072.0021692"
"Blocked","Female","ball","3","F_lash.wav","None","722.604802344","306","71136.0753779","78018.9765128","78768.3306579","79534.9509902","80301.9046076","81068.0553117","81835.7194001","82601.8676306","71902.6740687","72652.5299954","73418.2095253","74185.3251471","74952.109958","75718.6802048","76485.1641934","77251.5532672","81845.3290057"
"Blocked","Female","tile","13","F_greet.wav","None","724.039348308","306","85718.8468473","78018.9765128","78768.3306579","79534.9509902","80301.9046076","81068.0553117","81835.7194001","82601.8676306","71902.6740687","72652.5299954","73418.2095253","74185.3251471","74952.109958","75718.6802048","76485.1641934","77251.5532672","82611.0029705"
"Blocked","Female","tile","13","F_tile.wav","None","720.245839097","306","85718.8468473","78018.9765128","78768.3306579","79534.9509902","80301.9046076","81068.0553117","81835.7194001","82601.8676306","86484.7777318","72652.5299954","73418.2095253","74185.3251471","74952.109958","75718.6802048","76485.1641934","77251.5532672","85728.6020718"
"Blocked","Female","tile","13","F_priest.wav","space","535.93198536","306","85718.8468473","78018.9765128","78768.3306579","79534.9509902","80301.9046076","81068.0553117","81835.7194001","82601.8676306","86484.7777318","87234.9403547","73418.2095253","74185.3251471","74952.109958","75718.6802048","76485.1641934","77251.5532672","86493.7380813"
"Blocked","Female","tile","13","F_jaw.wav","None","735.582500231","306","85718.8468473","78018.9765128","78768.3306579","79534.9509902","80301.9046076","81068.0553117","81835.7194001","82601.8676306","86484.7777318","87234.9403547","88001.5217322","74185.3251471","74952.109958","75718.6802048","76485.1641934","77251.5532672","87243.8778258"
"Blocked","Female","tile","13","F_jolt.wav","None","732.897053938","306","85718.8468473","78018.9765128","78768.3306579","79534.9509902","80301.9046076","81068.0553117","81835.7194001","82601.8676306","86484.7777318","87234.9403547","88001.5217322","88767.8613388","74952.109958","75718.6802048","76485.1641934","77251.5532672","88010.852776"
"Blocked","Female","tile","13","F_greet.wav","None","731.028433423","306","85718.8468473","78018.9765128","78768.3306579","79534.9509902","80301.9046076","81068.0553117","81835.7194001","82601.8676306","86484.7777318","87234.9403547","88001.5217322","88767.8613388","89535.052707","75718.6802048","76485.1641934","77251.5532672","88776.7403768"
"Blocked","Female","tile","13","F_jaw.wav","None","727.171235252","306","85718.8468473","78018.9765128","78768.3306579","79534.9509902","80301.9046076","81068.0553117","81835.7194001","82601.8676306","86484.7777318","87234.9403547","88001.5217322","88767.8613388","89535.052707","90301.1264279","76485.1641934","77251.5532672","89544.5043272"
"Blocked","Female","tile","13","F_cad.wav","None","725.81583634","306","85718.8468473","78018.9765128","78768.3306579","79534.9509902","80301.9046076","81068.0553117","81835.7194001","82601.8676306","86484.7777318","87234.9403547","88001.5217322","88767.8613388","89535.052707","90301.1264279","91068.5957395","77251.5532672","90309.8128536"
"Blocked","Female","tile","13","F_tile.wav","None","721.408625599","306","85718.8468473","78018.9765128","78768.3306579","79534.9509902","80301.9046076","81068.0553117","81835.7194001","82601.8676306","86484.7777318","87234.9403547","88001.5217322","88767.8613388","89535.052707","90301.1264279","91068.5957395","91818.0618039","91078.2034905"
"Blocked","Female","tile","13","F_gnash.wav","space","658.839216921","306","85718.8468473","92584.3352485","78768.3306579","79534.9509902","80301.9046076","81068.0553117","81835.7194001","82601.8676306","86484.7777318","87234.9403547","88001.5217322","88767.8613388","89535.052707","90301.1264279","91068.5957395","91818.0618039","91826.6666089"
"Blocked","Female","tile","13","F_greet.wav","None","734.098795336","306","85718.8468473","92584.3352485","93351.0402935","79534.9509902","80301.9046076","81068.0553117","81835.7194001","82601.8676306","86484.7777318","87234.9403547","88001.5217322","88767.8613388","89535.052707","90301.1264279","91068.5957395","91818.0618039","92593.0699045"
"Blocked","Female","tile","13","F_tile.wav","None","731.68232711","306","85718.8468473","92584.3352485","93351.0402935","94117.7530675","80301.9046076","81068.0553117","81835.7194001","82601.8676306","86484.7777318","87234.9403547","88001.5217322","88767.8613388","89535.052707","90301.1264279","91068.5957395","91818.0618039","93359.8627532"
"Blocked","Female","tile","13","F_depth.wav","space","654.429533053","306","85718.8468473","92584.3352485","93351.0402935","94117.7530675","94885.0000864","81068.0553117","81835.7194001","82601.8676306","86484.7777318","87234.9403547","88001.5217322","88767.8613388","89535.052707","90301.1264279","91068.5957395","91818.0618039","94127.0157848"
"Blocked","Female","tile","13","F_gnash.wav","None","724.936867598","306","85718.8468473","92584.3352485","93351.0402935","94117.7530675","94885.0000864","95651.8510594","81835.7194001","82601.8676306","86484.7777318","87234.9403547","88001.5217322","88767.8613388","89535.052707","90301.1264279","91068.5957395","91818.0618039","94894.4987003"
"Blocked","Female","tile","13","F_tile.wav","None","722.384673543","306","85718.8468473","92584.3352485","93351.0402935","94117.7530675","94885.0000864","95651.8510594","96418.0889493","82601.8676306","86484.7777318","87234.9403547","88001.5217322","88767.8613388","89535.052707","90301.1264279","91068.5957395","91818.0618039","95661.391411"
"Blocked","Female","tile","13","F_gnash.wav","space","546.107680071","306","85718.8468473","92584.3352485","93351.0402935","94117.7530675","94885.0000864","95651.8510594","96418.0889493","97167.9074666","86484.7777318","87234.9403547","88001.5217322","88767.8613388","89535.052707","90301.1264279","91068.5957395","91818.0618039","96427.2960159"
"Blocked","Female","done","24","F_cad.wav","None","733.93277172","306","100301.809692","92584.3352485","93351.0402935","94117.7530675","94885.0000864","95651.8510594","96418.0889493","97167.9074666","86484.7777318","87234.9403547","88001.5217322","88767.8613388","89535.052707","90301.1264279","91068.5957395","91818.0618039","97177.266954"
"Blocked","Female","done","24","F_cling.wav","None","719.651615713","306","100301.809692","92584.3352485","93351.0402935","94117.7530675","94885.0000864","95651.8510594","96418.0889493","97167.9074666","101051.120244","87234.9403547","88001.5217322","88767.8613388","89535.052707","90301.1264279","91068.5957395","91818.0618039","100311.739907"
"Blocked","Female","done","24","F_bluff.wav","None","734.587901738","306","100301.809692","92584.3352485","93351.0402935","94117.7530675","94885.0000864","95651.8510594","96418.0889493","97167.9074666","101051.120244","101817.455523","88001.5217322","88767.8613388","89535.052707","90301.1264279","91068.5957395","91818.0618039","101060.772515"
"Blocked","Female","done","24","F_done.wav","None","733.021031134","306","100301.809692","92584.3352485","93351.0402935","94117.7530675","94885.0000864","95651.8510594","96418.0889493","97167.9074666","101051.120244","101817.455523","102584.391826","88767.8613388","89535.052707","90301.1264279","91068.5957395","91818.0618039","101826.325286"
"Blocked","Female","done","24","F_priest.wav","space","362.968361005","306","100301.809692","92584.3352485","93351.0402935","94117.7530675","94885.0000864","95651.8510594","96418.0889493","97167.9074666","101051.120244","101817.455523","102584.391826","103351.270006","89535.052707","90301.1264279","91068.5957395","91818.0618039","102594.257424"
"Blocked","Female","done","24","F_priest.wav","None","730.012193322","306","100301.809692","92584.3352485","93351.0402935","94117.7530675","94885.0000864","95651.8510594","96418.0889493","97167.9074666","101051.120244","101817.455523","102584.391826","103351.270006","104117.61425","90301.1264279","91068.5957395","91818.0618039","103360.745742"
"Blocked","Female","done","24","F_done.wav","None","727.860992309","306","100301.809692","92584.3352485","93351.0402935","94117.7530675","94885.0000864","95651.8510594","96418.0889493","97167.9074666","101051.120244","101817.455523","102584.391826","103351.270006","104117.61425","104884.059902","91068.5957395","91818.0618039","104126.821317"
"Blocked","Female","done","24","F_park.wav","space","448.145787232","306","100301.809692","92584.3352485","93351.0402935","94117.7530675","94885.0000864","95651.8510594","96418.0889493","97167.9074666","101051.120244","101817.455523","102584.391826","103351.270006","104117.61425","104884.059902","105651.583009","91818.0618039","104893.01345"
"Blocked","Female","done","24","F_done.wav","None","720.619934145","306","100301.809692","92584.3352485","93351.0402935","94117.7530675","94885.0000864","95651.8510594","96418.0889493","97167.9074666","101051.120244","101817.455523","102584.391826","103351.270006","104117.61425","104884.059902","105651.583009","106418.044738","105661.696252"
"Blocked","Female","done","24","F_jaw.wav","space","617.313119583","306","100301.809692","107167.517913","93351.0402935","94117.7530675","94885.0000864","95651.8510594","96418.0889493","97167.9074666","101051.120244","101817.455523","102584.391826","103351.270006","104117.61425","104884.059902","105651.583009","106418.044738","106427.769045"
"Blocked","Female","done","24","F_lash.wav","None","732.895507943","306","100301.809692","107167.517913","107934.38589","94117.7530675","94885.0000864","95651.8510594","96418.0889493","97167.9074666","101051.120244","101817.455523","102584.391826","103351.270006","104117.61425","104884.059902","105651.583009","106418.044738","107177.182242"
"Blocked","Female","done","24","F_done.wav","None","730.513047893","306","100301.809692","107167.517913","107934.38589","108701.103302","94885.0000864","95651.8510594","96418.0889493","97167.9074666","101051.120244","101817.455523","102584.391826","103351.270006","104117.61425","104884.059902","105651.583009","106418.044738","107943.443628"
"Blocked","Female","done","24","F_depth.wav","space","550.46325922","306","100301.809692","107167.517913","107934.38589","108701.103302","109467.273793","95651.8510594","96418.0889493","97167.9074666","101051.120244","101817.455523","102584.391826","103351.270006","104117.61425","104884.059902","105651.583009","106418.044738","108710.589549"
"Blocked","Female","done","24","F_lash.wav","None","725.367849693","306","100301.809692","107167.517913","107934.38589","108701.103302","109467.273793","110234.775567","96418.0889493","97167.9074666","101051.120244","101817.455523","102584.391826","103351.270006","104117.61425","104884.059902","105651.583009","106418.044738","109476.467566"
"Blocked","Female","done","24","F_reek.wav","None","720.655179583","306","100301.809692","107167.517913","107934.38589","108701.103302","109467.273793","110234.775567","111001.564088","97167.9074666","101051.120244","101817.455523","102584.391826","103351.270006","104117.61425","104884.059902","105651.583009","106418.044738","110245.079877"
"Blocked","Female","done","24","F_knife.wav","None","718.288796023","306","100301.809692","107167.517913","107934.38589","108701.103302","109467.273793","110234.775567","111001.564088","111750.944512","101051.120244","101817.455523","102584.391826","103351.270006","104117.61425","104884.059902","105651.583009","106418.044738","111011.519036"
"Blocked","Female","ball","1","F_dime.wav","None","739.428877365","306","114884.487793","107167.517913","107934.38589","108701.103302","109467.273793","110234.775567","111001.564088","111750.944512","101051.120244","101817.455523","102584.391826","103351.270006","104117.61425","104884.059902","105651.583009","106418.044738","111754.527478"
"Blocked","Female","ball","1","F_knife.wav","None","719.551444519","306","114884.487793","107167.517913","107934.38589","108701.103302","109467.273793","110234.775567","111001.564088","111750.944512","115633.679933","101817.455523","102584.391826","103351.270006","104117.61425","104884.059902","105651.583009","106418.044738","114894.330821"
"Blocked","Female","ball","1","F_cad.wav","None","735.43719016","306","114884.487793","107167.517913","107934.38589","108701.103302","109467.273793","110234.775567","111001.564088","111750.944512","115633.679933","116400.632004","102584.391826","103351.270006","104117.61425","104884.059902","105651.583009","106418.044738","115642.946669"
"Blocked","Female","ball","1","F_lash.wav","None","732.524813619","306","114884.487793","107167.517913","107934.38589","108701.103302","109467.273793","110234.775567","111001.564088","111750.944512","115633.679933","116400.632004","117167.306132","103351.270006","104117.61425","104884.059902","105651.583009","106418.044738","116409.725297"
"Blocked","Female","ball","1","F_ball.wav","None","729.396327864","306","114884.487793","107167.517913","107934.38589","108701.103302","109467.273793","110234.775567","111001.564088","111750.944512","115633.679933","116400.632004","117167.306132","117934.02849","104117.61425","104884.059902","105651.583009","106418.044738","117176.773211"
"Blocked","Female","ball","1","F_greet.wav","space","437.475730199","306","114884.487793","107167.517913","107934.38589","108701.103302","109467.273793","110234.775567","111001.564088","111750.944512","115633.679933","116400.632004","117167.306132","117934.02849","118701.168227","104884.059902","105651.583009","106418.044738","117943.269875"
"Blocked","Female","ball","1","F_ball.wav","None","728.931646328","306","114884.487793","107167.517913","107934.38589","108701.103302","109467.273793","110234.775567","111001.564088","111750.944512","115633.679933","116400.632004","117167.306132","117934.02849","118701.168227","119467.281522","105651.583009","106418.044738","118705.651803"
"Blocked","Female","ball","1","F_jolt.wav","space","663.684212137","306","114884.487793","107167.517913","107934.38589","108701.103302","109467.273793","110234.775567","111001.564088","111750.944512","115633.679933","116400.632004","117167.306132","117934.02849","118701.168227","119467.281522","120217.156618","106418.044738","119477.013249"
"Blocked","Female","ball","1","F_cad.wav","None","735.927842092","306","114884.487793","107167.517913","107934.38589","108701.103302","109467.273793","110234.775567","111001.564088","111750.944512","115633.679933","116400.632004","117167.306132","117934.02849","118701.168227","119467.281522","120217.156618","120983.664722","120226.427683"
"Blocked","Female","ball","1","F_dime.wav","None","734.102505725","306","114884.487793","121750.181791","107934.38589","108701.103302","109467.273793","110234.775567","111001.564088","111750.944512","115633.679933","116400.632004","117167.306132","117934.02849","118701.168227","119467.281522","120217.156618","120983.664722","120992.32023"
"Blocked","Female","ball","1","F_ball.wav","None","731.583701912","306","114884.487793","121750.181791","122516.751111","108701.103302","109467.273793","110234.775567","111001.564088","111750.944512","115633.679933","116400.632004","117167.306132","117934.02849","118701.168227","119467.281522","120217.156618","120983.664722","121758.845339"
"Blocked","Female","ball","1","F_jaw.wav","space","566.865317989","306","114884.487793","121750.181791","122516.751111","123283.880645","109467.273793","110234.775567","111001.564088","111750.944512","115633.679933","116400.632004","117167.306132","117934.02849","118701.168227","119467.281522","120217.156618","120983.664722","122525.734958"
"Blocked","Female","ball","1","F_jaw.wav","None","724.966238253","306","114884.487793","121750.181791","122516.751111","123283.880645","124051.247932","110234.775567","111001.564088","111750.944512","115633.679933","116400.632004","117167.306132","117934.02849","118701.168227","119467.281522","120217.156618","120983.664722","123293.128832"
"Blocked","Female","ball","1","F_jolt.wav","None","720.54820694","306","114884.487793","121750.181791","122516.751111","123283.880645","124051.247932","124817.336493","111001.564088","111750.944512","115633.679933","116400.632004","117167.306132","117934.02849","118701.168227","119467.281522","120217.156618","120983.664722","124061.506175"
"Blocked","Female","ball","1","F_ball.wav","None","719.204246998","306","114884.487793","121750.181791","122516.751111","123283.880645","124051.247932","124817.336493","125566.933644","111750.944512","115633.679933","116400.632004","117167.306132","117934.02849","118701.168227","119467.281522","120217.156618","120983.664722","124826.969286"
"Blocked","Female","ball","1","F_dime.wav","space","588.202649262","306","114884.487793","121750.181791","122516.751111","123283.880645","124051.247932","124817.336493","125566.933644","126334.005365","115633.679933","116400.632004","117167.306132","117934.02849","118701.168227","119467.281522","120217.156618","120983.664722","125576.317247"
"Blocked","Female","cave","10","F_cling.wav","None","730.500062928","306","129467.168675","121750.181791","122516.751111","123283.880645","124051.247932","124817.336493","125566.933644","126334.005365","115633.679933","116400.632004","117167.306132","117934.02849","118701.168227","119467.281522","120217.156618","120983.664722","126343.366707"
"Blocked","Female","cave","10","F_reek.wav","None","720.362705644","306","129467.168675","121750.181791","122516.751111","123283.880645","124051.247932","124817.336493","125566.933644","126334.005365","130216.47459","116400.632004","117167.306132","117934.02849","118701.168227","119467.281522","120217.156618","120983.664722","129476.945851"
"Blocked","Female","cave","10","F_cave.wav","None","734.709714539","306","129467.168675","121750.181791","122516.751111","123283.880645","124051.247932","124817.336493","125566.933644","126334.005365","130216.47459","130983.491587","117167.306132","117934.02849","118701.168227","119467.281522","120217.156618","120983.664722","130226.599272"
"Blocked","Female","cave","10","F_jolt.wav","space","467.826896813","306","129467.168675","121750.181791","122516.751111","123283.880645","124051.247932","124817.336493","125566.933644","126334.005365","130216.47459","130983.491587","131750.345652","117934.02849","118701.168227","119467.281522","120217.156618","120983.664722","130992.545615"
"Blocked","Female","cave","10","F_depth.wav","None","729.52679731","306","129467.168675","121750.181791","122516.751111","123283.880645","124051.247932","124817.336493","125566.933644","126334.005365","130216.47459","130983.491587","131750.345652","132516.836133","118701.168227","119467.281522","120217.156618","120983.664722","131759.866525"
"Blocked","Female","cave","10","F_jolt.wav","None","726.709026843","306","129467.168675","121750.181791","122516.751111","123283.880645","124051.247932","124817.336493","125566.933644","126334.005365","130216.47459","130983.491587","131750.345652","132516.836133","133282.916655","119467.281522","120217.156618","120983.664722","132526.259309"
"Blocked","Female","cave","10","F_cave.wav","None","727.96672862","306","129467.168675","121750.181791","122516.751111","123283.880645","124051.247932","124817.336493","125566.933644","126334.005365","130216.47459","130983.491587","131750.345652","132516.836133","133282.916655","134050.715541","120217.156618","120983.664722","133291.697687"
"Blocked","Female","cave","10","F_romp.wav","space","535.876643844","306","129467.168675","121750.181791","122516.751111","123283.880645","124051.247932","124817.336493","125566.933644","126334.005365","130216.47459","130983.491587","131750.345652","132516.836133","133282.916655","134050.715541","134816.510083","120983.664722","134060.386363"
"Blocked","Female","cave","10","F_depth.wav","None","721.525182482","306","129467.168675","121750.181791","122516.751111","123283.880645","124051.247932","124817.336493","125566.933644","126334.005365","130216.47459","130983.491587","131750.345652","132516.836133","133282.916655","134050.715541","134816.510083","135566.234303","134825.380464"
"Blocked","Female","cave","10","F_bluff.wav","None","735.761199612","306","129467.168675","136333.626941","122516.751111","123283.880645","124051.247932","124817.336493","125566.933644","126334.005365","130216.47459","130983.491587","131750.345652","132516.836133","133282.916655","134050.715541","134816.510083","135566.234303","135575.345837"
"Blocked","Female","cave","10","F_greet.wav","None","732.397745363","306","129467.168675","136333.626941","137100.207391","123283.880645","124051.247932","124817.336493","125566.933644","126334.005365","130216.47459","130983.491587","131750.345652","132516.836133","133282.916655","134050.715541","134816.510083","135566.234303","136342.848848"
"Blocked","Female","cave","10","F_cave.wav","None","729.480422568","306","129467.168675","136333.626941","137100.207391","137866.74332","124051.247932","124817.336493","125566.933644","126334.005365","130216.47459","130983.491587","131750.345652","132516.836133","133282.916655","134050.715541","134816.510083","135566.234303","137109.687454"
"Blocked","Female","cave","10","F_bluff.wav","space","592.261735816","306","129467.168675","136333.626941","137100.207391","137866.74332","138633.881202","124817.336493","125566.933644","126334.005365","130216.47459","130983.491587","131750.345652","132516.836133","133282.916655","134050.715541","134816.510083","135566.234303","137875.866911"
"Blocked","Female","cave","10","F_jolt.wav","None","723.184804432","306","129467.168675","136333.626941","137100.207391","137866.74332","138633.881202","139400.646535","125566.933644","126334.005365","130216.47459","130983.491587","131750.345652","132516.836133","133282.916655","134050.715541","134816.510083","135566.234303","138643.61633"
"Blocked","Female","cave","10","F_cave.wav","None","719.82042212","306","129467.168675","136333.626941","137100.207391","137866.74332","138633.881202","139400.646535","140149.758909","126334.005365","130216.47459","130983.491587","131750.345652","132516.836133","133282.916655","134050.715541","134816.510083","135566.234303","139411.040194"
"Blocked","Female","cave","10","F_knife.wav","space","620.974304155","306","129467.168675","136333.626941","137100.207391","137866.74332","138633.881202","139400.646535","140149.758909","140916.682228","130216.47459","130983.491587","131750.345652","132516.836133","133282.916655","134050.715541","134816.510083","135566.234303","140159.087789"
"Blocked","Female","tile","16","F_romp.wav","None","732.863972895","306","144050.450274","136333.626941","137100.207391","137866.74332","138633.881202","139400.646535","140149.758909","140916.682228","130216.47459","130983.491587","131750.345652","132516.836133","133282.916655","134050.715541","134816.510083","135566.234303","140925.833644"
"Blocked","Female","tile","16","F_gnash.wav","None","719.708502758","306","144050.450274","136333.626941","137100.207391","137866.74332","138633.881202","139400.646535","140149.758909","140916.682228","144799.406827","130983.491587","131750.345652","132516.836133","133282.916655","134050.715541","134816.510083","135566.234303","144060.43583"
"Blocked","Female","tile","16","F_tile.wav","None","736.298536416","306","144050.450274","136333.626941","137100.207391","137866.74332","138633.881202","139400.646535","140149.758909","140916.682228","144799.406827","145566.521212","131750.345652","132516.836133","133282.916655","134050.715541","134816.510083","135566.234303","144808.18013"
"Blocked","Female","tile","16","F_bluff.wav","space","499.96228097","306","144050.450274","136333.626941","137100.207391","137866.74332","138633.881202","139400.646535","140149.758909","140916.682228","144799.406827","145566.521212","146333.445768","132516.836133","133282.916655","134050.715541","134816.510083","135566.234303","145575.933259"
"Blocked","Female","tile","16","F_greet.wav","None","729.373758659","306","144050.450274","136333.626941","137100.207391","137866.74332","138633.881202","139400.646535","140149.758909","140916.682228","144799.406827","145566.521212","146333.445768","147099.351919","133282.916655","134050.715541","134816.510083","135566.234303","146342.774956"
"Blocked","Female","tile","16","F_park.wav","None","728.450269438","306","144050.450274","136333.626941","137100.207391","137866.74332","138633.881202","139400.646535","140149.758909","140916.682228","144799.406827","145566.521212","146333.445768","147099.351919","147866.109832","134050.715541","134816.510083","135566.234303","147108.105743"
"Blocked","Female","tile","16","F_cling.wav","None","725.665270817","306","144050.450274","136333.626941","137100.207391","137866.74332","138633.881202","139400.646535","140149.758909","140916.682228","144799.406827","145566.521212","146333.445768","147099.351919","147866.109832","148633.593674","134816.510083","135566.234303","147874.924562"
"Blocked","Female","tile","16","F_priest.wav","None","721.5307476","306","144050.450274","136333.626941","137100.207391","137866.74332","138633.881202","139400.646535","140149.758909","140916.682228","144799.406827","145566.521212","146333.445768","147099.351919","147866.109832","148633.593674","149399.414804","135566.234303","148643.465765"
"Blocked","Female","tile","16","F_tile.wav","None","721.201482229","306","144050.450274","136333.626941","137100.207391","137866.74332","138633.881202","139400.646535","140149.758909","140916.682228","144799.406827","145566.521212","146333.445768","147099.351919","147866.109832","148633.593674","149399.414804","150149.215699","149408.370207"
"Blocked","Female","tile","16","F_dime.wav","space","445.476417895","306","144050.450274","150916.285873","137100.207391","137866.74332","138633.881202","139400.646535","140149.758909","140916.682228","144799.406827","145566.521212","146333.445768","147099.351919","147866.109832","148633.593674","149399.414804","150149.215699","150158.350729"
"Blocked","Female","tile","16","F_tile.wav","None","731.824235991","306","144050.450274","150916.285873","151682.985044","137866.74332","138633.881202","139400.646535","140149.758909","140916.682228","144799.406827","145566.521212","146333.445768","147099.351919","147866.109832","148633.593674","149399.414804","150149.215699","150925.420903"
"Blocked","Female","tile","16","F_dime.wav","space","703.435367439","306","144050.450274","150916.285873","151682.985044","152449.657316","138633.881202","139400.646535","140149.758909","140916.682228","144799.406827","145566.521212","146333.445768","147099.351919","147866.109832","148633.593674","149399.414804","150149.215699","151692.283006"
"Blocked","Female","tile","16","F_tile.wav","None","733.330200426","306","144050.450274","150916.285873","151682.985044","152449.657316","153216.189845","139400.646535","140149.758909","140916.682228","144799.406827","145566.521212","146333.445768","147099.351919","147866.109832","148633.593674","149399.414804","150149.215699","152453.221422"
"Blocked","Female","tile","16","F_cad.wav","space","482.244087849","306","144050.450274","150916.285873","151682.985044","152449.657316","153216.189845","153983.162012","140149.758909","140916.682228","144799.406827","145566.521212","146333.445768","147099.351919","147866.109832","148633.593674","149399.414804","150149.215699","153225.446688"
"Blocked","Female","tile","16","F_jolt.wav","None","722.043350339","306","144050.450274","150916.285873","151682.985044","152449.657316","153216.189845","153983.162012","154749.971866","140916.682228","144799.406827","145566.521212","146333.445768","147099.351919","147866.109832","148633.593674","149399.414804","150149.215699","153992.301371"
"Blocked","Female","tile","16","F_depth.wav","None","718.727817293","306","144050.450274","150916.285873","151682.985044","152449.657316","153216.189845","153983.162012","154749.971866","155499.112683","144799.406827","145566.521212","146333.445768","147099.351919","147866.109832","148633.593674","149399.414804","150149.215699","154759.945363"
"Blocked","Female","tile","14","F_reek.wav","None","734.915930312","306","158633.111061","150916.285873","151682.985044","152449.657316","153216.189845","153983.162012","154749.971866","155499.112683","144799.406827","145566.521212","146333.445768","147099.351919","147866.109832","148633.593674","149399.414804","150149.215699","155508.135795"
"Blocked","Female","tile","14","F_knife.wav","None","720.866960939","306","158633.111061","150916.285873","151682.985044","152449.657316","153216.189845","153983.162012","154749.971866","155499.112683","159382.806529","145566.521212","146333.445768","147099.351919","147866.109832","148633.593674","149399.414804","150149.215699","158642.643992"
"Blocked","Female","tile","14","F_bluff.wav","None","735.780368559","306","158633.111061","150916.285873","151682.985044","152449.657316","153216.189845","153983.162012","154749.971866","155499.112683","159382.806529","160149.012884","146333.445768","147099.351919","147866.109832","148633.593674","149399.414804","150149.215699","159392.218575"
"Blocked","Female","tile","14","F_bluff.wav","None","734.427133575","306","158633.111061","150916.285873","151682.985044","152449.657316","153216.189845","153983.162012","154749.971866","155499.112683","159382.806529","160149.012884","160915.76956","147099.351919","147866.109832","148633.593674","149399.414804","150149.215699","160157.99302"
"Blocked","Female","tile","14","F_tile.wav","None","732.006337028","306","158633.111061","150916.285873","151682.985044","152449.657316","153216.189845","153983.162012","154749.971866","155499.112683","159382.806529","160149.012884","160915.76956","161682.488827","147866.109832","148633.593674","149399.414804","150149.215699","160924.865016"
"Blocked","Female","tile","14","F_romp.wav","space","567.808903754","306","158633.111061","150916.285873","151682.985044","152449.657316","153216.189845","153983.162012","154749.971866","155499.112683","159382.806529","160149.012884","160915.76956","161682.488827","162449.495621","148633.593674","149399.414804","150149.215699","161691.612727"
"Blocked","Female","tile","14","F_reek.wav","None","725.70329858","306","158633.111061","150916.285873","151682.985044","152449.657316","153216.189845","153983.162012","154749.971866","155499.112683","159382.806529","160149.012884","160915.76956","161682.488827","162449.495621","163216.253224","149399.414804","150149.215699","162458.966719"
"Blocked","Female","tile","14","F_bluff.wav","None","723.173364997","306","158633.111061","150916.285873","151682.985044","152449.657316","153216.189845","153983.162012","154749.971866","155499.112683","159382.806529","160149.012884","160915.76956","161682.488827","162449.495621","163216.253224","163982.472873","150149.215699","163226.48828"
"Blocked","Female","tile","14","F_tile.wav","None","722.638192587","306","158633.111061","150916.285873","151682.985044","152449.657316","153216.189845","153983.162012","154749.971866","155499.112683","159382.806529","160149.012884","160915.76956","161682.488827","162449.495621","163216.253224","163982.472873","164750.056578","163991.465377"
"Blocked","Female","tile","14","F_greet.wav","space","531.386266463","306","158633.111061","165515.473314","151682.985044","152449.657316","153216.189845","153983.162012","154749.971866","155499.112683","159382.806529","160149.012884","160915.76956","161682.488827","162449.495621","163216.253224","163982.472873","164750.056578","164759.9095"
"Blocked","Female","tile","14","F_tile.wav","None","720.369506627","306","158633.111061","165515.473314","166265.511341","152449.657316","153216.189845","153983.162012","154749.971866","155499.112683","159382.806529","160149.012884","160915.76956","161682.488827","162449.495621","163216.253224","163982.472873","164750.056578","165524.271349"
"Blocked","Female","tile","14","F_greet.wav","space","584.730367176","306","158633.111061","165515.473314","166265.511341","167032.694981","153216.189845","153983.162012","154749.971866","155499.112683","159382.806529","160149.012884","160915.76956","161682.488827","162449.495621","163216.253224","163982.472873","164750.056578","166274.57279"
"Blocked","Female","tile","14","F_knife.wav","None","730.504082516","306","158633.111061","165515.473314","166265.511341","167032.694981","167798.694192","153983.162012","154749.971866","155499.112683","159382.806529","160149.012884","160915.76956","161682.488827","162449.495621","163216.253224","163982.472873","164750.056578","167041.923998"
"Blocked","Female","tile","14","F_cling.wav","None","729.521541391","306","158633.111061","165515.473314","166265.511341","167032.694981","167798.694192","168565.486113","154749.971866","155499.112683","159382.806529","160149.012884","160915.76956","161682.488827","162449.495621","163216.253224","163982.472873","164750.056578","167807.378144"
"Blocked","Female","tile","14","F_tile.wav","None","726.825893391","306","158633.111061","165515.473314","166265.511341","167032.694981","167798.694192","168565.486113","169333.131961","155499.112683","159382.806529","160149.012884","160915.76956","161682.488827","162449.495621","163216.253224","163982.472873","164750.056578","168574.506132"
"Blocked","Female","tile","14","F_priest.wav","space","468.098038808","306","158633.111061","165515.473314","166265.511341","167032.694981","167798.694192","168565.486113","169333.131961","170098.877962","159382.806529","160149.012884","160915.76956","161682.488827","162449.495621","163216.253224","163982.472873","164750.056578","169343.111642"
"Blocked","Female","ball","6","F_cling.wav","None","721.600929275","306","173216.230655","165515.473314","166265.511341","167032.694981","167798.694192","168565.486113","169333.131961","170098.877962","159382.806529","160149.012884","160915.76956","161682.488827","162449.495621","163216.253224","163982.472873","164750.056578","170107.748962"
"Blocked","Female","ball","6","F_romp.wav","None","720.55160813","306","173216.230655","165515.473314","166265.511341","167032.694981","167798.694192","168565.486113","169333.131961","170098.877962","173965.221835","160149.012884","160915.76956","161682.488827","162449.495621","163216.253224","163982.472873","164750.056578","173225.91137"
"Blocked","Female","ball","6","F_ball.wav","None","736.529486254","306","173216.230655","165515.473314","166265.511341","167032.694981","167798.694192","168565.486113","169333.131961","170098.877962","173965.221835","174731.927498","160915.76956","161682.488827","162449.495621","163216.253224","163982.472873","164750.056578","173974.30307"
"Blocked","Female","ball","6","F_romp.wav","space","406.073078047","306","173216.230655","165515.473314","166265.511341","167032.694981","167798.694192","168565.486113","169333.131961","170098.877962","173965.221835","174731.927498","175499.090423","161682.488827","162449.495621","163216.253224","163982.472873","164750.056578","174740.980908"
"Blocked","Female","ball","6","F_ball.wav","None","730.444103479","306","173216.230655","165515.473314","166265.511341","167032.694981","167798.694192","168565.486113","169333.131961","170098.877962","173965.221835","174731.927498","175499.090423","176265.47084","162449.495621","163216.253224","163982.472873","164750.056578","175508.533696"
"Blocked","Female","ball","6","F_park.wav","None","728.519832715","306","173216.230655","165515.473314","166265.511341","167032.694981","167798.694192","168565.486113","169333.131961","170098.877962","173965.221835","174731.927498","175499.090423","176265.47084","177031.90598","163216.253224","163982.472873","164750.056578","176274.638024"
"Blocked","Female","ball","6","F_gnash.wav","None","726.496936753","306","173216.230655","165515.473314","166265.511341","167032.694981","167798.694192","168565.486113","169333.131961","170098.877962","173965.221835","174731.927498","175499.090423","176265.47084","177031.90598","177799.232147","163982.472873","164750.056578","177041.067599"
"Blocked","Female","ball","6","F_ball.wav","None","722.851519473","306","173216.230655","165515.473314","166265.511341","167032.694981","167798.694192","168565.486113","169333.131961","170098.877962","173965.221835","174731.927498","175499.090423","176265.47084","177031.90598","177799.232147","178565.551039","164750.056578","177809.169163"
"Blocked","Female","ball","6","F_lash.wav","space","548.08574589","306","173216.230655","165515.473314","166265.511341","167032.694981","167798.694192","168565.486113","169333.131961","170098.877962","173965.221835","174731.927498","175499.090423","176265.47084","177031.90598","177799.232147","178565.551039","179315.08512","178574.820867"
"Blocked","Female","ball","6","F_park.wav","None","735.673086718","306","173216.230655","180082.181574","166265.511341","167032.694981","167798.694192","168565.486113","169333.131961","170098.877962","173965.221835","174731.927498","175499.090423","176265.47084","177031.90598","177799.232147","178565.551039","179315.08512","179324.452646"
"Blocked","Female","ball","6","F_ball.wav","None","733.121511061","306","173216.230655","180082.181574","180848.939487","167032.694981","167798.694192","168565.486113","169333.131961","170098.877962","173965.221835","174731.927498","175499.090423","176265.47084","177031.90598","177799.232147","178565.551039","179315.08512","180091.602277"
"Blocked","Female","ball","6","F_priest.wav","space","495.963174384","306","173216.230655","180082.181574","180848.939487","181615.372153","167798.694192","168565.486113","169333.131961","170098.877962","173965.221835","174731.927498","175499.090423","176265.47084","177031.90598","177799.232147","178565.551039","179315.08512","180858.891961"
"Blocked","Female","ball","6","F_jolt.wav","None","728.27187879","306","173216.230655","180082.181574","180848.939487","181615.372153","182382.231783","168565.486113","169333.131961","170098.877962","173965.221835","174731.927498","175499.090423","176265.47084","177031.90598","177799.232147","178565.551039","179315.08512","181624.381661"
"Blocked","Female","ball","6","F_cling.wav","None","725.893437862","306","173216.230655","180082.181574","180848.939487","181615.372153","182382.231783","183149.210134","169333.131961","170098.877962","173965.221835","174731.927498","175499.090423","176265.47084","177031.90598","177799.232147","178565.551039","179315.08512","182391.310545"
"Blocked","Female","ball","6","F_dime.wav","None","722.913353704","306","173216.230655","180082.181574","180848.939487","181615.372153","182382.231783","183149.210134","183915.784091","170098.877962","173965.221835","174731.927498","175499.090423","176265.47084","177031.90598","177799.232147","178565.551039","179315.08512","183159.084697"
"Blocked","Female","ball","6","F_jolt.wav","None","720.859540626","306","173216.230655","180082.181574","180848.939487","181615.372153","182382.231783","183149.210134","183915.784091","184682.287866","173965.221835","174731.927498","175499.090423","176265.47084","177031.90598","177799.232147","178565.551039","179315.08512","183925.401735"
"Blocked","Female","done","19","F_reek.wav","None","718.952583149","306","187799.042626","180082.181574","180848.939487","181615.372153","182382.231783","183149.210134","183915.784091","184682.287866","173965.221835","174731.927498","175499.090423","176265.47084","177031.90598","177799.232147","178565.551039","179315.08512","184691.858517"
"Blocked","Female","done","19","F_done.wav","None","720.083524939","306","187799.042626","180082.181574","180848.939487","181615.372153","182382.231783","183149.210134","183915.784091","184682.287866","188548.155","174731.927498","175499.090423","176265.47084","177031.90598","177799.232147","178565.551039","179315.08512","187808.641101"
"Blocked","Female","done","19","F_reek.wav","space","493.760032579","306","187799.042626","180082.181574","180848.939487","181615.372153","182382.231783","183149.210134","183915.784091","184682.287866","188548.155","189315.116656","175499.090423","176265.47084","177031.90598","177799.232147","178565.551039","179315.08512","188556.904805"
"Blocked","Female","done","19","F_knife.wav","None","732.499152888","306","187799.042626","180082.181574","180848.939487","181615.372153","182382.231783","183149.210134","183915.784091","184682.287866","188548.155","189315.116656","190081.905486","176265.47084","177031.90598","177799.232147","178565.551039","179315.08512","189324.422039"
"Blocked","Female","done","19","F_reek.wav","None","729.625731707","306","187799.042626","180082.181574","180848.939487","181615.372153","182382.231783","183149.210134","183915.784091","184682.287866","188548.155","189315.116656","190081.905486","190848.165635","177031.90598","177799.232147","178565.551039","179315.08512","190091.670603"
"Blocked","Female","done","19","F_done.wav","None","728.436047677","306","187799.042626","180082.181574","180848.939487","181615.372153","182382.231783","183149.210134","183915.784091","184682.287866","188548.155","189315.116656","190081.905486","190848.165635","191614.764635","177799.232147","178565.551039","179315.08512","190857.02736"
"Blocked","Female","done","19","F_lash.wav","space","530.50760692","306","187799.042626","180082.181574","180848.939487","181615.372153","182382.231783","183149.210134","183915.784091","184682.287866","188548.155","189315.116656","190081.905486","190848.165635","191614.764635","192382.28125","178565.551039","179315.08512","191623.96892"
"Blocked","Female","done","19","F_bluff.wav","None","721.4083164","306","187799.042626","180082.181574","180848.939487","181615.372153","182382.231783","183149.210134","183915.784091","184682.287866","188548.155","189315.116656","190081.905486","190848.165635","191614.764635","192382.28125","193148.788427","179315.08512","192392.182093"
"Blocked","Female","done","19","F_cling.wav","None","719.494557474","306","187799.042626","180082.181574","180848.939487","181615.372153","182382.231783","183149.210134","183915.784091","184682.287866","188548.155","189315.116656","190081.905486","190848.165635","191614.764635","192382.28125","193148.788427","193897.936974","193158.558491"
"Blocked","Female","done","19","F_greet.wav","None","735.456359107","306","187799.042626","194664.713746","180848.939487","181615.372153","182382.231783","183149.210134","183915.784091","184682.287866","188548.155","189315.116656","190081.905486","190848.165635","191614.764635","192382.28125","193148.788427","193897.936974","193907.020991"
"Blocked","Female","done","19","F_done.wav","None","733.201894909","306","187799.042626","194664.713746","195431.845136","181615.372153","182382.231783","183149.210134","183915.784091","184682.287866","188548.155","189315.116656","190081.905486","190848.165635","191614.764635","192382.28125","193148.788427","193897.936974","194673.828062"
"Blocked","Female","done","19","F_bluff.wav","space","401.231174823","306","187799.042626","194664.713746","195431.845136","196198.590063","182382.231783","183149.210134","183915.784091","184682.287866","188548.155","189315.116656","190081.905486","190848.165635","191614.764635","192382.28125","193148.788427","193897.936974","195441.195348"
"Blocked","Female","done","19","F_done.wav","None","726.82620259","306","187799.042626","194664.713746","195431.845136","196198.590063","196965.129394","183149.210134","183915.784091","184682.287866","188548.155","189315.116656","190081.905486","190848.165635","191614.764635","192382.28125","193148.788427","193897.936974","196208.016331"
"Blocked","Female","done","19","F_cling.wav","space","459.72418366","306","187799.042626","194664.713746","195431.845136","196198.590063","196965.129394","197731.917914","183915.784091","184682.287866","188548.155","189315.116656","190081.905486","190848.165635","191614.764635","192382.28125","193148.788427","193897.936974","196974.575139"
"Blocked","Female","done","19","F_lash.wav","None","721.030511428","306","187799.042626","194664.713746","195431.845136","196198.590063","196965.129394","197731.917914","198497.903522","184682.287866","188548.155","189315.116656","190081.905486","190848.165635","191614.764635","192382.28125","193148.788427","193897.936974","197741.512061"
"Blocked","Female","done","19","F_jolt.wav","None","720.340135973","306","187799.042626","194664.713746","195431.845136","196198.590063","196965.129394","197731.917914","198497.903522","199247.981123","188548.155","189315.116656","190081.905486","190848.165635","191614.764635","192382.28125","193148.788427","193897.936974","198506.847795"
"Blocked","Female","cave","12","F_romp.wav","None","735.026613344","306","202381.180298","194664.713746","195431.845136","196198.590063","196965.129394","197731.917914","198497.903522","199247.981123","188548.155","189315.116656","190081.905486","190848.165635","191614.764635","192382.28125","193148.788427","193897.936974","199257.390696"
"Blocked","Female","cave","12","F_jolt.wav","None","722.059736494","306","202381.180298","194664.713746","195431.845136","196198.590063","196965.129394","197731.917914","198497.903522","199247.981123","203148.565515","189315.116656","190081.905486","190848.165635","191614.764635","192382.28125","193148.788427","193897.936974","202390.178057"
"Blocked","Female","cave","12","F_jaw.wav","None","718.552826904","306","202381.180298","194664.713746","195431.845136","196198.590063","196965.129394","197731.917914","198497.903522","199247.981123","203148.565515","203898.138862","190081.905486","190848.165635","191614.764635","192382.28125","193148.788427","193897.936974","203158.358458"
"Blocked","Female","cave","12","F_cave.wav","None","733.612781391","306","202381.180298","194664.713746","195431.845136","196198.590063","196965.129394","197731.917914","198497.903522","199247.981123","203148.565515","203898.138862","204664.639854","190848.165635","191614.764635","192382.28125","193148.788427","193897.936974","203907.758979"
"Blocked","Female","cave","12","F_romp.wav","space","551.871526521","306","202381.180298","194664.713746","195431.845136","196198.590063","196965.129394","197731.917914","198497.903522","199247.981123","203148.565515","203898.138862","204664.639854","205431.470731","191614.764635","192382.28125","193148.788427","193897.936974","204674.283469"
"Blocked","Female","cave","12","F_romp.wav","None","728.39585552","306","202381.180298","194664.713746","195431.845136","196198.590063","196965.129394","197731.917914","198497.903522","199247.981123","203148.565515","203898.138862","204664.639854","205431.470731","206198.202983","192382.28125","193148.788427","193897.936974","205440.625858"
"Blocked","Female","cave","12","F_greet.wav","None","725.989589468","306","202381.180298","194664.713746","195431.845136","196198.590063","196965.129394","197731.917914","198497.903522","199247.981123","203148.565515","203898.138862","204664.639854","205431.470731","206198.202983","206964.993977","193148.788427","193897.936974","206207.58504"
"Blocked","Female","cave","12","F_cave.wav","None","723.558899015","306","202381.180298","194664.713746","195431.845136","196198.590063","196965.129394","197731.917914","198497.903522","199247.981123","203148.565515","203898.138862","204664.639854","205431.470731","206198.202983","206964.993977","207731.763639","193897.936974","206974.420554"
"Blocked","Female","cave","12","F_dime.wav","space","587.919449899","306","202381.180298","194664.713746","195431.845136","196198.590063","196965.129394","197731.917914","198497.903522","199247.981123","203148.565515","203898.138862","204664.639854","205431.470731","206198.202983","206964.993977","207731.763639","208481.193221","207742.146477"
"Blocked","Female","cave","12","F_cave.wav","None","735.199439339","306","202381.180298","209247.981742","195431.845136","196198.590063","196965.129394","197731.917914","198497.903522","199247.981123","203148.565515","203898.138862","204664.639854","205431.470731","206198.202983","206964.993977","207731.763639","208481.193221","208490.602175"
"Blocked","Female","cave","12","F_jaw.wav","space","712.712306529","306","202381.180298","209247.981742","210014.40266","196198.590063","196965.129394","197731.917914","198497.903522","199247.981123","203148.565515","203898.138862","204664.639854","205431.470731","206198.202983","206964.993977","207731.763639","208481.193221","209257.30011"
"Blocked","Female","cave","12","F_jolt.wav","None","730.708752293","306","202381.180298","209247.981742","210014.40266","210781.228899","196965.129394","197731.917914","198497.903522","199247.981123","203148.565515","203898.138862","204664.639854","205431.470731","206198.202983","206964.993977","207731.763639","208481.193221","210023.627968"
"Blocked","Female","cave","12","F_romp.wav","None","728.06133423","306","202381.180298","209247.981742","210014.40266","210781.228899","211547.944765","197731.917914","198497.903522","199247.981123","203148.565515","203898.138862","204664.639854","205431.470731","206198.202983","206964.993977","207731.763639","208481.193221","210790.712364"
"Blocked","Female","cave","12","F_cave.wav","None","725.778117776","306","202381.180298","209247.981742","210014.40266","210781.228899","211547.944765","212314.931463","198497.903522","199247.981123","203148.565515","203898.138862","204664.639854","205431.470731","206198.202983","206964.993977","207731.763639","208481.193221","211557.112876"
"Blocked","Female","cave","12","F_romp.wav","space","597.533074673","306","202381.180298","209247.981742","210014.40266","210781.228899","211547.944765","212314.931463","213081.585186","199247.981123","203148.565515","203898.138862","204664.639854","205431.470731","206198.202983","206964.993977","207731.763639","208481.193221","212324.397305"
"Blocked","Female","cave","12","F_romp.wav","None","719.688715879","306","202381.180298","209247.981742","210014.40266","210781.228899","211547.944765","212314.931463","213081.585186","213831.335686","203148.565515","203898.138862","204664.639854","205431.470731","206198.202983","206964.993977","207731.763639","208481.193221","213091.450165"
"Blocked","Female","cave","9","F_depth.wav","None","735.307957511","306","216964.28196","209247.981742","210014.40266","210781.228899","211547.944765","212314.931463","213081.585186","213831.335686","203148.565515","203898.138862","204664.639854","205431.470731","206198.202983","206964.993977","207731.763639","208481.193221","213840.313968"
"Blocked","Female","cave","9","F_depth.wav","None","721.934831701","306","216964.28196","209247.981742","210014.40266","210781.228899","211547.944765","212314.931463","213081.585186","213831.335686","217713.981138","203898.138862","204664.639854","205431.470731","206198.202983","206964.993977","207731.763639","208481.193221","216973.090198"
"Blocked","Female","cave","9","F_cave.wav","None","736.592247616","306","216964.28196","209247.981742","210014.40266","210781.228899","211547.944765","212314.931463","213081.585186","213831.335686","217713.981138","218481.340076","204664.639854","205431.470731","206198.202983","206964.993977","207731.763639","208481.193221","217722.889238"
"Blocked","Female","cave","9","F_gnash.wav","space","566.962397657","306","216964.28196","209247.981742","210014.40266","210781.228899","211547.944765","212314.931463","213081.585186","213831.335686","217713.981138","218481.340076","219247.726368","205431.470731","206198.202983","206964.993977","207731.763639","208481.193221","218490.764489"
"Blocked","Female","cave","9","F_jaw.wav","None","731.111600064","306","216964.28196","209247.981742","210014.40266","210781.228899","211547.944765","212314.931463","213081.585186","213831.335686","217713.981138","218481.340076","219247.726368","220014.373598","206198.202983","206964.993977","207731.763639","208481.193221","219256.805129"
"Blocked","Female","cave","9","F_cave.wav","None","728.86733897","306","216964.28196","209247.981742","210014.40266","210781.228899","211547.944765","212314.931463","213081.585186","213831.335686","217713.981138","218481.340076","219247.726368","220014.373598","220780.954666","206964.993977","207731.763639","208481.193221","220023.822126"
"Blocked","Female","cave","9","F_bluff.wav","space","499.219655991","306","216964.28196","209247.981742","210014.40266","210781.228899","211547.944765","212314.931463","213081.585186","213831.335686","217713.981138","218481.340076","219247.726368","220014.373598","220780.954666","221548.06936","207731.763639","208481.193221","220790.440604"
"Blocked","Female","cave","9","F_park.wav","None","722.75320394","306","216964.28196","209247.981742","210014.40266","210781.228899","211547.944765","212314.931463","213081.585186","213831.335686","217713.981138","218481.340076","219247.726368","220014.373598","220780.954666","221548.06936","222313.848752","208481.193221","221557.904041"
"Blocked","Female","cave","9","F_jaw.wav","None","722.478042822","306","216964.28196","209247.981742","210014.40266","210781.228899","211547.944765","212314.931463","213081.585186","213831.335686","217713.981138","218481.340076","219247.726368","220014.373598","220780.954666","221548.06936","222313.848752","223081.385463","222322.74263"
"Blocked","Female","cave","9","F_gnash.wav","None","718.527475372","306","216964.28196","223830.717656","210014.40266","210781.228899","211547.944765","212314.931463","213081.585186","213831.335686","217713.981138","218481.340076","219247.726368","220014.373598","220780.954666","221548.06936","222313.848752","223081.385463","223091.487575"
"Blocked","Female","cave","9","F_cave.wav","None","734.052420128","306","216964.28196","223830.717656","224597.145995","210781.228899","211547.944765","212314.931463","213081.585186","213831.335686","217713.981138","218481.340076","219247.726368","220014.373598","220780.954666","221548.06936","222313.848752","223081.385463","223840.652508"
"Blocked","Female","cave","9","F_knife.wav","space","451.382481959","306","216964.28196","223830.717656","224597.145995","225364.005315","211547.944765","212314.931463","213081.585186","213831.335686","217713.981138","218481.340076","219247.726368","220014.373598","220780.954666","221548.06936","222313.848752","223081.385463","224606.182709"
"Blocked","Female","cave","9","F_cave.wav","None","729.171252809","306","216964.28196","223830.717656","224597.145995","225364.005315","226130.702631","212314.931463","213081.585186","213831.335686","217713.981138","218481.340076","219247.726368","220014.373598","220780.954666","221548.06936","222313.848752","223081.385463","225373.416743"
"Blocked","Female","cave","9","F_greet.wav","space","525.555329863","306","216964.28196","223830.717656","224597.145995","225364.005315","226130.702631","226897.882251","213081.585186","213831.335686","217713.981138","218481.340076","219247.726368","220014.373598","220780.954666","221548.06936","222313.848752","223081.385463","226139.960092"
"Blocked","Female","cave","9","F_lash.wav","None","722.888310906","306","216964.28196","223830.717656","224597.145995","225364.005315","226130.702631","226897.882251","227664.008221","213831.335686","217713.981138","218481.340076","219247.726368","220014.373598","220780.954666","221548.06936","222313.848752","223081.385463","226907.432496"
"Blocked","Female","cave","9","F_bluff.wav","None","722.181549296","306","216964.28196","223830.717656","224597.145995","225364.005315","226130.702631","226897.882251","227664.008221","228431.059536","217713.981138","218481.340076","219247.726368","220014.373598","220780.954666","221548.06936","222313.848752","223081.385463","227672.912611"
"Blocked","Female","tile","17","F_reek.wav","None","719.104385469","306","231563.821236","223830.717656","224597.145995","225364.005315","226130.702631","226897.882251","227664.008221","228431.059536","217713.981138","218481.340076","219247.726368","220014.373598","220780.954666","221548.06936","222313.848752","223081.385463","228440.653683"
"Blocked","Female","tile","17","F_romp.wav","None","721.967604011","306","231563.821236","223830.717656","224597.145995","225364.005315","226130.702631","226897.882251","227664.008221","228431.059536","232331.128543","218481.340076","219247.726368","220014.373598","220780.954666","221548.06936","222313.848752","223081.385463","231572.650188"
"Blocked","Female","tile","17","F_lash.wav","None","718.595492654","306","231563.821236","223830.717656","224597.145995","225364.005315","226130.702631","226897.882251","227664.008221","228431.059536","232331.128543","233080.488871","219247.726368","220014.373598","220780.954666","221548.06936","222313.848752","223081.385463","232340.860579"
"Blocked","Female","tile","17","F_tile.wav","None","734.188145958","306","231563.821236","223830.717656","224597.145995","225364.005315","226130.702631","226897.882251","227664.008221","228431.059536","232331.128543","233080.488871","233847.339535","220014.373598","220780.954666","221548.06936","222313.848752","223081.385463","233090.154745"
"Blocked","Female","tile","17","F_jolt.wav","space","552.470387891","306","231563.821236","223830.717656","224597.145995","225364.005315","226130.702631","226897.882251","227664.008221","228431.059536","232331.128543","233080.488871","233847.339535","234613.723353","220780.954666","221548.06936","222313.848752","223081.385463","233856.815888"
"Blocked","Female","tile","17","F_tile.wav","None","729.879559949","306","231563.821236","223830.717656","224597.145995","225364.005315","226130.702631","226897.882251","227664.008221","228431.059536","232331.128543","233080.488871","233847.339535","234613.723353","235380.635232","221548.06936","222313.848752","223081.385463","234622.676282"
"Blocked","Female","tile","17","F_jolt.wav","space","675.610424019","306","231563.821236","223830.717656","224597.145995","225364.005315","226130.702631","226897.882251","227664.008221","228431.059536","232331.128543","233080.488871","233847.339535","234613.723353","235380.635232","236147.124785","222313.848752","223081.385463","235389.603002"
"Blocked","Female","tile","17","F_jolt.wav","None","724.841333926","306","231563.821236","223830.717656","224597.145995","225364.005315","226130.702631","226897.882251","227664.008221","228431.059536","232331.128543","233080.488871","233847.339535","234613.723353","235380.635232","236147.124785","236914.744972","223081.385463","236156.439753"
"Blocked","Female","tile","17","F_tile.wav","None","722.046751529","306","231563.821236","223830.717656","224597.145995","225364.005315","226130.702631","226897.882251","227664.008221","228431.059536","232331.128543","233080.488871","233847.339535","234613.723353","235380.635232","236147.124785","236914.744972","237680.308872","236924.036133"
"Blocked","Female","tile","17","F_greet.wav","space","583.954660688","306","231563.821236","238430.282284","224597.145995","225364.005315","226130.702631","226897.882251","227664.008221","228431.059536","232331.128543","233080.488871","233847.339535","234613.723353","235380.635232","236147.124785","236914.744972","237680.308872","237689.200277"
"Blocked","Female","tile","17","F_tile.wav","None","734.586047009","306","231563.821236","238430.282284","239197.015463","225364.005315","226130.702631","226897.882251","227664.008221","228431.059536","232331.128543","233080.488871","233847.339535","234613.723353","235380.635232","236147.124785","236914.744972","237680.308872","238439.392271"
"Blocked","Female","tile","17","F_greet.wav","space","649.962343276","306","231563.821236","238430.282284","239197.015463","239963.628067","226130.702631","226897.882251","227664.008221","228431.059536","232331.128543","233080.488871","233847.339535","234613.723353","235380.635232","236147.124785","236914.744972","237680.308872","239207.141691"
"Blocked","Female","tile","17","F_lash.wav","None","734.549873974","306","231563.821236","238430.282284","239197.015463","239963.628067","240730.316726","226897.882251","227664.008221","228431.059536","232331.128543","233080.488871","233847.339535","234613.723353","235380.635232","236147.124785","236914.744972","237680.308872","239967.438271"
"Blocked","Female","tile","17","F_cling.wav","None","727.570991497","306","231563.821236","238430.282284","239197.015463","239963.628067","240730.316726","241497.090715","227664.008221","228431.059536","232331.128543","233080.488871","233847.339535","234613.723353","235380.635232","236147.124785","236914.744972","237680.308872","240739.806373"
"Blocked","Female","tile","17","F_depth.wav","None","726.059152745","306","231563.821236","238430.282284","239197.015463","239963.628067","240730.316726","241497.090715","242264.19057","228431.059536","232331.128543","233080.488871","233847.339535","234613.723353","235380.635232","236147.124785","236914.744972","237680.308872","241506.223272"
"Blocked","Female","tile","17","F_bluff.wav","None","723.698025569","306","231563.821236","238430.282284","239197.015463","239963.628067","240730.316726","241497.090715","242264.19057","243030.64395","232331.128543","233080.488871","233847.339535","234613.723353","235380.635232","236147.124785","236914.744972","237680.308872","242273.568916"
"Blocked","Female","done","22","F_reek.wav","None","721.297015436","306","246147.488369","238430.282284","239197.015463","239963.628067","240730.316726","241497.090715","242264.19057","243030.64395","232331.128543","233080.488871","233847.339535","234613.723353","235380.635232","236147.124785","236914.744972","237680.308872","243040.764613"
"Blocked","Female","done","22","F_gnash.wav","None","719.248149078","306","246147.488369","238430.282284","239197.015463","239963.628067","240730.316726","241497.090715","242264.19057","243030.64395","246896.793665","233080.488871","233847.339535","234613.723353","235380.635232","236147.124785","236914.744972","237680.308872","246157.53885"
"Blocked","Female","done","22","F_depth.wav","None","735.834782477","306","246147.488369","238430.282284","239197.015463","239963.628067","240730.316726","241497.090715","242264.19057","243030.64395","246896.793665","247663.153677","233847.339535","234613.723353","235380.635232","236147.124785","236914.744972","237680.308872","246905.869953"
"Blocked","Female","done","22","F_done.wav","None","734.382304363","306","246147.488369","238430.282284","239197.015463","239963.628067","240730.316726","241497.090715","242264.19057","243030.64395","246896.793665","247663.153677","248430.180877","234613.723353","235380.635232","236147.124785","236914.744972","237680.308872","247672.396298"
"Blocked","Female","done","22","F_jolt.wav","space","449.324341025","306","246147.488369","238430.282284","239197.015463","239963.628067","240730.316726","241497.090715","242264.19057","243030.64395","246896.793665","247663.153677","248430.180877","249196.835836","235380.635232","236147.124785","236914.744972","237680.308872","248439.503572"
"Blocked","Female","done","22","F_done.wav","None","728.907221928","306","246147.488369","238430.282284","239197.015463","239963.628067","240730.316726","241497.090715","242264.19057","243030.64395","246896.793665","247663.153677","248430.180877","249196.835836","249962.896881","236147.124785","236914.744972","237680.308872","249206.047849"
"Blocked","Female","done","22","F_knife.wav","space","588.97835575","306","246147.488369","238430.282284","239197.015463","239963.628067","240730.316726","241497.090715","242264.19057","243030.64395","246896.793665","247663.153677","248430.180877","249196.835836","249962.896881","250730.443176","236914.744972","237680.308872","249971.824149"
"Blocked","Female","done","22","F_reek.wav","None","723.148940597","306","246147.488369","238430.282284","239197.015463","239963.628067","240730.316726","241497.090715","242264.19057","243030.64395","246896.793665","247663.153677","248430.180877","249196.835836","249962.896881","250730.443176","251497.121941","237680.308872","250740.253432"
"Blocked","Female","done","22","F_knife.wav","None","721.513433848","306","246147.488369","238430.282284","239197.015463","239963.628067","240730.316726","241497.090715","242264.19057","243030.64395","246896.793665","247663.153677","248430.180877","249196.835836","249962.896881","250730.443176","251497.121941","252263.616442","251506.857997"
"Blocked","Female","done","22","F_jaw.wav","None","720.279847737","306","246147.488369","253013.258114","239197.015463","239963.628067","240730.316726","241497.090715","242264.19057","243030.64395","246896.793665","247663.153677","248430.180877","249196.835836","249962.896881","250730.443176","251497.121941","252263.616442","252273.292519"
"Blocked","Female","done","22","F_cad.wav","None","735.545399599","306","246147.488369","253013.258114","253779.889886","239963.628067","240730.316726","241497.090715","242264.19057","243030.64395","246896.793665","247663.153677","248430.180877","249196.835836","249962.896881","250730.443176","251497.121941","252263.616442","253022.891526"
"Blocked","Female","done","22","F_done.wav","None","733.51508379","306","246147.488369","253013.258114","253779.889886","254546.667586","240730.316726","241497.090715","242264.19057","243030.64395","246896.793665","247663.153677","248430.180877","249196.835836","249962.896881","250730.443176","251497.121941","252263.616442","253789.765995"
"Blocked","Female","done","22","F_cad.wav","space","492.807172239","306","246147.488369","253013.258114","253779.889886","254546.667586","255313.175071","241497.090715","242264.19057","243030.64395","246896.793665","247663.153677","248430.180877","249196.835836","249962.896881","250730.443176","251497.121941","252263.616442","254555.816838"
"Blocked","Female","done","22","F_done.wav","None","729.797320906","306","246147.488369","253013.258114","253779.889886","254546.667586","255313.175071","256079.835905","242264.19057","243030.64395","246896.793665","247663.153677","248430.180877","249196.835836","249962.896881","250730.443176","251497.121941","252263.616442","255322.513535"
"Blocked","Female","done","22","F_cad.wav","space","351.346989162","306","246147.488369","253013.258114","253779.889886","254546.667586","255313.175071","256079.835905","256846.583306","243030.64395","246896.793665","247663.153677","248430.180877","249196.835836","249962.896881","250730.443176","251497.121941","252263.616442","256089.279796"
"Blocked","Female","done","22","F_reek.wav","None","724.678093102","306","246147.488369","253013.258114","253779.889886","254546.667586","255313.175071","256079.835905","256846.583306","257613.440153","246896.793665","247663.153677","248430.180877","249196.835836","249962.896881","250730.443176","251497.121941","252263.616442","256856.071717"
"Blocked","Female","done","21","F_bluff.wav","None","722.728161141","306","260730.194604","253013.258114","253779.889886","254546.667586","255313.175071","256079.835905","256846.583306","257613.440153","246896.793665","247663.153677","248430.180877","249196.835836","249962.896881","250730.443176","251497.121941","252263.616442","257623.115612"
"Blocked","Female","done","21","F_done.wav","None","719.364706427","306","260730.194604","253013.258114","253779.889886","254546.667586","255313.175071","256079.835905","256846.583306","257613.440153","261479.072318","247663.153677","248430.180877","249196.835836","249962.896881","250730.443176","251497.121941","252263.616442","260740.101321"
"Blocked","Female","done","21","F_gnash.wav","space","528.626619838","306","260730.194604","253013.258114","253779.889886","254546.667586","255313.175071","256079.835905","256846.583306","257613.440153","261479.072318","262245.838579","248430.180877","249196.835836","249962.896881","250730.443176","251497.121941","252263.616442","261487.819341"
"Blocked","Female","done","21","F_greet.wav","None","733.136042021","306","260730.194604","253013.258114","253779.889886","254546.667586","255313.175071","256079.835905","256846.583306","257613.440153","261479.072318","262245.838579","263012.993156","249196.835836","249962.896881","250730.443176","251497.121941","252263.616442","262254.932181"
"Blocked","Female","done","21","F_park.wav","None","730.1794542","306","260730.194604","253013.258114","253779.889886","254546.667586","255313.175071","256079.835905","256846.583306","257613.440153","261479.072318","262245.838579","263012.993156","263779.640077","249962.896881","250730.443176","251497.121941","252263.616442","263022.677272"
"Blocked","Female","done","21","F_dime.wav","None","728.699150961","306","260730.194604","253013.258114","253779.889886","254546.667586","255313.175071","256079.835905","256846.583306","257613.440153","261479.072318","262245.838579","263012.993156","263779.640077","264546.333992","250730.443176","251497.121941","252263.616442","263788.979778"
"Blocked","Female","done","21","F_romp.wav","space","460.880168714","306","260730.194604","253013.258114","253779.889886","254546.667586","255313.175071","256079.835905","256846.583306","257613.440153","261479.072318","262245.838579","263012.993156","263779.640077","264546.333992","265313.374177","251497.121941","252263.616442","264555.489118"
"Blocked","Female","done","21","F_done.wav","None","723.185731564","306","260730.194604","253013.258114","253779.889886","254546.667586","255313.175071","256079.835905","256846.583306","257613.440153","261479.072318","262245.838579","263012.993156","263779.640077","264546.333992","265313.374177","266079.950298","252263.616442","265322.924112"
"Blocked","Female","done","21","F_gnash.wav","space","542.102080304","306","260730.194604","253013.258114","253779.889886","254546.667586","255313.175071","256079.835905","256846.583306","257613.440153","261479.072318","262245.838579","263012.993156","263779.640077","264546.333992","265313.374177","266079.950298","266829.771598","266090.190918"
"Blocked","Female","done","21","F_done.wav","None","735.741722398","306","260730.194604","267596.125735","253779.889886","254546.667586","255313.175071","256079.835905","256846.583306","257613.440153","261479.072318","262245.838579","263012.993156","263779.640077","264546.333992","265313.374177","266079.950298","266829.771598","266839.087183"
"Blocked","Female","done","21","F_bluff.wav","space","730.985149741","306","260730.194604","267596.125735","268362.449574","254546.667586","255313.175071","256079.835905","256846.583306","257613.440153","261479.072318","262245.838579","263012.993156","263779.640077","264546.333992","265313.374177","266079.950298","266829.771598","267605.276843"
"Blocked","Female","done","21","F_greet.wav","None","731.970163994","306","260730.194604","267596.125735","268362.449574","269129.244278","255313.175071","256079.835905","256846.583306","257613.440153","261479.072318","262245.838579","263012.993156","263779.640077","264546.333992","265313.374177","266079.950298","266829.771598","268371.335723"
"Blocked","Female","done","21","F_knife.wav","None","729.956852272","306","260730.194604","267596.125735","268362.449574","269129.244278","269895.662414","256079.835905","256846.583306","257613.440153","261479.072318","262245.838579","263012.993156","263779.640077","264546.333992","265313.374177","266079.950298","266829.771598","269138.607476"
"Blocked","Female","done","21","F_cad.wav","None","729.22010161","306","260730.194604","267596.125735","268362.449574","269129.244278","269895.662414","270662.633654","256846.583306","257613.440153","261479.072318","262245.838579","263012.993156","263779.640077","264546.333992","265313.374177","266079.950298","266829.771598","269904.405108"
"Blocked","Female","done","21","F_done.wav","None","726.927300449","306","260730.194604","267596.125735","268362.449574","269129.244278","269895.662414","270662.633654","271429.558518","257613.440153","261479.072318","262245.838579","263012.993156","263779.640077","264546.333992","265313.374177","266079.950298","266829.771598","270671.730038"
"Blocked","Female","done","21","F_depth.wav","space","553.356158547","306","260730.194604","267596.125735","268362.449574","269129.244278","269895.662414","270662.633654","271429.558518","272196.558511","261479.072318","262245.838579","263012.993156","263779.640077","264546.333992","265313.374177","266079.950298","266829.771598","271438.781353"
"Blocked","Female","ball","5","F_knife.wav","None","720.80296278","306","275313.061915","267596.125735","268362.449574","269129.244278","269895.662414","270662.633654","271429.558518","272196.558511","261479.072318","262245.838579","263012.993156","263779.640077","264546.333992","265313.374177","266079.950298","266829.771598","272206.656295"
"Blocked","Female","ball","5","F_lash.wav","None","720.760915894","306","275313.061915","267596.125735","268362.449574","269129.244278","269895.662414","270662.633654","271429.558518","272196.558511","276079.899903","262245.838579","263012.993156","263779.640077","264546.333992","265313.374177","266079.950298","266829.771598","275322.513226"
"Blocked","Female","ball","5","F_ball.wav","None","718.295289204","306","275313.061915","267596.125735","268362.449574","269129.244278","269895.662414","270662.633654","271429.558518","272196.558511","276079.899903","276829.100082","263012.993156","263779.640077","264546.333992","265313.374177","266079.950298","266829.771598","276089.933689"
"Blocked","Female","ball","5","F_lash.wav","space","729.514431208","306","275313.061915","267596.125735","268362.449574","269129.244278","269895.662414","270662.633654","271429.558518","272196.558511","276079.899903","276829.100082","277595.797088","263779.640077","264546.333992","265313.374177","266079.950298","266829.771598","276838.497906"
"Blocked","Female","ball","5","F_park.wav","None","731.788372621","306","275313.061915","267596.125735","268362.449574","269129.244278","269895.662414","270662.633654","271429.558518","272196.558511","276079.899903","276829.100082","277595.797088","278362.445555","264546.333992","265313.374177","266079.950298","266829.771598","277604.876159"
"Blocked","Female","ball","5","F_dime.wav","None","729.922225233","306","275313.061915","267596.125735","268362.449574","269129.244278","269895.662414","270662.633654","271429.558518","272196.558511","276079.899903","276829.100082","277595.797088","278362.445555","279129.162039","265313.374177","266079.950298","266829.771598","278371.785565"
"Blocked","Female","ball","5","F_romp.wav","None","727.793284226","306","275313.061915","267596.125735","268362.449574","269129.244278","269895.662414","270662.633654","271429.558518","272196.558511","276079.899903","276829.100082","277595.797088","278362.445555","279129.162039","279895.972511","266079.950298","266829.771598","279138.587689"
"Blocked","Female","ball","5","F_romp.wav","None","726.304942276","306","275313.061915","267596.125735","268362.449574","269129.244278","269895.662414","270662.633654","271429.558518","272196.558511","276079.899903","276829.100082","277595.797088","278362.445555","279129.162039","279895.972511","280662.361894","266829.771598","279905.322105"
"Blocked","Female","ball","5","F_ball.wav","None","725.460291374","306","275313.061915","267596.125735","268362.449574","269129.244278","269895.662414","270662.633654","271429.558518","272196.558511","276079.899903","276829.100082","277595.797088","278362.445555","279129.162039","279895.972511","280662.361894","281429.816057","280671.305548"
"Blocked","Female","ball","5","F_reek.wav","space","624.1791551","306","275313.061915","282196.14577","268362.449574","269129.244278","269895.662414","270662.633654","271429.558518","272196.558511","276079.899903","276829.100082","277595.797088","278362.445555","279129.162039","279895.972511","280662.361894","281429.816057","281439.651974"
"Blocked","Female","ball","5","F_greet.wav","None","718.997722026","306","275313.061915","282196.14577","282945.613689","269129.244278","269895.662414","270662.633654","271429.558518","272196.558511","276079.899903","276829.100082","277595.797088","278362.445555","279129.162039","279895.972511","280662.361894","281429.816057","282206.486252"
"Blocked","Female","ball","5","F_ball.wav","None","735.612798948","306","275313.061915","282196.14577","282945.613689","283712.31255","269895.662414","270662.633654","271429.558518","272196.558511","276079.899903","276829.100082","277595.797088","278362.445555","279129.162039","279895.972511","280662.361894","281429.816057","282954.988635"
"Blocked","Female","ball","5","F_dime.wav","space","614.079515915","306","275313.061915","282196.14577","282945.613689","283712.31255","284479.045111","270662.633654","271429.558518","272196.558511","276079.899903","276829.100082","277595.797088","278362.445555","279129.162039","279895.972511","280662.361894","281429.816057","283721.71223"
"Blocked","Female","ball","5","F_ball.wav","None","730.507174041","306","275313.061915","282196.14577","282945.613689","283712.31255","284479.045111","285245.760977","271429.558518","272196.558511","276079.899903","276829.100082","277595.797088","278362.445555","279129.162039","279895.972511","280662.361894","281429.816057","284488.543725"
"Blocked","Female","ball","5","F_knife.wav","space","712.902445812","306","275313.061915","282196.14577","282945.613689","283712.31255","284479.045111","285245.760977","286012.210957","272196.558511","276079.899903","276829.100082","277595.797088","278362.445555","279129.162039","279895.972511","280662.361894","281429.816057","285254.828918"
"Blocked","Female","ball","5","F_lash.wav","None","726.994699799","306","275313.061915","282196.14577","282945.613689","283712.31255","284479.045111","285245.760977","286012.210957","286778.9092","276079.899903","276829.100082","277595.797088","278362.445555","279129.162039","279895.972511","280662.361894","281429.816057","286021.929699"
"Blocked","Female","ball","2","F_jaw.wav","None","725.997936912","306","289912.575221","282196.14577","282945.613689","283712.31255","284479.045111","285245.760977","286012.210957","286778.9092","276079.899903","276829.100082","277595.797088","278362.445555","279129.162039","279895.972511","280662.361894","281429.816057","286788.118123"
"Blocked","Female","ball","2","F_ball.wav","None","720.637247898","306","289912.575221","282196.14577","282945.613689","283712.31255","284479.045111","285245.760977","286012.210957","286778.9092","290679.239764","276829.100082","277595.797088","278362.445555","279129.162039","279895.972511","280662.361894","281429.816057","289922.129794"
"Blocked","Female","ball","2","F_priest.wav","space","454.200561624","306","289912.575221","282196.14577","282945.613689","283712.31255","284479.045111","285245.760977","286012.210957","286778.9092","290679.239764","291428.683878","277595.797088","278362.445555","279129.162039","279895.972511","280662.361894","281429.816057","290689.347751"
"Blocked","Female","ball","2","F_jaw.wav","None","733.624220826","306","289912.575221","282196.14577","282945.613689","283712.31255","284479.045111","285245.760977","286012.210957","286778.9092","290679.239764","291428.683878","292195.540416","278362.445555","279129.162039","279895.972511","280662.361894","281429.816057","291438.095306"
"Blocked","Female","ball","2","F_priest.wav","None","731.454469264","306","289912.575221","282196.14577","282945.613689","283712.31255","284479.045111","285245.760977","286012.210957","286778.9092","290679.239764","291428.683878","292195.540416","292961.480575","279129.162039","279895.972511","280662.361894","281429.816057","292205.304915"
"Blocked","Female","ball","2","F_cad.wav","None","734.129712917","306","289912.575221","282196.14577","282945.613689","283712.31255","284479.045111","285245.760977","286012.210957","286778.9092","290679.239764","291428.683878","292195.540416","292961.480575","293728.892691","279895.972511","280662.361894","281429.816057","292970.371671"
"Blocked","Female","ball","2","F_depth.wav","None","731.922860723","306","289912.575221","282196.14577","282945.613689","283712.31255","284479.045111","285245.760977","286012.210957","286778.9092","290679.239764","291428.683878","292195.540416","292961.480575","293728.892691","294495.48829","280662.361894","281429.816057","293737.772966"
"Blocked","Female","ball","2","F_park.wav","None","729.980658274","306","289912.575221","282196.14577","282945.613689","283712.31255","284479.045111","285245.760977","286012.210957","286778.9092","290679.239764","291428.683878","292195.540416","292961.480575","293728.892691","294495.48829","295261.911372","281429.816057","294504.601369"
"Blocked","Female","ball","2","F_ball.wav","None","727.930246387","306","289912.575221","282196.14577","282945.613689","283712.31255","284479.045111","285245.760977","286012.210957","286778.9092","290679.239764","291428.683878","292195.540416","292961.480575","293728.892691","294495.48829","295261.911372","296028.690618","295271.56117"
"Blocked","Female","ball","2","F_bluff.wav","space","537.324175239","306","289912.575221","296795.81366","282945.613689","283712.31255","284479.045111","285245.760977","286012.210957","286778.9092","290679.239764","291428.683878","292195.540416","292961.480575","293728.892691","294495.48829","295261.911372","296028.690618","296038.083805"
"Blocked","Female","ball","2","F_lash.wav","None","722.37107018","306","289912.575221","296795.81366","297562.152029","283712.31255","284479.045111","285245.760977","286012.210957","286778.9092","290679.239764","291428.683878","292195.540416","292961.480575","293728.892691","294495.48829","295261.911372","296028.690618","296805.417082"
"Blocked","Female","ball","2","F_ball.wav","None","721.103784628","306","289912.575221","296795.81366","297562.152029","298328.873151","284479.045111","285245.760977","286012.210957","286778.9092","290679.239764","291428.683878","292195.540416","292961.480575","293728.892691","294495.48829","295261.911372","296028.690618","297571.776166"
"Blocked","Female","ball","2","F_reek.wav","space","556.433321908","306","289912.575221","296795.81366","297562.152029","298328.873151","299078.845635","285245.760977","286012.210957","286778.9092","290679.239764","291428.683878","292195.540416","292961.480575","293728.892691","294495.48829","295261.911372","296028.690618","298338.887769"
"Blocked","Female","ball","2","F_gnash.wav","None","732.872629538","306","289912.575221","296795.81366","297562.152029","298328.873151","299078.845635","299845.100529","286012.210957","286778.9092","290679.239764","291428.683878","292195.540416","292961.480575","293728.892691","294495.48829","295261.911372","296028.690618","299088.594367"
"Blocked","Female","ball","2","F_ball.wav","None","733.042672742","306","289912.575221","296795.81366","297562.152029","298328.873151","299078.845635","299845.100529","300611.495168","286778.9092","290679.239764","291428.683878","292195.540416","292961.480575","293728.892691","294495.48829","295261.911372","296028.690618","299854.314707"
"Blocked","Female","ball","2","F_bluff.wav","space","546.99746985","306","289912.575221","296795.81366","297562.152029","298328.873151","299078.845635","299845.100529","300611.495168","301378.189701","290679.239764","291428.683878","292195.540416","292961.480575","293728.892691","294495.48829","295261.911372","296028.690618","300620.27991"
"Blocked","Female","tile","18","F_reek.wav","None","729.027798399","306","304512.111096","296795.81366","297562.152029","298328.873151","299078.845635","299845.100529","300611.495168","301378.189701","290679.239764","291428.683878","292195.540416","292961.480575","293728.892691","294495.48829","295261.911372","296028.690618","301387.501576"
"Blocked","Female","tile","18","F_tile.wav","None","720.750094857","306","304512.111096","296795.81366","297562.152029","298328.873151","299078.845635","299845.100529","300611.495168","301378.189701","305278.753997","291428.683878","292195.540416","292961.480575","293728.892691","294495.48829","295261.911372","296028.690618","304521.570135"
"Blocked","Female","tile","18","F_depth.wav","space","598.436468281","306","304512.111096","296795.81366","297562.152029","298328.873151","299078.845635","299845.100529","300611.495168","301378.189701","305278.753997","306028.547472","292195.540416","292961.480575","293728.892691","294495.48829","295261.911372","296028.690618","305288.648657"
"Blocked","Female","tile","18","F_cling.wav","None","733.035870828","306","304512.111096","296795.81366","297562.152029","298328.873151","299078.845635","299845.100529","300611.495168","301378.189701","305278.753997","306028.547472","306795.053721","292961.480575","293728.892691","294495.48829","295261.911372","296028.690618","306037.874497"
"Blocked","Female","tile","18","F_priest.wav","None","731.318125501","306","304512.111096","296795.81366","297562.152029","298328.873151","299078.845635","299845.100529","300611.495168","301378.189701","305278.753997","306028.547472","306795.053721","307561.219884","293728.892691","294495.48829","295261.911372","296028.690618","306804.702282"
