"Condition","Talker","Target","Trial","current_stimulus","response_response","response_time_response","subject_nr","time_Audio1","time_Audio10","time_Audio11","time_Audio12","time_Audio13","time_Audio14","time_Audio15","time_Audio16","time_Audio2","time_Audio3","time_Audio4","time_Audio5","time_Audio6","time_Audio7","time_Audio8","time_Audio9","time_response"
"Mixed","both","tile","32","F_dime.wav","NA","NA","312","92270.7384699","NA","NA","NA","NA","NA","NA","NA","NA","NA","NA","NA","NA","NA","NA","NA","NA"
"Mixed","both","tile","32","M_tile.wav","None","716.90773638","312","92270.7384699","NA","NA","NA","NA","NA","NA","NA","93037.495146","NA","NA","NA","NA","NA","NA","NA","92285.515843"
"Mixed","both","tile","32","M_lash.wav","None","720.531202387","312","92270.7384699","NA","NA","NA","NA","NA","NA","NA","93037.495146","93804.5829427","NA","NA","NA","NA","NA","NA","93047.7901804"
"Mixed","both","tile","32","F_park.wav","space","10.0548099726","312","92270.7384699","NA","NA","NA","NA","NA","NA","NA","93037.495146","93804.5829427","94570.9364619","NA","NA","NA","NA","NA","93814.5051184"
"Mixed","both","tile","32","M_greet.wav","None","719.565666281","312","92270.7384699","NA","NA","NA","NA","NA","NA","NA","93037.495146","93804.5829427","94570.9364619","95320.5132089","NA","NA","NA","NA","94580.6341809"
"Mixed","both","tile","32","M_cling.wav","None","736.110561527","312","92270.7384699","NA","NA","NA","NA","NA","NA","NA","93037.495146","93804.5829427","94570.9364619","95320.5132089","96086.9502039","NA","NA","NA","95330.0677822"
"Mixed","both","tile","32","M_jaw.wav","None","735.214897431","312","92270.7384699","NA","NA","NA","NA","NA","NA","NA","93037.495146","93804.5829427","94570.9364619","95320.5132089","96086.9502039","96853.7257393","NA","NA","96096.569703"
"Mixed","both","tile","32","F_tile.wav","None","733.618346509","312","92270.7384699","NA","NA","NA","NA","NA","NA","NA","93037.495146","93804.5829427","94570.9364619","95320.5132089","96086.9502039","96853.7257393","97620.3046432","NA","96863.9168926"
"Mixed","both","tile","32","F_cling.wav","space","434.45669068","312","92270.7384699","NA","NA","NA","NA","NA","NA","NA","93037.495146","93804.5829427","94570.9364619","95320.5132089","96086.9502039","96853.7257393","97620.3046432","98386.9160097","97629.9893768"
"Mixed","both","tile","32","M_tile.wav","None","732.9845489","312","92270.7384699","99154.0223565","NA","NA","NA","NA","NA","NA","93037.495146","93804.5829427","94570.9364619","95320.5132089","96086.9502039","96853.7257393","97620.3046432","98386.9160097","98396.0522767"
"Mixed","both","tile","32","F_reek.wav","space","611.817013472","312","92270.7384699","99154.0223565","99920.6584566","NA","NA","NA","NA","NA","93037.495146","93804.5829427","94570.9364619","95320.5132089","96086.9502039","96853.7257393","97620.3046432","98386.9160097","99164.581731"
"Mixed","both","tile","32","M_gnash.wav","None","729.770422913","312","92270.7384699","99154.0223565","99920.6584566","100687.412969","NA","NA","NA","NA","93037.495146","93804.5829427","94570.9364619","95320.5132089","96086.9502039","96853.7257393","97620.3046432","98386.9160097","99930.226943"
"Mixed","both","tile","32","F_tile.wav","None","728.882488329","312","92270.7384699","99154.0223565","99920.6584566","100687.412969","101454.013824","NA","NA","NA","93037.495146","93804.5829427","94570.9364619","95320.5132089","96086.9502039","96853.7257393","97620.3046432","98386.9160097","100697.087809"
"Mixed","both","tile","32","F_jaw.wav","space","464.64245161","312","92270.7384699","99154.0223565","99920.6584566","100687.412969","101454.013824","102220.731544","NA","NA","93037.495146","93804.5829427","94570.9364619","95320.5132089","96086.9502039","96853.7257393","97620.3046432","98386.9160097","101463.67135"
"Mixed","both","tile","32","F_bluff.wav","None","727.39229165","312","92270.7384699","99154.0223565","99920.6584566","100687.412969","101454.013824","102220.731544","102987.303646","NA","93037.495146","93804.5829427","94570.9364619","95320.5132089","96086.9502039","96853.7257393","97620.3046432","98386.9160097","102229.969528"
"Mixed","both","tile","32","M_cad.wav","None","725.763895549","312","92270.7384699","99154.0223565","99920.6584566","100687.412969","101454.013824","102220.731544","102987.303646","103753.853179","93037.495146","93804.5829427","94570.9364619","95320.5132089","96086.9502039","96853.7257393","97620.3046432","98386.9160097","102997.377934"
"Mixed","both","cave","24","F_priest.wav","None","725.858192425","312","106904.361207","99154.0223565","99920.6584566","100687.412969","101454.013824","102220.731544","102987.303646","103753.853179","93037.495146","93804.5829427","94570.9364619","95320.5132089","96086.9502039","96853.7257393","97620.3046432","98386.9160097","103763.306654"
"Mixed","both","cave","24","M_cave.wav","None","721.704809926","312","106904.361207","99154.0223565","99920.6584566","100687.412969","101454.013824","102220.731544","102987.303646","103753.853179","107670.488104","93804.5829427","94570.9364619","95320.5132089","96086.9502039","96853.7257393","97620.3046432","98386.9160097","106914.378298"
"Mixed","both","cave","24","M_reek.wav","b","576.300552581","312","106904.361207","99154.0223565","99920.6584566","100687.412969","101454.013824","102220.731544","102987.303646","103753.853179","107670.488104","108436.881506","94570.9364619","95320.5132089","96086.9502039","96853.7257393","97620.3046432","98386.9160097","107679.824404"
"Mixed","both","cave","24","M_depth.wav","space","617.32888734","312","106904.361207","99154.0223565","99920.6584566","100687.412969","101454.013824","102220.731544","102987.303646","103753.853179","107670.488104","108436.881506","109186.902839","95320.5132089","96086.9502039","96853.7257393","97620.3046432","98386.9160097","108446.791934"
"Mixed","both","cave","24","F_cave.wav","None","736.012245528","312","106904.361207","99154.0223565","99920.6584566","100687.412969","101454.013824","102220.731544","102987.303646","103753.853179","107670.488104","108436.881506","109186.902839","109953.567074","96086.9502039","96853.7257393","97620.3046432","98386.9160097","109196.234501"
"Mixed","both","cave","24","M_lash.wav","space","549.112498295","312","106904.361207","99154.0223565","99920.6584566","100687.412969","101454.013824","102220.731544","102987.303646","103753.853179","107670.488104","108436.881506","109186.902839","109953.567074","110720.194208","96853.7257393","97620.3046432","98386.9160097","109962.951604"
"Mixed","both","cave","24","M_cave.wav","None","733.350296505","312","106904.361207","99154.0223565","99920.6584566","100687.412969","101454.013824","102220.731544","102987.303646","103753.853179","107670.488104","108436.881506","109186.902839","109953.567074","110720.194208","111487.147825","97620.3046432","98386.9160097","110729.840914"
"Mixed","both","cave","24","F_jaw.wav","space","231.052239891","312","106904.361207","99154.0223565","99920.6584566","100687.412969","101454.013824","102220.731544","102987.303646","103753.853179","107670.488104","108436.881506","109186.902839","109953.567074","110720.194208","111487.147825","112253.794746","98386.9160097","111496.968284"
"Mixed","both","cave","24","M_gnash.wav","space","56.5152522177","312","106904.361207","99154.0223565","99920.6584566","100687.412969","101454.013824","102220.731544","102987.303646","103753.853179","107670.488104","108436.881506","109186.902839","109953.567074","110720.194208","111487.147825","112253.794746","113020.18382","112263.515034"
"Mixed","both","cave","24","F_cling.wav","None","729.551531374","312","106904.361207","113787.021807","99920.6584566","100687.412969","101454.013824","102220.731544","102987.303646","103753.853179","107670.488104","108436.881506","109186.902839","109953.567074","110720.194208","111487.147825","112253.794746","113020.18382","113029.692945"
"Mixed","both","cave","24","F_romp.wav","None","728.124095593","312","106904.361207","113787.021807","114553.29587","100687.412969","101454.013824","102220.731544","102987.303646","103753.853179","107670.488104","108436.881506","109186.902839","109953.567074","110720.194208","111487.147825","112253.794746","113020.18382","113796.890188"
"Mixed","both","cave","24","F_cave.wav","None","727.768860292","312","106904.361207","113787.021807","114553.29587","115319.913111","101454.013824","102220.731544","102987.303646","103753.853179","107670.488104","108436.881506","109186.902839","109953.567074","110720.194208","111487.147825","112253.794746","113020.18382","114562.590123"
"Mixed","both","cave","24","M_gnash.wav","space","590.772466268","312","106904.361207","113787.021807","114553.29587","115319.913111","116087.017603","102220.731544","102987.303646","103753.853179","107670.488104","108436.881506","109186.902839","109953.567074","110720.194208","111487.147825","112253.794746","113020.18382","115329.140892"
"Mixed","both","cave","24","F_cad.wav","None","724.52845471","312","106904.361207","113787.021807","114553.29587","115319.913111","116087.017603","116853.674417","102987.303646","103753.853179","107670.488104","108436.881506","109186.902839","109953.567074","110720.194208","111487.147825","112253.794746","113020.18382","116096.744074"
"Mixed","both","cave","24","M_cling.wav","None","723.118333146","312","106904.361207","113787.021807","114553.29587","115319.913111","116087.017603","116853.674417","117620.642566","103753.853179","107670.488104","108436.881506","109186.902839","109953.567074","110720.194208","111487.147825","112253.794746","113020.18382","116863.41171"
"Mixed","both","cave","24","F_cling.wav","None","722.576049156","312","106904.361207","113787.021807","114553.29587","115319.913111","116087.017603","116853.674417","117620.642566","118386.89746","107670.488104","108436.881506","109186.902839","109953.567074","110720.194208","111487.147825","112253.794746","113020.18382","117630.586383"
"Mixed","both","done","43","M_lash.wav","None","721.794159617","312","121503.7932","113787.021807","114553.29587","115319.913111","116087.017603","116853.674417","117620.642566","118386.89746","107670.488104","108436.881506","109186.902839","109953.567074","110720.194208","111487.147825","112253.794746","113020.18382","118396.750382"
"Mixed","both","done","43","F_romp.wav","None","721.774064004","312","121503.7932","113787.021807","114553.29587","115319.913111","116087.017603","116853.674417","117620.642566","118386.89746","122270.638299","108436.881506","109186.902839","109953.567074","110720.194208","111487.147825","112253.794746","113020.18382","121513.612423"
"Mixed","both","done","43","F_park.wav","None","720.710830297","312","121503.7932","113787.021807","114553.29587","115319.913111","116087.017603","116853.674417","117620.642566","118386.89746","122270.638299","123037.362203","109186.902839","109953.567074","110720.194208","111487.147825","112253.794746","113020.18382","122280.578716"
"Mixed","both","done","43","M_depth.wav","None","719.23640091","312","121503.7932","113787.021807","114553.29587","115319.913111","116087.017603","116853.674417","117620.642566","118386.89746","122270.638299","123037.362203","123804.135574","109953.567074","110720.194208","111487.147825","112253.794746","113020.18382","123047.533879"
"Mixed","both","done","43","M_done.wav","None","718.225416727","312","121503.7932","113787.021807","114553.29587","115319.913111","116087.017603","116853.674417","117620.642566","118386.89746","122270.638299","123037.362203","123804.135574","124553.162927","110720.194208","111487.147825","112253.794746","113020.18382","123814.131023"
"Mixed","both","done","43","F_cad.wav","space","516.463892534","312","121503.7932","113787.021807","114553.29587","115319.913111","116087.017603","116853.674417","117620.642566","118386.89746","122270.638299","123037.362203","123804.135574","124553.162927","125319.799646","111487.147825","112253.794746","113020.18382","124563.186511"
"Mixed","both","done","43","M_lash.wav","None","734.15939277","312","121503.7932","113787.021807","114553.29587","115319.913111","116087.017603","116853.674417","117620.642566","118386.89746","122270.638299","123037.362203","123804.135574","124553.162927","125319.799646","126086.746152","112253.794746","113020.18382","125329.18634"
"Mixed","both","done","43","F_done.wav","None","732.641061768","312","121503.7932","113787.021807","114553.29587","115319.913111","116087.017603","116853.674417","117620.642566","118386.89746","122270.638299","123037.362203","123804.135574","124553.162927","125319.799646","126086.746152","126853.052678","113020.18382","126096.510342"
"Mixed","both","done","43","F_jaw.wav","space","409.485072363","312","121503.7932","113787.021807","114553.29587","115319.913111","116087.017603","116853.674417","117620.642566","118386.89746","122270.638299","123037.362203","123804.135574","124553.162927","125319.799646","126086.746152","126853.052678","127619.566965","126862.090938"
"Mixed","both","done","43","F_cad.wav","None","732.296647038","312","121503.7932","128386.577778","114553.29587","115319.913111","116087.017603","116853.674417","117620.642566","118386.89746","122270.638299","123037.362203","123804.135574","124553.162927","125319.799646","126086.746152","126853.052678","127619.566965","127628.769703"
"Mixed","both","done","43","M_dime.wav","None","729.936446995","312","121503.7932","128386.577778","129153.245104","115319.913111","116087.017603","116853.674417","117620.642566","118386.89746","122270.638299","123037.362203","123804.135574","124553.162927","125319.799646","126086.746152","126853.052678","127619.566965","128397.083357"
"Mixed","both","done","43","M_gnash.wav","space","362.418657634","312","121503.7932","128386.577778","129153.245104","129919.767121","116087.017603","116853.674417","117620.642566","118386.89746","122270.638299","123037.362203","123804.135574","124553.162927","125319.799646","126086.746152","126853.052678","127619.566965","129157.09581"
"Mixed","both","done","43","F_done.wav","None","729.700241238","312","121503.7932","128386.577778","129153.245104","129919.767121","130686.523488","116853.674417","117620.642566","118386.89746","122270.638299","123037.362203","123804.135574","124553.162927","125319.799646","126086.746152","126853.052678","127619.566965","129929.381055"
"Mixed","both","done","43","F_greet.wav","space","679.332206026","312","121503.7932","128386.577778","129153.245104","129919.767121","130686.523488","131453.074876","117620.642566","118386.89746","122270.638299","123037.362203","123804.135574","124553.162927","125319.799646","126086.746152","126853.052678","127619.566965","130696.094448"
"Mixed","both","done","43","M_done.wav","None","726.698206272","312","121503.7932","128386.577778","129153.245104","129919.767121","130686.523488","131453.074876","132219.36718","118386.89746","122270.638299","123037.362203","123804.135574","124553.162927","125319.799646","126086.746152","126853.052678","127619.566965","131462.964589"
"Mixed","both","done","43","M_depth.wav","space","682.91115202","312","121503.7932","128386.577778","129153.245104","129919.767121","130686.523488","131453.074876","132219.36718","132986.515883","122270.638299","123037.362203","123804.135574","124553.162927","125319.799646","126086.746152","126853.052678","127619.566965","132228.490771"
"Mixed","both","tile","28","M_park.wav","None","725.461219437","312","136119.806881","128386.577778","129153.245104","129919.767121","130686.523488","131453.074876","132219.36718","132986.515883","122270.638299","123037.362203","123804.135574","124553.162927","125319.799646","126086.746152","126853.052678","127619.566965","132995.93504"
"Mixed","both","tile","28","M_cling.wav","None","722.359321546","312","136119.806881","128386.577778","129153.245104","129919.767121","130686.523488","131453.074876","132219.36718","132986.515883","136886.861905","123037.362203","123804.135574","124553.162927","125319.799646","126086.746152","126853.052678","127619.566965","136129.725346"
"Mixed","both","tile","28","F_dime.wav","None","721.312164795","312","136119.806881","128386.577778","129153.245104","129919.767121","130686.523488","131453.074876","132219.36718","132986.515883","136886.861905","137653.058985","123804.135574","124553.162927","125319.799646","126086.746152","126853.052678","127619.566965","136896.772951"
"Mixed","both","tile","28","F_tile.wav","None","722.000375856","312","136119.806881","128386.577778","129153.245104","129919.767121","130686.523488","131453.074876","132219.36718","132986.515883","136886.861905","137653.058985","138420.093913","124553.162927","125319.799646","126086.746152","126853.052678","127619.566965","137662.708473"
"Mixed","both","tile","28","M_park.wav","space","345.084762201","312","136119.806881","128386.577778","129153.245104","129919.767121","130686.523488","131453.074876","132219.36718","132986.515883","136886.861905","137653.058985","138420.093913","139186.494426","125319.799646","126086.746152","126853.052678","127619.566965","138430.126463"
"Mixed","both","tile","28","F_tile.wav","None","719.761989079","312","136119.806881","128386.577778","129153.245104","129919.767121","130686.523488","131453.074876","132219.36718","132986.515883","136886.861905","137653.058985","138420.093913","139186.494426","139953.304898","126086.746152","126853.052678","127619.566965","139196.356314"
"Mixed","both","tile","28","M_romp.wav","space","644.076065626","312","136119.806881","128386.577778","129153.245104","129919.767121","130686.523488","131453.074876","132219.36718","132986.515883","136886.861905","137653.058985","138420.093913","139186.494426","139953.304898","140719.300399","126853.052678","127619.566965","139963.082382"
"Mixed","both","tile","28","F_greet.wav","None","720.230998937","312","136119.806881","128386.577778","129153.245104","129919.767121","130686.523488","131453.074876","132219.36718","132986.515883","136886.861905","137653.058985","138420.093913","139186.494426","139953.304898","140719.300399","141486.713442","127619.566965","140728.343297"
"Mixed","both","tile","28","M_bluff.wav","None","717.742185108","312","136119.806881","128386.577778","129153.245104","129919.767121","130686.523488","131453.074876","132219.36718","132986.515883","136886.861905","137653.058985","138420.093913","139186.494426","139953.304898","140719.300399","141486.713442","142235.585592","141497.033519"
"Mixed","both","tile","28","M_tile.wav","None","736.317704897","312","136119.806881","143002.218291","129153.245104","129919.767121","130686.523488","131453.074876","132219.36718","132986.515883","136886.861905","137653.058985","138420.093913","139186.494426","139953.304898","140719.300399","141486.713442","142235.585592","142244.649204"
"Mixed","both","tile","28","F_depth.wav","space","531.422439497","312","136119.806881","143002.218291","143768.976513","129919.767121","130686.523488","131453.074876","132219.36718","132986.515883","136886.861905","137653.058985","138420.093913","139186.494426","139953.304898","140719.300399","141486.713442","142235.585592","143011.652597"
"Mixed","both","tile","28","M_tile.wav","None","734.098177403","312","136119.806881","143002.218291","143768.976513","144536.130781","130686.523488","131453.074876","132219.36718","132986.515883","136886.861905","137653.058985","138420.093913","139186.494426","139953.304898","140719.300399","141486.713442","142235.585592","143778.283132"
"Mixed","both","tile","28","M_park.wav","space","453.147530556","312","136119.806881","143002.218291","143768.976513","144536.130781","145302.76008","131453.074876","132219.36718","132986.515883","136886.861905","137653.058985","138420.093913","139186.494426","139953.304898","140719.300399","141486.713442","142235.585592","144545.933309"
"Mixed","both","tile","28","F_priest.wav","None","731.698094402","312","136119.806881","143002.218291","143768.976513","144536.130781","145302.76008","146069.469453","132219.36718","132986.515883","136886.861905","137653.058985","138420.093913","139186.494426","139953.304898","140719.300399","141486.713442","142235.585592","145312.589196"
"Mixed","both","tile","28","F_reek.wav","None","731.627603993","312","136119.806881","143002.218291","143768.976513","144536.130781","145302.76008","146069.469453","146836.064433","132986.515883","136886.861905","137653.058985","138420.093913","139186.494426","139953.304898","140719.300399","141486.713442","142235.585592","146078.742682"
"Mixed","both","tile","28","F_priest.wav","None","730.486150365","312","136119.806881","143002.218291","143768.976513","144536.130781","145302.76008","146069.469453","146836.064433","147602.41888","136886.861905","137653.058985","138420.093913","139186.494426","139953.304898","140719.300399","141486.713442","142235.585592","146845.846556"
"Mixed","both","cave","13","F_priest.wav","None","730.616929475","312","150752.983176","143002.218291","143768.976513","144536.130781","145302.76008","146069.469453","146836.064433","147602.41888","136886.861905","137653.058985","138420.093913","139186.494426","139953.304898","140719.300399","141486.713442","142235.585592","147611.570606"
"Mixed","both","cave","13","M_gnash.wav","None","722.059118096","312","150752.983176","143002.218291","143768.976513","144536.130781","145302.76008","146069.469453","146836.064433","147602.41888","151519.876814","137653.058985","138420.093913","139186.494426","139953.304898","140719.300399","141486.713442","142235.585592","150763.012634"
"Mixed","both","cave","13","F_lash.wav","None","721.135319676","312","150752.983176","143002.218291","143768.976513","144536.130781","145302.76008","146069.469453","146836.064433","147602.41888","151519.876814","152286.426347","138420.093913","139186.494426","139953.304898","140719.300399","141486.713442","142235.585592","151529.591538"
"Mixed","both","cave","13","M_cad.wav","None","720.650232863","312","150752.983176","143002.218291","143768.976513","144536.130781","145302.76008","146069.469453","146836.064433","147602.41888","151519.876814","152286.426347","153052.847265","139186.494426","139953.304898","140719.300399","141486.713442","142235.585592","152296.065324"
"Mixed","both","cave","13","F_bluff.wav","None","719.889676198","312","150752.983176","143002.218291","143768.976513","144536.130781","145302.76008","146069.469453","146836.064433","147602.41888","151519.876814","152286.426347","153052.847265","153819.021157","139953.304898","140719.300399","141486.713442","142235.585592","153062.888471"
"Mixed","both","cave","13","F_cling.wav","None","720.247694291","312","150752.983176","143002.218291","143768.976513","144536.130781","145302.76008","146069.469453","146836.064433","147602.41888","151519.876814","152286.426347","153052.847265","153819.021157","154586.094114","140719.300399","141486.713442","142235.585592","153828.921382"
"Mixed","both","cave","13","M_cling.wav","None","724.411588628","312","150752.983176","143002.218291","143768.976513","144536.130781","145302.76008","146069.469453","146836.064433","147602.41888","151519.876814","152286.426347","153052.847265","153819.021157","154586.094114","155335.42909","141486.713442","142235.585592","154590.276249"
"Mixed","both","cave","13","M_cave.wav","None","707.052959595","312","150752.983176","143002.218291","143768.976513","144536.130781","145302.76008","146069.469453","146836.064433","147602.41888","151519.876814","152286.426347","153052.847265","153819.021157","154586.094114","155335.42909","156102.219466","142235.585592","155373.411797"
"Mixed","both","cave","13","F_cad.wav","space","440.488586668","312","150752.983176","143002.218291","143768.976513","144536.130781","145302.76008","146069.469453","146836.064433","147602.41888","151519.876814","152286.426347","153052.847265","153819.021157","154586.094114","155335.42909","156102.219466","156868.866078","156150.207205"
"Mixed","both","cave","13","F_cave.wav","None","733.218281064","312","150752.983176","157635.680568","143768.976513","144536.130781","145302.76008","146069.469453","146836.064433","147602.41888","151519.876814","152286.426347","153052.847265","153819.021157","154586.094114","155335.42909","156102.219466","156868.866078","156878.215672"
"Mixed","both","cave","13","F_cad.wav","None","731.986240949","312","150752.983176","157635.680568","158402.362426","144536.130781","145302.76008","146069.469453","146836.064433","147602.41888","151519.876814","152286.426347","153052.847265","153819.021157","154586.094114","155335.42909","156102.219466","156868.866078","157645.157231"
"Mixed","both","cave","13","M_cave.wav","space","146.431318484","312","150752.983176","157635.680568","158402.362426","159168.560433","145302.76008","146069.469453","146836.064433","147602.41888","151519.876814","152286.426347","153052.847265","153819.021157","154586.094114","155335.42909","156102.219466","156868.866078","158412.164953"
"Mixed","both","cave","13","M_cad.wav","space","525.17628856","312","150752.983176","157635.680568","158402.362426","159168.560433","159935.64081","146069.469453","146836.064433","147602.41888","151519.876814","152286.426347","153052.847265","153819.021157","154586.094114","155335.42909","156102.219466","156868.866078","159177.420921"
"Mixed","both","cave","13","F_cave.wav","None","728.806432337","312","150752.983176","157635.680568","158402.362426","159168.560433","159935.64081","160702.221259","146836.064433","147602.41888","151519.876814","152286.426347","153052.847265","153819.021157","154586.094114","155335.42909","156102.219466","156868.866078","159944.719571"
"Mixed","both","cave","13","M_greet.wav","space","478.888980579","312","150752.983176","157635.680568","158402.362426","159168.560433","159935.64081","160702.221259","161468.550354","147602.41888","151519.876814","152286.426347","153052.847265","153819.021157","154586.094114","155335.42909","156102.219466","156868.866078","160711.675662"
"Mixed","both","cave","13","M_greet.wav","None","727.664979175","312","150752.983176","157635.680568","158402.362426","159168.560433","159935.64081","160702.221259","161468.550354","162235.622383","151519.876814","152286.426347","153052.847265","153819.021157","154586.094114","155335.42909","156102.219466","156868.866078","161477.617367"
"Mixed","both","done","46","F_gnash.wav","None","726.517342031","312","165368.86144","157635.680568","158402.362426","159168.560433","159935.64081","160702.221259","161468.550354","162235.622383","151519.876814","152286.426347","153052.847265","153819.021157","154586.094114","155335.42909","156102.219466","156868.866078","162245.056998"
"Mixed","both","done","46","F_priest.wav","None","722.145067062","312","165368.86144","157635.680568","158402.362426","159168.560433","159935.64081","160702.221259","161468.550354","162235.622383","166136.011071","152286.426347","153052.847265","153819.021157","154586.094114","155335.42909","156102.219466","156868.866078","165378.388188"
"Mixed","both","done","46","F_cad.wav","None","720.93188623","312","165368.86144","157635.680568","158402.362426","159168.560433","159935.64081","160702.221259","161468.550354","162235.622383","166136.011071","166902.534633","153052.847265","153819.021157","154586.094114","155335.42909","156102.219466","156868.866078","166145.738779"
"Mixed","both","done","46","F_done.wav","None","720.559646375","312","165368.86144","157635.680568","158402.362426","159168.560433","159935.64081","160702.221259","161468.550354","162235.622383","166136.011071","166902.534633","167669.037172","153819.021157","154586.094114","155335.42909","156102.219466","156868.866078","166911.739845"
"Mixed","both","done","46","M_jaw.wav","space","391.281482764","312","165368.86144","157635.680568","158402.362426","159168.560433","159935.64081","160702.221259","161468.550354","162235.622383","166136.011071","166902.534633","167669.037172","168418.510347","154586.094114","155335.42909","156102.219466","156868.866078","167679.072813"
"Mixed","both","done","46","M_done.wav","None","735.127712134","312","165368.86144","157635.680568","158402.362426","159168.560433","159935.64081","160702.221259","161468.550354","162235.622383","166136.011071","166902.534633","167669.037172","168418.510347","169184.981969","155335.42909","156102.219466","156868.866078","168428.001232"
"Mixed","both","done","46","F_jolt.wav","space","636.383619625","312","165368.86144","157635.680568","158402.362426","159168.560433","159935.64081","160702.221259","161468.550354","162235.622383","166136.011071","166902.534633","167669.037172","168418.510347","169184.981969","169951.735863","156102.219466","156868.866078","169193.911711"
"Mixed","both","done","46","F_cad.wav","None","733.870010357","312","165368.86144","157635.680568","158402.362426","159168.560433","159935.64081","160702.221259","161468.550354","162235.622383","166136.011071","166902.534633","167669.037172","168418.510347","169184.981969","169951.735863","170718.753787","156868.866078","169960.818334"
"Mixed","both","done","46","M_done.wav","None","733.176852576","312","165368.86144","157635.680568","158402.362426","159168.560433","159935.64081","160702.221259","161468.550354","162235.622383","166136.011071","166902.534633","167669.037172","168418.510347","169184.981969","169951.735863","170718.753787","171484.872956","170727.799159"
"Mixed","both","done","46","M_reek.wav","space","448.036959395","312","165368.86144","172251.718982","158402.362426","159168.560433","159935.64081","160702.221259","161468.550354","162235.622383","166136.011071","166902.534633","167669.037172","168418.510347","169184.981969","169951.735863","170718.753787","171484.872956","171494.180812"
"Mixed","both","done","46","F_done.wav","None","731.889779679","312","165368.86144","172251.718982","173018.196788","159168.560433","159935.64081","160702.221259","161468.550354","162235.622383","166136.011071","166902.534633","167669.037172","168418.510347","169184.981969","169951.735863","170718.753787","171484.872956","172260.514545"
"Mixed","both","done","46","M_gnash.wav","space","546.044609509","312","165368.86144","172251.718982","173018.196788","173785.22306","159935.64081","160702.221259","161468.550354","162235.622383","166136.011071","166902.534633","167669.037172","168418.510347","169184.981969","169951.735863","170718.753787","171484.872956","173027.226082"
"Mixed","both","done","46","M_dime.wav","None","730.02610635","312","165368.86144","172251.718982","173018.196788","173785.22306","174551.776303","160702.221259","161468.550354","162235.622383","166136.011071","166902.534633","167669.037172","168418.510347","169184.981969","169951.735863","170718.753787","171484.872956","173794.303058"
"Mixed","both","done","46","F_cling.wav","None","728.880014736","312","165368.86144","172251.718982","173018.196788","173785.22306","174551.776303","175318.106943","161468.550354","162235.622383","166136.011071","166902.534633","167669.037172","168418.510347","169184.981969","169951.735863","170718.753787","171484.872956","174561.321292"
"Mixed","both","done","46","M_gnash.wav","None","728.967819363","312","165368.86144","172251.718982","173018.196788","173785.22306","174551.776303","175318.106943","176084.712126","162235.622383","166136.011071","166902.534633","167669.037172","168418.510347","169184.981969","169951.735863","170718.753787","171484.872956","175327.733862"
"Mixed","both","done","46","M_greet.wav","None","728.844769765","312","165368.86144","172251.718982","173018.196788","173785.22306","174551.776303","175318.106943","176084.712126","176851.784774","166136.011071","166902.534633","167669.037172","168418.510347","169184.981969","169951.735863","170718.753787","171484.872956","176093.636921"
"Mixed","both","cave","21","M_reek.wav","None","727.511630859","312","179985.361135","172251.718982","173018.196788","173785.22306","174551.776303","175318.106943","176084.712126","176851.784774","166136.011071","166902.534633","167669.037172","168418.510347","169184.981969","169951.735863","170718.753787","171484.872956","176861.179506"
"Mixed","both","cave","21","M_cave.wav","None","722.095909063","312","179985.361135","172251.718982","173018.196788","173785.22306","174551.776303","175318.106943","176084.712126","176851.784774","180751.805241","166902.534633","167669.037172","168418.510347","169184.981969","169951.735863","170718.753787","171484.872956","179995.072457"
"Mixed","both","cave","21","F_lash.wav","space","596.401205752","312","179985.361135","172251.718982","173018.196788","173785.22306","174551.776303","175318.106943","176084.712126","176851.784774","180751.805241","181518.327566","167669.037172","168418.510347","169184.981969","169951.735863","170718.753787","171484.872956","180761.555518"
"Mixed","both","cave","21","M_cad.wav","None","720.48822837","312","179985.361135","172251.718982","173018.196788","173785.22306","174551.776303","175318.106943","176084.712126","176851.784774","180751.805241","181518.327566","182284.981598","168418.510347","169184.981969","169951.735863","170718.753787","171484.872956","181527.909656"
"Mixed","both","cave","21","M_cave.wav","None","720.333952457","312","179985.361135","172251.718982","173018.196788","173785.22306","174551.776303","175318.106943","176084.712126","176851.784774","180751.805241","181518.327566","182284.981598","183051.97448","169184.981969","169951.735863","170718.753787","171484.872956","182294.248026"
"Mixed","both","cave","21","M_greet.wav","space","695.723753422","312","179985.361135","172251.718982","173018.196788","173785.22306","174551.776303","175318.106943","176084.712126","176851.784774","180751.805241","181518.327566","182284.981598","183051.97448","183801.324297","169951.735863","170718.753787","171484.872956","183062.150793"
"Mixed","both","cave","21","M_jolt.wav","None","735.201602802","312","179985.361135","172251.718982","173018.196788","173785.22306","174551.776303","175318.106943","176084.712126","176851.784774","180751.805241","181518.327566","182284.981598","183051.97448","183801.324297","184568.002753","170718.753787","171484.872956","183811.05386"
"Mixed","both","cave","21","F_jaw.wav","None","735.684526153","312","179985.361135","172251.718982","173018.196788","173785.22306","174551.776303","175318.106943","176084.712126","176851.784774","180751.805241","181518.327566","182284.981598","183051.97448","183801.324297","184568.002753","185334.48736","171484.872956","184576.738336"
"Mixed","both","cave","21","F_gnash.wav","None","734.925514553","312","179985.361135","172251.718982","173018.196788","173785.22306","174551.776303","175318.106943","176084.712126","176851.784774","180751.805241","181518.327566","182284.981598","183051.97448","183801.324297","184568.002753","185334.48736","186101.317","185343.523765"
"Mixed","both","cave","21","F_cave.wav","None","734.512773808","312","179985.361135","186867.969486","173018.196788","173785.22306","174551.776303","175318.106943","176084.712126","176851.784774","180751.805241","181518.327566","182284.981598","183051.97448","183801.324297","184568.002753","185334.48736","186101.317","186110.328363"
"Mixed","both","cave","21","M_jaw.wav","space","576.441533398","312","179985.361135","186867.969486","187634.834681","173785.22306","174551.776303","175318.106943","176084.712126","176851.784774","180751.805241","181518.327566","182284.981598","183051.97448","183801.324297","184568.002753","185334.48736","186101.317","186877.323099"
"Mixed","both","cave","21","M_jaw.wav","None","732.127222233","312","179985.361135","186867.969486","187634.834681","188401.510355","174551.776303","175318.106943","176084.712126","176851.784774","180751.805241","181518.327566","182284.981598","183051.97448","183801.324297","184568.002753","185334.48736","186101.317","187644.211173"
"Mixed","both","cave","21","F_park.wav","None","731.964908075","312","179985.361135","186867.969486","187634.834681","188401.510355","189168.188811","175318.106943","176084.712126","176851.784774","180751.805241","181518.327566","182284.981598","183051.97448","183801.324297","184568.002753","185334.48736","186101.317","188411.188905"
"Mixed","both","cave","21","F_cave.wav","None","733.522813302","312","179985.361135","186867.969486","187634.834681","188401.510355","189168.188811","189934.256348","176084.712126","176851.784774","180751.805241","181518.327566","182284.981598","183051.97448","183801.324297","184568.002753","185334.48736","186101.317","189176.272047"
"Mixed","both","cave","21","F_cling.wav","space","606.556185987","312","179985.361135","186867.969486","187634.834681","188401.510355","189168.188811","189934.256348","190701.333634","176851.784774","180751.805241","181518.327566","182284.981598","183051.97448","183801.324297","184568.002753","185334.48736","186101.317","189943.155482"
"Mixed","both","cave","21","F_park.wav","None","730.943102855","312","179985.361135","186867.969486","187634.834681","188401.510355","189168.188811","189934.256348","190701.333634","191467.597184","180751.805241","181518.327566","182284.981598","183051.97448","183801.324297","184568.002753","185334.48736","186101.317","190711.113591"
"Mixed","both","cave","18","F_bluff.wav","None","731.42138822","312","194601.597107","186867.969486","187634.834681","188401.510355","189168.188811","189934.256348","190701.333634","191467.597184","180751.805241","181518.327566","182284.981598","183051.97448","183801.324297","184568.002753","185334.48736","186101.317","191476.495082"
"Mixed","both","cave","18","M_depth.wav","None","723.188823089","312","194601.597107","186867.969486","187634.834681","188401.510355","189168.188811","189934.256348","190701.333634","191467.597184","195367.958356","181518.327566","182284.981598","183051.97448","183801.324297","184568.002753","185334.48736","186101.317","194611.213206"
"Mixed","both","cave","18","M_cave.wav","None","723.058662843","312","194601.597107","186867.969486","187634.834681","188401.510355","189168.188811","189934.256348","190701.333634","191467.597184","195367.958356","196134.885694","182284.981598","183051.97448","183801.324297","184568.002753","185334.48736","186101.317","195377.269922"
"Mixed","both","cave","18","M_dime.wav","space","468.93125074","312","194601.597107","186867.969486","187634.834681","188401.510355","189168.188811","189934.256348","190701.333634","191467.597184","195367.958356","196134.885694","196901.394107","183051.97448","183801.324297","184568.002753","185334.48736","186101.317","196144.549713"
"Mixed","both","cave","18","M_dime.wav","None","720.819348935","312","194601.597107","186867.969486","187634.834681","188401.510355","189168.188811","189934.256348","190701.333634","191467.597184","195367.958356","196134.885694","196901.394107","197668.293929","183801.324297","184568.002753","185334.48736","186101.317","196910.733498"
"Mixed","both","cave","18","F_cling.wav","None","720.620552544","312","194601.597107","186867.969486","187634.834681","188401.510355","189168.188811","189934.256348","190701.333634","191467.597184","195367.958356","196134.885694","196901.394107","197668.293929","198434.829548","184568.002753","185334.48736","186101.317","197677.653107"
"Mixed","both","cave","18","M_cling.wav","None","720.225743018","312","194601.597107","186867.969486","187634.834681","188401.510355","189168.188811","189934.256348","190701.333634","191467.597184","195367.958356","196134.885694","196901.394107","197668.293929","198434.829548","199201.341981","185334.48736","186101.317","198444.422459"
"Mixed","both","cave","18","F_cave.wav","None","719.927085098","312","194601.597107","186867.969486","187634.834681","188401.510355","189168.188811","189934.256348","190701.333634","191467.597184","195367.958356","196134.885694","196901.394107","197668.293929","198434.829548","199201.341981","199967.599039","186101.317","199211.02486"
"Mixed","both","cave","18","F_lash.wav","space","468.523456249","312","194601.597107","186867.969486","187634.834681","188401.510355","189168.188811","189934.256348","190701.333634","191467.597184","195367.958356","196134.885694","196901.394107","197668.293929","198434.829548","199201.341981","199967.599039","200717.121372","199976.854336"
"Mixed","both","cave","18","F_knife.wav","None","736.120145768","312","194601.597107","201483.80323","187634.834681","188401.510355","189168.188811","189934.256348","190701.333634","191467.597184","195367.958356","196134.885694","196901.394107","197668.293929","198434.829548","199201.341981","199967.599039","200717.121372","200726.388727"
"Mixed","both","cave","18","M_cave.wav","None","735.394834075","312","194601.597107","201483.80323","202250.552176","188401.510355","189168.188811","189934.256348","190701.333634","191467.597184","195367.958356","196134.885694","196901.394107","197668.293929","198434.829548","199201.341981","199967.599039","200717.121372","201493.002567"
"Mixed","both","cave","18","M_greet.wav","space","537.440423388","312","194601.597107","201483.80323","202250.552176","203017.195697","189168.188811","189934.256348","190701.333634","191467.597184","195367.958356","196134.885694","196901.394107","197668.293929","198434.829548","199201.341981","199967.599039","200717.121372","202259.849521"
"Mixed","both","cave","18","F_cave.wav","None","734.285224695","312","194601.597107","201483.80323","202250.552176","203017.195697","203784.336362","189934.256348","190701.333634","191467.597184","195367.958356","196134.885694","196901.394107","197668.293929","198434.829548","199201.341981","199967.599039","200717.121372","203026.396581"
"Mixed","both","cave","18","F_romp.wav","space","603.125332389","312","194601.597107","201483.80323","202250.552176","203017.195697","203784.336362","204550.938762","190701.333634","191467.597184","195367.958356","196134.885694","196901.394107","197668.293929","198434.829548","199201.341981","199967.599039","200717.121372","203794.115392"
"Mixed","both","cave","18","M_depth.wav","None","732.073426247","312","194601.597107","201483.80323","202250.552176","203017.195697","203784.336362","204550.938762","205317.67256","191467.597184","195367.958356","196134.885694","196901.394107","197668.293929","198434.829548","199201.341981","199967.599039","200717.121372","204560.373069"
"Mixed","both","cave","18","F_lash.wav","None","732.707842253","312","194601.597107","201483.80323","202250.552176","203017.195697","203784.336362","204550.938762","205317.67256","206083.816153","195367.958356","196134.885694","196901.394107","197668.293929","198434.829548","199201.341981","199967.599039","200717.121372","205326.671246"
"Mixed","both","tile","29","F_dime.wav","None","732.735049445","312","209217.729818","201483.80323","202250.552176","203017.195697","203784.336362","204550.938762","205317.67256","206083.816153","195367.958356","196134.885694","196901.394107","197668.293929","198434.829548","199201.341981","199967.599039","200717.121372","206092.737238"
"Mixed","both","tile","29","M_tile.wav","None","722.056954168","312","209217.729818","201483.80323","202250.552176","203017.195697","203784.336362","204550.938762","205317.67256","206083.816153","209984.720845","196134.885694","196901.394107","197668.293929","198434.829548","199201.341981","199967.599039","200717.121372","209227.711045"
"Mixed","both","tile","29","M_reek.wav","space","546.813204885","312","209217.729818","201483.80323","202250.552176","203017.195697","203784.336362","204550.938762","205317.67256","206083.816153","209984.720845","210751.101571","196901.394107","197668.293929","198434.829548","199201.341981","199967.599039","200717.121372","209994.27109"
"Mixed","both","tile","29","M_cling.wav","None","720.842845738","312","209217.729818","201483.80323","202250.552176","203017.195697","203784.336362","204550.938762","205317.67256","206083.816153","209984.720845","210751.101571","211517.658833","197668.293929","198434.829548","199201.341981","199967.599039","200717.121372","210760.602658"
"Mixed","both","tile","29","F_tile.wav","None","720.281393733","312","209217.729818","201483.80323","202250.552176","203017.195697","203784.336362","204550.938762","205317.67256","206083.816153","209984.720845","210751.101571","211517.658833","212283.727298","198434.829548","199201.341981","199967.599039","200717.121372","211527.465379"
"Mixed","both","tile","29","M_cling.wav","space","456.313426141","312","209217.729818","201483.80323","202250.552176","203017.195697","203784.336362","204550.938762","205317.67256","206083.816153","209984.720845","210751.101571","211517.658833","212283.727298","213051.029658","199201.341981","199967.599039","200717.121372","212292.718564"
"Mixed","both","tile","29","M_knife.wav","None","720.98908294","312","209217.729818","201483.80323","202250.552176","203017.195697","203784.336362","204550.938762","205317.67256","206083.816153","209984.720845","210751.101571","211517.658833","212283.727298","213051.029658","213817.666067","199967.599039","200717.121372","213061.157122"
"Mixed","both","tile","29","F_depth.wav","None","721.959256101","312","209217.729818","201483.80323","202250.552176","203017.195697","203784.336362","204550.938762","205317.67256","206083.816153","209984.720845","210751.101571","211517.658833","212283.727298","213051.029658","213817.666067","214583.740407","200717.121372","213827.194052"
"Mixed","both","tile","29","M_depth.wav","None","722.977969795","312","209217.729818","201483.80323","202250.552176","203017.195697","203784.336362","204550.938762","205317.67256","206083.816153","209984.720845","210751.101571","211517.658833","212283.727298","213051.029658","213817.666067","214583.740407","215350.636518","214593.006525"
"Mixed","both","tile","29","F_romp.wav","None","722.09529113","312","209217.729818","216117.179558","202250.552176","203017.195697","203784.336362","204550.938762","205317.67256","206083.816153","209984.720845","210751.101571","211517.658833","212283.727298","213051.029658","213817.666067","214583.740407","215350.636518","215359.966944"
"Mixed","both","tile","29","M_jaw.wav","None","727.000264917","312","209217.729818","216117.179558","216883.653035","203017.195697","203784.336362","204550.938762","205317.67256","206083.816153","209984.720845","210751.101571","211517.658833","212283.727298","213051.029658","213817.666067","214583.740407","215350.636518","216121.138782"
"Mixed","both","tile","29","M_tile.wav","None","721.943798009","312","209217.729818","216117.179558","216883.653035","217650.288826","203784.336362","204550.938762","205317.67256","206083.816153","209984.720845","210751.101571","211517.658833","212283.727298","213051.029658","213817.666067","214583.740407","215350.636518","216892.8162"
"Mixed","both","tile","29","F_lash.wav","space","417.219255585","312","209217.729818","216117.179558","216883.653035","217650.288826","218417.664459","204550.938762","205317.67256","206083.816153","209984.720845","210751.101571","211517.658833","212283.727298","213051.029658","213817.666067","214583.740407","215350.636518","217659.639966"
"Mixed","both","tile","29","F_tile.wav","None","719.647286925","312","209217.729818","216117.179558","216883.653035","217650.288826","218417.664459","219184.284483","205317.67256","206083.816153","209984.720845","210751.101571","211517.658833","212283.727298","213051.029658","213817.666067","214583.740407","215350.636518","218427.463895"
"Mixed","both","tile","29","F_depth.wav","space","610.742958728","312","209217.729818","216117.179558","216883.653035","217650.288826","218417.664459","219184.284483","219933.342753","206083.816153","209984.720845","210751.101571","211517.658833","212283.727298","213051.029658","213817.666067","214583.740407","215350.636518","219194.051765"
"Mixed","both","tile","29","F_bluff.wav","None","735.963705927","312","209217.729818","216117.179558","216883.653035","217650.288826","218417.664459","219184.284483","219933.342753","220699.635984","209984.720845","210751.101571","211517.658833","212283.727298","213051.029658","213817.666067","214583.740407","215350.636518","219942.458924"
"Mixed","both","cave","22","M_knife.wav","None","736.492385622","312","223834.065653","216117.179558","216883.653035","217650.288826","218417.664459","219184.284483","219933.342753","220699.635984","209984.720845","210751.101571","211517.658833","212283.727298","213051.029658","213817.666067","214583.740407","215350.636518","220708.793893"
"Mixed","both","cave","22","M_gnash.wav","None","722.011196893","312","223834.065653","216117.179558","216883.653035","217650.288826","218417.664459","219184.284483","219933.342753","220699.635984","224600.395057","210751.101571","211517.658833","212283.727298","213051.029658","213817.666067","214583.740407","215350.636518","223843.876528"
"Mixed","both","cave","22","M_cave.wav","None","722.236890811","312","223834.065653","216117.179558","216883.653035","217650.288826","218417.664459","219184.284483","219933.342753","220699.635984","224600.395057","225366.992202","211517.658833","212283.727298","213051.029658","213817.666067","214583.740407","215350.636518","224610.505826"
"Mixed","both","cave","22","F_romp.wav","space","500.487869605","312","223834.065653","216117.179558","216883.653035","217650.288826","218417.664459","219184.284483","219933.342753","220699.635984","224600.395057","225366.992202","226134.189753","212283.727298","213051.029658","213817.666067","214583.740407","215350.636518","225376.135579"
"Mixed","both","cave","22","F_cave.wav","None","720.966513269","312","223834.065653","216117.179558","216883.653035","217650.288826","218417.664459","219184.284483","219933.342753","220699.635984","224600.395057","225366.992202","226134.189753","226900.608507","213051.029658","213817.666067","214583.740407","215350.636518","226144.198806"
"Mixed","both","cave","22","F_romp.wav","space","542.154021095","312","223834.065653","216117.179558","216883.653035","217650.288826","218417.664459","219184.284483","219933.342753","220699.635984","224600.395057","225366.992202","226134.189753","226900.608507","227666.892154","213817.666067","214583.740407","215350.636518","226910.40918"
"Mixed","both","cave","22","M_priest.wav","None","720.977643505","312","223834.065653","216117.179558","216883.653035","217650.288826","218417.664459","219184.284483","219933.342753","220699.635984","224600.395057","225366.992202","226134.189753","226900.608507","227666.892154","228433.963874","214583.740407","215350.636518","227676.035841"
"Mixed","both","cave","22","M_cave.wav","None","719.928940292","312","223834.065653","216117.179558","216883.653035","217650.288826","218417.664459","219184.284483","219933.342753","220699.635984","224600.395057","225366.992202","226134.189753","226900.608507","227666.892154","228433.963874","229200.051507","215350.636518","228443.571934"
"Mixed","both","cave","22","F_reek.wav","space","683.013796341","312","223834.065653","216117.179558","216883.653035","217650.288826","218417.664459","219184.284483","219933.342753","220699.635984","224600.395057","225366.992202","226134.189753","226900.608507","227666.892154","228433.963874","229200.051507","229949.585589","229209.490761"
"Mixed","both","cave","22","M_romp.wav","None","736.133130733","312","223834.065653","230716.932161","216883.653035","217650.288826","218417.664459","219184.284483","219933.342753","220699.635984","224600.395057","225366.992202","226134.189753","226900.608507","227666.892154","228433.963874","229200.051507","229949.585589","229958.586749"
"Mixed","both","cave","22","F_knife.wav","None","735.15182687","312","223834.065653","230716.932161","231483.518175","217650.288826","218417.664459","219184.284483","219933.342753","220699.635984","224600.395057","225366.992202","226134.189753","226900.608507","227666.892154","228433.963874","229200.051507","229949.585589","230726.158706"
"Mixed","both","cave","22","F_dime.wav","None","734.155064914","312","223834.065653","230716.932161","231483.518175","232249.9292","218417.664459","219184.284483","219933.342753","220699.635984","224600.395057","225366.992202","226134.189753","226900.608507","227666.892154","228433.963874","229200.051507","229949.585589","231493.101811"
"Mixed","both","cave","22","F_cave.wav","None","734.33098197","312","223834.065653","230716.932161","231483.518175","232249.9292","233016.20821","219184.284483","219933.342753","220699.635984","224600.395057","225366.992202","226134.189753","226900.608507","227666.892154","228433.963874","229200.051507","229949.585589","232259.409882"
"Mixed","both","cave","22","M_romp.wav","space","394.818072673","312","223834.065653","230716.932161","231483.518175","232249.9292","233016.20821","233783.283021","219933.342753","220699.635984","224600.395057","225366.992202","226134.189753","226900.608507","227666.892154","228433.963874","229200.051507","229949.585589","233025.547601"
"Mixed","both","cave","22","F_jolt.wav","None","733.426352032","312","223834.065653","230716.932161","231483.518175","232249.9292","233016.20821","233783.283021","234549.993631","220699.635984","224600.395057","225366.992202","226134.189753","226900.608507","227666.892154","228433.963874","229200.051507","229949.585589","233792.865111"
"Mixed","both","cave","22","M_priest.wav","None","733.298974112","312","223834.065653","230716.932161","231483.518175","232249.9292","233016.20821","233783.283021","234549.993631","235316.200913","224600.395057","225366.992202","226134.189753","226900.608507","227666.892154","228433.963874","229200.051507","229949.585589","234559.46782"
"Mixed","both","done","44","F_lash.wav","None","734.180416446","312","238450.250613","230716.932161","231483.518175","232249.9292","233016.20821","233783.283021","234549.993631","235316.200913","224600.395057","225366.992202","226134.189753","226900.608507","227666.892154","228433.963874","229200.051507","229949.585589","235325.326669"
"Mixed","both","done","44","M_cling.wav","None","721.534148324","312","238450.250613","230716.932161","231483.518175","232249.9292","233016.20821","233783.283021","234549.993631","235316.200913","239216.910828","225366.992202","226134.189753","226900.608507","227666.892154","228433.963874","229200.051507","229949.585589","238460.340977"
"Mixed","both","done","44","F_done.wav","None","721.821985207","312","238450.250613","230716.932161","231483.518175","232249.9292","233016.20821","233783.283021","234549.993631","235316.200913","239216.910828","239983.801684","226134.189753","226900.608507","227666.892154","228433.963874","229200.051507","229949.585589","239226.668217"
"Mixed","both","done","44","M_dime.wav","space","698.361587245","312","238450.250613","230716.932161","231483.518175","232249.9292","233016.20821","233783.283021","234549.993631","235316.200913","239216.910828","239983.801684","240750.088423","226900.608507","227666.892154","228433.963874","229200.051507","229949.585589","239993.792186"
"Mixed","both","done","44","F_reek.wav","None","720.439379569","312","238450.250613","230716.932161","231483.518175","232249.9292","233016.20821","233783.283021","234549.993631","235316.200913","239216.910828","239983.801684","240750.088423","241516.642902","227666.892154","228433.963874","229200.051507","229949.585589","240759.620735"
"Mixed","both","done","44","M_done.wav","None","720.348792616","312","238450.250613","230716.932161","231483.518175","232249.9292","233016.20821","233783.283021","234549.993631","235316.200913","239216.910828","239983.801684","240750.088423","241516.642902","242283.559728","228433.963874","229200.051507","229949.585589","241526.345567"
"Mixed","both","done","44","F_romp.wav","space","598.867450375","312","238450.250613","230716.932161","231483.518175","232249.9292","233016.20821","233783.283021","234549.993631","235316.200913","239216.910828","239983.801684","240750.088423","241516.642902","242283.559728","243050.140177","229200.051507","229949.585589","242293.223438"
"Mixed","both","done","44","M_depth.wav","None","719.247221481","312","238450.250613","230716.932161","231483.518175","232249.9292","233016.20821","233783.283021","234549.993631","235316.200913","239216.910828","239983.801684","240750.088423","241516.642902","242283.559728","243050.140177","243816.427534","229949.585589","243059.691968"
"Mixed","both","done","44","M_priest.wav","None","719.670783728","312","238450.250613","230716.932161","231483.518175","232249.9292","233016.20821","233783.283021","234549.993631","235316.200913","239216.910828","239983.801684","240750.088423","241516.642902","242283.559728","243050.140177","243816.427534","244582.709636","243826.201309"
"Mixed","both","done","44","F_reek.wav","None","721.724906005","312","238450.250613","245349.896366","231483.518175","232249.9292","233016.20821","233783.283021","234549.993631","235316.200913","239216.910828","239983.801684","240750.088423","241516.642902","242283.559728","243050.140177","243816.427534","244582.709636","244591.653599"
"Mixed","both","done","44","M_dime.wav","None","720.073940698","312","238450.250613","245349.896366","246116.269981","232249.9292","233016.20821","233783.283021","234549.993631","235316.200913","239216.910828","239983.801684","240750.088423","241516.642902","242283.559728","243050.140177","243816.427534","244582.709636","245359.585738"
"Mixed","both","done","44","M_done.wav","space","558.428083081","312","238450.250613","245349.896366","246116.269981","246866.189598","233016.20821","233783.283021","234549.993631","235316.200913","239216.910828","239983.801684","240750.088423","241516.642902","242283.559728","243050.140177","243816.427534","244582.709636","246125.531772"
"Mixed","both","done","44","M_jolt.wav","None","736.503515858","312","238450.250613","245349.896366","246116.269981","246866.189598","247632.727073","233783.283021","234549.993631","235316.200913","239216.910828","239983.801684","240750.088423","241516.642902","242283.559728","243050.140177","243816.427534","244582.709636","246875.132325"
"Mixed","both","done","44","F_done.wav","space","0.0222600065172","312","238450.250613","245349.896366","246116.269981","246866.189598","247632.727073","248399.467054","234549.993631","235316.200913","239216.910828","239983.801684","240750.088423","241516.642902","242283.559728","243050.140177","243816.427534","244582.709636","247641.995355"
"Mixed","both","done","44","F_depth.wav","None","735.049800947","312","238450.250613","245349.896366","246116.269981","246866.189598","247632.727073","248399.467054","249166.028953","235316.200913","239216.910828","239983.801684","240750.088423","241516.642902","242283.559728","243050.140177","243816.427534","244582.709636","248408.975251"
"Mixed","both","done","44","F_depth.wav","space","36.8288857862","312","238450.250613","245349.896366","246116.269981","246866.189598","247632.727073","248399.467054","249166.028953","249932.835715","239216.910828","239983.801684","240750.088423","241516.642902","242283.559728","243050.140177","243816.427534","244582.709636","249175.081744"
"Mixed","both","done","39","F_romp.wav","None","734.355097637","312","253066.497098","245349.896366","246116.269981","246866.189598","247632.727073","248399.467054","249166.028953","249932.835715","239216.910828","239983.801684","240750.088423","241516.642902","242283.559728","243050.140177","243816.427534","244582.709636","249942.304339"
"Mixed","both","done","39","F_done.wav","None","721.607730724","312","253066.497098","245349.896366","246116.269981","246866.189598","247632.727073","248399.467054","249166.028953","249932.835715","253833.386716","239983.801684","240750.088423","241516.642902","242283.559728","243050.140177","243816.427534","244582.709636","253076.317557"
"Mixed","both","done","39","M_greet.wav","None","721.698317211","312","253066.497098","245349.896366","246116.269981","246866.189598","247632.727073","248399.467054","249166.028953","249932.835715","253833.386716","254599.886473","240750.088423","241516.642902","242283.559728","243050.140177","243816.427534","244582.709636","253842.875437"
"Mixed","both","done","39","F_dime.wav","space","199.488819111","312","253066.497098","245349.896366","246116.269981","246866.189598","247632.727073","248399.467054","249166.028953","249932.835715","253833.386716","254599.886473","255366.536485","241516.642902","242283.559728","243050.140177","243816.427534","244582.709636","254604.224739"
"Mixed","both","done","39","F_dime.wav","None","720.638175029","312","253066.497098","245349.896366","246116.269981","246866.189598","247632.727073","248399.467054","249166.028953","249932.835715","253833.386716","254599.886473","255366.536485","256133.121573","242283.559728","243050.140177","243816.427534","244582.709636","255376.638598"
"Mixed","both","done","39","M_done.wav","None","721.27104504","312","253066.497098","245349.896366","246116.269981","246866.189598","247632.727073","248399.467054","249166.028953","249932.835715","253833.386716","254599.886473","255366.536485","256133.121573","256899.689037","243050.140177","243816.427534","244582.709636","256142.93925"
"Mixed","both","done","39","F_lash.wav","space","566.411148291","312","253066.497098","245349.896366","246116.269981","246866.189598","247632.727073","248399.467054","249166.028953","249932.835715","253833.386716","254599.886473","255366.536485","256133.121573","256899.689037","257666.583294","243816.427534","244582.709636","256909.239592"
"Mixed","both","done","39","F_jaw.wav","None","720.214304049","312","253066.497098","245349.896366","246116.269981","246866.189598","247632.727073","248399.467054","249166.028953","249932.835715","253833.386716","254599.886473","255366.536485","256133.121573","256899.689037","257666.583294","258432.956291","244582.709636","257676.149616"
"Mixed","both","done","39","M_jaw.wav","None","720.35590373","312","253066.497098","245349.896366","246116.269981","246866.189598","247632.727073","248399.467054","249166.028953","249932.835715","253833.386716","254599.886473","255366.536485","256133.121573","256899.689037","257666.583294","258432.956291","259199.383083","258442.733775"
"Mixed","both","done","39","M_depth.wav","None","720.40135134","312","253066.497098","259966.275794","246116.269981","246866.189598","247632.727073","248399.467054","249166.028953","249932.835715","253833.386716","254599.886473","255366.536485","256133.121573","256899.689037","257666.583294","258432.956291","259199.383083","259209.525079"
"Mixed","both","done","39","M_depth.wav","None","720.753495581","312","253066.497098","259966.275794","260733.145626","246866.189598","247632.727073","248399.467054","249166.028953","249932.835715","253833.386716","254599.886473","255366.536485","256133.121573","256899.689037","257666.583294","258432.956291","259199.383083","259976.140155"
"Mixed","both","done","39","M_done.wav","None","720.594582148","312","253066.497098","259966.275794","260733.145626","261499.689285","247632.727073","248399.467054","249166.028953","249932.835715","253833.386716","254599.886473","255366.536485","256133.121573","256899.689037","257666.583294","258432.956291","259199.383083","260742.673302"
"Mixed","both","done","39","M_gnash.wav","space","549.861306325","312","253066.497098","259966.275794","260733.145626","261499.689285","262266.508413","248399.467054","249166.028953","249932.835715","253833.386716","254599.886473","255366.536485","256133.121573","256899.689037","257666.583294","258432.956291","259199.383083","261509.672058"
"Mixed","both","done","39","F_done.wav","None","719.584216364","312","253066.497098","259966.275794","260733.145626","261499.689285","262266.508413","263032.51288","249166.028953","249932.835715","253833.386716","254599.886473","255366.536485","256133.121573","256899.689037","257666.583294","258432.956291","259199.383083","262276.061441"
"Mixed","both","done","39","M_jolt.wav","None","720.653634053","312","253066.497098","259966.275794","260733.145626","261499.689285","262266.508413","263032.51288","263799.037061","249932.835715","253833.386716","254599.886473","255366.536485","256133.121573","256899.689037","257666.583294","258432.956291","259199.383083","263041.731695"
"Mixed","both","done","39","F_depth.wav","space","354.872140102","312","253066.497098","259966.275794","260733.145626","261499.689285","262266.508413","263032.51288","263799.037061","264548.928542","253833.386716","254599.886473","255366.536485","256133.121573","256899.689037","257666.583294","258432.956291","259199.383083","263808.605547"
"Mixed","both","ball","8","F_bluff.wav","None","736.332545057","312","267682.826749","259966.275794","260733.145626","261499.689285","262266.508413","263032.51288","263799.037061","264548.928542","253833.386716","254599.886473","255366.536485","256133.121573","256899.689037","257666.583294","258432.956291","259199.383083","264558.019052"
"Mixed","both","ball","8","F_park.wav","None","722.394566983","312","267682.826749","259966.275794","260733.145626","261499.689285","262266.508413","263032.51288","263799.037061","264548.928542","268449.263126","254599.886473","255366.536485","256133.121573","256899.689037","257666.583294","258432.956291","259199.383083","267692.405128"
"Mixed","both","ball","8","F_ball.wav","None","722.010578495","312","267682.826749","259966.275794","260733.145626","261499.689285","262266.508413","263032.51288","263799.037061","264548.928542","268449.263126","269216.311658","255366.536485","256133.121573","256899.689037","257666.583294","258432.956291","259199.383083","268459.090387"
"Mixed","both","ball","8","F_lash.wav","space","473.076594993","312","267682.826749","259966.275794","260733.145626","261499.689285","262266.508413","263032.51288","263799.037061","264548.928542","268449.263126","269216.311658","269981.996752","256133.121573","256899.689037","257666.583294","258432.956291","259199.383083","269226.216211"
"Mixed","both","ball","8","M_knife.wav","None","722.51947131","312","267682.826749","259966.275794","260733.145626","261499.689285","262266.508413","263032.51288","263799.037061","264548.928542","268449.263126","269216.311658","269981.996752","270749.379806","256899.689037","257666.583294","258432.956291","259199.383083","269991.282967"
"Mixed","both","ball","8","M_priest.wav","None","720.905606635","312","267682.826749","259966.275794","260733.145626","261499.689285","262266.508413","263032.51288","263799.037061","264548.928542","268449.263126","269216.311658","269981.996752","270749.379806","271515.725905","257666.583294","258432.956291","259199.383083","270759.423485"
"Mixed","both","ball","8","M_bluff.wav","None","721.692133695","312","267682.826749","259966.275794","260733.145626","261499.689285","262266.508413","263032.51288","263799.037061","264548.928542","268449.263126","269216.311658","269981.996752","270749.379806","271515.725905","272282.662827","258432.956291","259199.383083","271525.517303"
"Mixed","both","ball","8","M_ball.wav","None","721.292996313","312","267682.826749","259966.275794","260733.145626","261499.689285","262266.508413","263032.51288","263799.037061","264548.928542","268449.263126","269216.311658","269981.996752","270749.379806","271515.725905","272282.662827","273049.203085","259199.383083","272292.333648"
"Mixed","both","ball","8","M_lash.wav","space","384.125755168","312","267682.826749","259966.275794","260733.145626","261499.689285","262266.508413","263032.51288","263799.037061","264548.928542","268449.263126","269216.311658","269981.996752","270749.379806","271515.725905","272282.662827","273049.203085","273815.586593","273059.051369"
"Mixed","both","ball","8","F_ball.wav","None","720.36208678","312","267682.826749","274582.523825","260733.145626","261499.689285","262266.508413","263032.51288","263799.037061","264548.928542","268449.263126","269216.311658","269981.996752","270749.379806","271515.725905","272282.662827","273049.203085","273815.586593","273825.380155"
"Mixed","both","ball","8","F_lash.wav","space","474.939341191","312","267682.826749","274582.523825","275349.048005","261499.689285","262266.508413","263032.51288","263799.037061","264548.928542","268449.263126","269216.311658","269981.996752","270749.379806","271515.725905","272282.662827","273049.203085","273815.586593","274592.18939"
"Mixed","both","ball","8","M_ball.wav","None","719.639557879","312","267682.826749","274582.523825","275349.048005","276115.431514","262266.508413","263032.51288","263799.037061","264548.928542","268449.263126","269216.311658","269981.996752","270749.379806","271515.725905","272282.662827","273049.203085","273815.586593","275358.69502"
"Mixed","both","ball","8","F_jolt.wav","space","550.87136291","312","267682.826749","274582.523825","275349.048005","276115.431514","276882.327007","263032.51288","263799.037061","264548.928542","268449.263126","269216.311658","269981.996752","270749.379806","271515.725905","272282.662827","273049.203085","273815.586593","276124.195232"
"Mixed","both","ball","8","F_knife.wav","None","721.949981526","312","267682.826749","274582.523825","275349.048005","276115.431514","276882.327007","277648.585921","263799.037061","264548.928542","268449.263126","269216.311658","269981.996752","270749.379806","271515.725905","272282.662827","273049.203085","273815.586593","276891.995355"
"Mixed","both","ball","8","M_depth.wav","None","722.516379785","312","267682.826749","274582.523825","275349.048005","276115.431514","276882.327007","277648.585921","278415.502747","264548.928542","268449.263126","269216.311658","269981.996752","270749.379806","271515.725905","272282.662827","273049.203085","273815.586593","277657.758361"
"Mixed","both","ball","8","M_jaw.wav","None","721.942252014","312","267682.826749","274582.523825","275349.048005","276115.431514","276882.327007","277648.585921","278415.502747","279182.620842","268449.263126","269216.311658","269981.996752","270749.379806","271515.725905","272282.662827","273049.203085","273815.586593","278425.317022"
"Mixed","both","cave","19","M_gnash.wav","None","721.369979437","312","282315.444375","274582.523825","275349.048005","276115.431514","276882.327007","277648.585921","278415.502747","279182.620842","268449.263126","269216.311658","269981.996752","270749.379806","271515.725905","272282.662827","273049.203085","273815.586593","279192.492933"
"Mixed","both","cave","19","M_cave.wav","None","722.43475914","312","282315.444375","274582.523825","275349.048005","276115.431514","276882.327007","277648.585921","278415.502747","279182.620842","283081.856018","269216.311658","269981.996752","270749.379806","271515.725905","272282.662827","273049.203085","273815.586593","282325.193726"
"Mixed","both","cave","19","F_knife.wav","space","527.292862535","312","282315.444375","274582.523825","275349.048005","276115.431514","276882.327007","277648.585921","278415.502747","279182.620842","283081.856018","283848.737599","269981.996752","270749.379806","271515.725905","272282.662827","273049.203085","273815.586593","283091.591147"
"Mixed","both","cave","19","F_cling.wav","None","721.248166636","312","282315.444375","274582.523825","275349.048005","276115.431514","276882.327007","277648.585921","278415.502747","279182.620842","283081.856018","283848.737599","284615.680086","270749.379806","271515.725905","272282.662827","273049.203085","273815.586593","283857.955487"
"Mixed","both","cave","19","F_romp.wav","None","720.588399097","312","282315.444375","274582.523825","275349.048005","276115.431514","276882.327007","277648.585921","278415.502747","279182.620842","283081.856018","283848.737599","284615.680086","285382.163147","271515.725905","272282.662827","273049.203085","273815.586593","284625.33483"
"Mixed","both","cave","19","F_knife.wav","None","720.581597183","312","282315.444375","274582.523825","275349.048005","276115.431514","276882.327007","277648.585921","278415.502747","279182.620842","283081.856018","283848.737599","284615.680086","285382.163147","286148.748853","272282.662827","273049.203085","273815.586593","285392.314727"
"Mixed","both","cave","19","F_greet.wav","None","721.052771434","312","282315.444375","274582.523825","275349.048005","276115.431514","276882.327007","277648.585921","278415.502747","279182.620842","283081.856018","283848.737599","284615.680086","285382.163147","286148.748853","286915.445241","273049.203085","273815.586593","286158.343927"
"Mixed","both","cave","19","M_cling.wav","None","720.843154471","312","282315.444375","274582.523825","275349.048005","276115.431514","276882.327007","277648.585921","278415.502747","279182.620842","283081.856018","283848.737599","284615.680086","285382.163147","286148.748853","286915.445241","287682.085051","273815.586593","286924.975081"
"Mixed","both","cave","19","M_knife.wav","None","720.736491494","312","282315.444375","274582.523825","275349.048005","276115.431514","276882.327007","277648.585921","278415.502747","279182.620842","283081.856018","283848.737599","284615.680086","285382.163147","286148.748853","286915.445241","287682.085051","288448.218751","287691.604379"
"Mixed","both","cave","19","M_cave.wav","None","721.598764416","312","282315.444375","289215.524203","275349.048005","276115.431514","276882.327007","277648.585921","278415.502747","279182.620842","283081.856018","283848.737599","284615.680086","285382.163147","286148.748853","286915.445241","287682.085051","288448.218751","288457.714892"
"Mixed","both","cave","19","M_priest.wav","space","577.461483888","312","282315.444375","289215.524203","289981.748798","276115.431514","276882.327007","277648.585921","278415.502747","279182.620842","283081.856018","283848.737599","284615.680086","285382.163147","286148.748853","286915.445241","287682.085051","288448.218751","289225.208628"
"Mixed","both","cave","19","F_cave.wav","None","720.052917488","312","282315.444375","289215.524203","289981.748798","290748.690049","276882.327007","277648.585921","278415.502747","279182.620842","283081.856018","283848.737599","284615.680086","285382.163147","286148.748853","286915.445241","287682.085051","288448.218751","289991.289459"
"Mixed","both","cave","19","M_lash.wav","space","587.793000042","312","282315.444375","289215.524203","289981.748798","290748.690049","291515.129517","277648.585921","278415.502747","279182.620842","283081.856018","283848.737599","284615.680086","285382.163147","286148.748853","286915.445241","287682.085051","288448.218751","290758.864816"
"Mixed","both","cave","19","M_park.wav","None","719.32451427","312","282315.444375","289215.524203","289981.748798","290748.690049","291515.129517","292282.221024","278415.502747","279182.620842","283081.856018","283848.737599","284615.680086","285382.163147","286148.748853","286915.445241","287682.085051","288448.218751","291524.532907"
"Mixed","both","cave","19","F_cave.wav","None","718.654234894","312","282315.444375","289215.524203","289981.748798","290748.690049","291515.129517","292282.221024","293048.405737","279182.620842","283081.856018","283848.737599","284615.680086","285382.163147","286148.748853","286915.445241","287682.085051","288448.218751","292292.15062"
"Mixed","both","cave","19","F_romp.wav","space","478.281463031","312","282315.444375","289215.524203","289981.748798","290748.690049","291515.129517","292282.221024","293048.405737","293798.009382","283081.856018","283848.737599","284615.680086","285382.163147","286148.748853","286915.445241","287682.085051","288448.218751","293052.293543"
"Mixed","both","done","47","M_jaw.wav","None","735.510463361","312","296931.855029","289215.524203","289981.748798","290748.690049","291515.129517","292282.221024","293048.405737","293798.009382","283081.856018","283848.737599","284615.680086","285382.163147","286148.748853","286915.445241","287682.085051","288448.218751","293807.690405"
"Mixed","both","done","47","F_jaw.wav","None","721.797251608","312","296931.855029","289215.524203","289981.748798","290748.690049","291515.129517","292282.221024","293048.405737","293798.009382","297698.179177","283848.737599","284615.680086","285382.163147","286148.748853","286915.445241","287682.085051","288448.218751","296941.535125"
"Mixed","both","done","47","M_done.wav","None","722.347882576","312","296931.855029","289215.524203","289981.748798","290748.690049","291515.129517","292282.221024","293048.405737","293798.009382","297698.179177","298465.336537","284615.680086","285382.163147","286148.748853","286915.445241","287682.085051","288448.218751","297707.376351"
"Mixed","both","done","47","M_park.wav","space","463.457095902","312","296931.855029","289215.524203","289981.748798","290748.690049","291515.129517","292282.221024","293048.405737","293798.009382","297698.179177","298465.336537","299231.824854","285382.163147","286148.748853","286915.445241","287682.085051","288448.218751","298474.951399"
"Mixed","both","done","47","F_park.wav","None","720.017362852","312","296931.855029","289215.524203","289981.748798","290748.690049","291515.129517","292282.221024","293048.405737","293798.009382","297698.179177","298465.336537","299231.824854","299998.340069","286148.748853","286915.445241","287682.085051","288448.218751","299241.841018"
"Mixed","both","done","47","F_done.wav","None","720.373217016","312","296931.855029","289215.524203","289981.748798","290748.690049","291515.129517","292282.221024","293048.405737","293798.009382","297698.179177","298465.336537","299231.824854","299998.340069","300765.201863","286915.445241","287682.085051","288448.218751","300007.908246"
"Mixed","both","done","47","F_reek.wav","space","587.486922275","312","296931.855029","289215.524203","289981.748798","290748.690049","291515.129517","292282.221024","293048.405737","293798.009382","297698.179177","298465.336537","299231.824854","299998.340069","300765.201863","301531.829925","287682.085051","288448.218751","300774.857225"
"Mixed","both","done","47","M_done.wav","None","719.299162272","312","296931.855029","289215.524203","289981.748798","290748.690049","291515.129517","292282.221024","293048.405737","293798.009382","297698.179177","298465.336537","299231.824854","299998.340069","300765.201863","301531.829925","302298.473136","288448.218751","301541.580511"
"Mixed","both","done","47","M_park.wav","None","719.350175001","312","296931.855029","289215.524203","289981.748798","290748.690049","291515.129517","292282.221024","293048.405737","293798.009382","297698.179177","298465.336537","299231.824854","299998.340069","300765.201863","301531.829925","302298.473136","303065.147882","302308.748692"
"Mixed","both","done","47","F_gnash.wav","space","0.0364817678928","312","296931.855029","303831.652894","289981.748798","290748.690049","291515.129517","292282.221024","293048.405737","293798.009382","297698.179177","298465.336537","299231.824854","299998.340069","300765.201863","301531.829925","302298.473136","303065.147882","303074.811901"
"Mixed","both","done","47","F_knife.wav","None","719.141486101","312","296931.855029","303831.652894","304598.319911","290748.690049","291515.129517","292282.221024","293048.405737","293798.009382","297698.179177","298465.336537","299231.824854","299998.340069","300765.201863","301531.829925","302298.473136","303065.147882","303841.533023"
"Mixed","both","done","47","M_gnash.wav","None","719.466422684","312","296931.855029","303831.652894","304598.319911","305364.950446","291515.129517","292282.221024","293048.405737","293798.009382","297698.179177","298465.336537","299231.824854","299998.340069","300765.201863","301531.829925","302298.473136","303065.147882","304608.443975"
"Mixed","both","done","47","M_priest.wav","None","720.230071805","312","296931.855029","303831.652894","304598.319911","305364.950446","306131.80482","292282.221024","293048.405737","293798.009382","297698.179177","298465.336537","299231.824854","299998.340069","300765.201863","301531.829925","302298.473136","303065.147882","305374.774615"
"Mixed","both","done","47","F_dime.wav","None","719.746839721","312","296931.855029","303831.652894","304598.319911","305364.950446","306131.80482","306898.080119","293048.405737","293798.009382","297698.179177","298465.336537","299231.824854","299998.340069","300765.201863","301531.829925","302298.473136","303065.147882","306141.790066"
"Mixed","both","done","47","F_done.wav","space","478.53652807","312","296931.855029","303831.652894","304598.319911","305364.950446","306131.80482","306898.080119","307664.889045","293798.009382","297698.179177","298465.336537","299231.824854","299998.340069","300765.201863","301531.829925","302298.473136","303065.147882","306907.628818"
"Mixed","both","done","47","M_dime.wav","space","543.530443218","312","296931.855029","303831.652894","304598.319911","305364.950446","306131.80482","306898.080119","307664.889045","308413.990908","297698.179177","298465.336537","299231.824854","299998.340069","300765.201863","301531.829925","302298.473136","303065.147882","307674.591092"
"Mixed","both","ball","7","F_lash.wav","None","741.028829478","312","311548.142015","303831.652894","304598.319911","305364.950446","306131.80482","306898.080119","307664.889045","308413.990908","297698.179177","298465.336537","299231.824854","299998.340069","300765.201863","301531.829925","302298.473136","303065.147882","308418.342468"
"Mixed","both","ball","7","M_cad.wav","None","722.527200822","312","311548.142015","303831.652894","304598.319911","305364.950446","306131.80482","306898.080119","307664.889045","308413.990908","312314.510684","298465.336537","299231.824854","299998.340069","300765.201863","301531.829925","302298.473136","303065.147882","311557.581887"
"Mixed","both","ball","7","F_lash.wav","None","722.112913616","312","311548.142015","303831.652894","304598.319911","305364.950446","306131.80482","306898.080119","307664.889045","308413.990908","312314.510684","313081.493981","299231.824854","299998.340069","300765.201863","301531.829925","302298.473136","303065.147882","312324.561783"
"Mixed","both","ball","7","F_knife.wav","None","722.189278807","312","311548.142015","303831.652894","304598.319911","305364.950446","306131.80482","306898.080119","307664.889045","308413.990908","312314.510684","313081.493981","313847.775155","299998.340069","300765.201863","301531.829925","302298.473136","303065.147882","313091.143779"
"Mixed","both","ball","7","M_ball.wav","None","722.281720489","312","311548.142015","303831.652894","304598.319911","305364.950446","306131.80482","306898.080119","307664.889045","308413.990908","312314.510684","313081.493981","313847.775155","314614.806992","300765.201863","301531.829925","302298.473136","303065.147882","313857.667959"
"Mixed","both","ball","7","F_gnash.wav","space","633.555956185","312","311548.142015","303831.652894","304598.319911","305364.950446","306131.80482","306898.080119","307664.889045","308413.990908","312314.510684","313081.493981","313847.775155","314614.806992","315381.271503","301531.829925","302298.473136","303065.147882","314624.385371"
"Mixed","both","ball","7","F_park.wav","None","721.92895785","312","311548.142015","303831.652894","304598.319911","305364.950446","306131.80482","306898.080119","307664.889045","308413.990908","312314.510684","313081.493981","313847.775155","314614.806992","315381.271503","316147.967582","302298.473136","303065.147882","315391.276536"
"Mixed","both","ball","7","M_priest.wav","None","721.761387773","312","311548.142015","303831.652894","304598.319911","305364.950446","306131.80482","306898.080119","307664.889045","308413.990908","312314.510684","313081.493981","313847.775155","314614.806992","315381.271503","316147.967582","316914.644802","303065.147882","316158.113596"
"Mixed","both","ball","7","M_jaw.wav","None","722.572339233","312","311548.142015","303831.652894","304598.319911","305364.950446","306131.80482","306898.080119","307664.889045","308413.990908","312314.510684","313081.493981","313847.775155","314614.806992","315381.271503","316147.967582","316914.644802","317681.375816","316924.383021"
"Mixed","both","ball","7","F_ball.wav","None","722.862958442","312","311548.142015","318447.454175","304598.319911","305364.950446","306131.80482","306898.080119","307664.889045","308413.990908","312314.510684","313081.493981","313847.775155","314614.806992","315381.271503","316147.967582","316914.644802","317681.375816","317691.263366"
"Mixed","both","ball","7","M_depth.wav","space","496.562035289","312","311548.142015","318447.454175","319214.366363","305364.950446","306131.80482","306898.080119","307664.889045","308413.990908","312314.510684","313081.493981","313847.775155","314614.806992","315381.271503","316147.967582","316914.644802","317681.375816","318457.258248"
"Mixed","both","ball","7","F_priest.wav","None","722.559663467","312","311548.142015","318447.454175","319214.366363","319980.887453","306131.80482","306898.080119","307664.889045","308413.990908","312314.510684","313081.493981","313847.775155","314614.806992","315381.271503","316147.967582","316914.644802","317681.375816","319223.936704"
"Mixed","both","ball","7","F_ball.wav","None","723.06948388","312","311548.142015","318447.454175","319214.366363","319980.887453","320747.819119","306898.080119","307664.889045","308413.990908","312314.510684","313081.493981","313847.775155","314614.806992","315381.271503","316147.967582","316914.644802","317681.375816","319990.00517"
"Mixed","both","ball","7","M_greet.wav","space","451.483580749","312","311548.142015","318447.454175","319214.366363","319980.887453","320747.819119","321514.627117","307664.889045","308413.990908","312314.510684","313081.493981","313847.775155","314614.806992","315381.271503","316147.967582","316914.644802","317681.375816","320758.290689"
"Mixed","both","ball","7","M_ball.wav","None","720.54820694","312","311548.142015","318447.454175","319214.366363","319980.887453","320747.819119","321514.627117","322281.099666","308413.990908","312314.510684","313081.493981","313847.775155","314614.806992","315381.271503","316147.967582","316914.644802","317681.375816","321524.275369"
"Mixed","both","ball","7","M_greet.wav","space","534.376553725","312","311548.142015","318447.454175","319214.366363","319980.887453","320747.819119","321514.627117","322281.099666","323047.518111","312314.510684","313081.493981","313847.775155","314614.806992","315381.271503","316147.967582","316914.644802","317681.375816","322291.352344"
"Mixed","both","done","42","F_depth.wav","None","720.448963344","312","326164.416325","318447.454175","319214.366363","319980.887453","320747.819119","321514.627117","322281.099666","323047.518111","312314.510684","313081.493981","313847.775155","314614.806992","315381.271503","316147.967582","316914.644802","317681.375816","323057.189551"
"Mixed","both","done","42","F_park.wav","None","722.248330247","312","326164.416325","318447.454175","319214.366363","319980.887453","320747.819119","321514.627117","322281.099666","323047.518111","326930.944525","313081.493981","313847.775155","314614.806992","315381.271503","316147.967582","316914.644802","317681.375816","326173.991613"
"Mixed","both","done","42","F_done.wav","None","721.63988417","312","326164.416325","318447.454175","319214.366363","319980.887453","320747.819119","321514.627117","322281.099666","323047.518111","326930.944525","327697.283823","313847.775155","314614.806992","315381.271503","316147.967582","316914.644802","317681.375816","326941.200604"
"Mixed","both","done","42","F_gnash.wav","None","723.342480604","312","326164.416325","318447.454175","319214.366363","319980.887453","320747.819119","321514.627117","322281.099666","323047.518111","326930.944525","327697.283823","328463.953004","314614.806992","315381.271503","316147.967582","316914.644802","317681.375816","327706.689067"
"Mixed","both","done","42","F_park.wav","space","16.2855018862","312","326164.416325","318447.454175","319214.366363","319980.887453","320747.819119","321514.627117","322281.099666","323047.518111","326930.944525","327697.283823","328463.953004","329230.280244","315381.271503","316147.967582","316914.644802","317681.375816","328473.246329"
"Mixed","both","done","42","M_romp.wav","None","723.073812667","312","326164.416325","318447.454175","319214.366363","319980.887453","320747.819119","321514.627117","322281.099666","323047.518111","326930.944525","327697.283823","328463.953004","329230.280244","329996.979723","316147.967582","316914.644802","317681.375816","329239.632311"
"Mixed","both","done","42","M_knife.wav","None","722.882745788","312","326164.416325","318447.454175","319214.366363","319980.887453","320747.819119","321514.627117","322281.099666","323047.518111","326930.944525","327697.283823","328463.953004","329230.280244","329996.979723","330764.195516","316914.644802","317681.375816","330007.018147"
"Mixed","both","done","42","F_done.wav","None","723.095145077","312","326164.416325","318447.454175","319214.366363","319980.887453","320747.819119","321514.627117","322281.099666","323047.518111","326930.944525","327697.283823","328463.953004","329230.280244","329996.979723","330764.195516","331530.547799","317681.375816","330774.006391"
"Mixed","both","done","42","F_bluff.wav","space","605.462344363","312","326164.416325","318447.454175","319214.366363","319980.887453","320747.819119","321514.627117","322281.099666","323047.518111","326930.944525","327697.283823","328463.953004","329230.280244","329996.979723","330764.195516","331530.547799","332297.163494","331539.978704"
"Mixed","both","done","42","M_gnash.wav","None","723.117095884","312","326164.416325","333064.301067","319214.366363","319980.887453","320747.819119","321514.627117","322281.099666","323047.518111","326930.944525","327697.283823","328463.953004","329230.280244","329996.979723","330764.195516","331530.547799","332297.163494","332306.500103"
"Mixed","both","done","42","M_done.wav","None","722.988481633","312","326164.416325","333064.301067","333830.499383","319980.887453","320747.819119","321514.627117","322281.099666","323047.518111","326930.944525","327697.283823","328463.953004","329230.280244","329996.979723","330764.195516","331530.547799","332297.163494","333073.977144"
"Mixed","both","done","42","F_cad.wav","space","689.612400718","312","326164.416325","333064.301067","333830.499383","334597.484845","320747.819119","321514.627117","322281.099666","323047.518111","326930.944525","327697.283823","328463.953004","329230.280244","329996.979723","330764.195516","331530.547799","332297.163494","333839.782196"
"Mixed","both","done","42","M_lash.wav","None","722.252967302","312","326164.416325","333064.301067","333830.499383","334597.484845","335364.237502","321514.627117","322281.099666","323047.518111","326930.944525","327697.283823","328463.953004","329230.280244","329996.979723","330764.195516","331530.547799","332297.163494","334607.194312"
"Mixed","both","done","42","M_done.wav","None","722.668182105","312","326164.416325","333064.301067","333830.499383","334597.484845","335364.237502","336130.690264","322281.099666","323047.518111","326930.944525","327697.283823","328463.953004","329230.280244","329996.979723","330764.195516","331530.547799","332297.163494","335373.598535"
"Mixed","both","done","42","M_knife.wav","None","723.282501567","312","326164.416325","333064.301067","333830.499383","334597.484845","335364.237502","336130.690264","336896.961853","323047.518111","326930.944525","327697.283823","328463.953004","329230.280244","329996.979723","330764.195516","331530.547799","332297.163494","336139.971223"
"Mixed","both","done","42","M_lash.wav","space","158.886520192","312","326164.416325","333064.301067","333830.499383","334597.484845","335364.237502","336130.690264","336896.961853","337663.951025","326930.944525","327697.283823","328463.953004","329230.280244","329996.979723","330764.195516","331530.547799","332297.163494","336906.38472"
"Mixed","both","tile","26","F_romp.wav","None","721.350810956","312","340780.443918","333064.301067","333830.499383","334597.484845","335364.237502","336130.690264","336896.961853","337663.951025","326930.944525","327697.283823","328463.953004","329230.280244","329996.979723","330764.195516","331530.547799","332297.163494","337673.640396"
"Mixed","both","tile","26","M_jolt.wav","None","722.850592341","312","340780.443918","333064.301067","333830.499383","334597.484845","335364.237502","336130.690264","336896.961853","337663.951025","341546.969645","327697.283823","328463.953004","329230.280244","329996.979723","330764.195516","331530.547799","332297.163494","340789.680046"
"Mixed","both","tile","26","M_depth.wav","None","723.221595399","312","340780.443918","333064.301067","333830.499383","334597.484845","335364.237502","336130.690264","336896.961853","337663.951025","341546.969645","342313.612237","328463.953004","329230.280244","329996.979723","330764.195516","331530.547799","332297.163494","341556.616041"
"Mixed","both","tile","26","M_tile.wav","None","723.585797008","312","340780.443918","333064.301067","333830.499383","334597.484845","335364.237502","336130.690264","336896.961853","337663.951025","341546.969645","342313.612237","343080.15033","329230.280244","329996.979723","330764.195516","331530.547799","332297.163494","342323.211022"
"Mixed","both","tile","26","F_priest.wav","None","724.384381436","312","340780.443918","333064.301067","333830.499383","334597.484845","335364.237502","336130.690264","336896.961853","337663.951025","341546.969645","342313.612237","343080.15033","343846.629682","329996.979723","330764.195516","331530.547799","332297.163494","343089.756535"
"Mixed","both","tile","26","M_tile.wav","space","209.101516288","312","340780.443918","333064.301067","333830.499383","334597.484845","335364.237502","336130.690264","336896.961853","337663.951025","341546.969645","342313.612237","343080.15033","343846.629682","344613.561348","330764.195516","331530.547799","332297.163494","343855.983604"
"Mixed","both","tile","26","M_bluff.wav","space","649.910711683","312","340780.443918","333064.301067","333830.499383","334597.484845","335364.237502","336130.690264","336896.961853","337663.951025","341546.969645","342313.612237","343080.15033","343846.629682","344613.561348","345379.980102","331530.547799","332297.163494","344623.163843"
"Mixed","both","tile","26","F_tile.wav","None","723.843644373","312","340780.443918","333064.301067","333830.499383","334597.484845","335364.237502","336130.690264","336896.961853","337663.951025","341546.969645","342313.612237","343080.15033","343846.629682","344613.561348","345379.980102","346146.910531","332297.163494","345389.322585"
"Mixed","both","tile","26","F_cling.wav","None","723.567246925","312","340780.443918","333064.301067","333830.499383","334597.484845","335364.237502","336130.690264","336896.961853","337663.951025","341546.969645","342313.612237","343080.15033","343846.629682","344613.561348","345379.980102","346146.910531","346913.427292","346156.833944"
"Mixed","both","tile","26","F_tile.wav","space","70.471779909","312","340780.443918","347680.33948","333830.499383","334597.484845","335364.237502","336130.690264","336896.961853","337663.951025","341546.969645","342313.612237","343080.15033","343846.629682","344613.561348","345379.980102","346146.910531","346913.427292","346922.513474"
"Mixed","both","tile","26","M_jaw.wav","None","722.480515949","312","340780.443918","347680.33948","348446.883139","334597.484845","335364.237502","336130.690264","336896.961853","337663.951025","341546.969645","342313.612237","343080.15033","343846.629682","344613.561348","345379.980102","346146.910531","346913.427292","347690.543619"
"Mixed","both","tile","26","M_lash.wav","space","56.4713496715","312","340780.443918","347680.33948","348446.883139","349213.419996","335364.237502","336130.690264","336896.961853","337663.951025","341546.969645","342313.612237","343080.15033","343846.629682","344613.561348","345379.980102","346146.910531","346913.427292","348456.483469"
"Mixed","both","tile","26","F_jaw.wav","None","723.160688765","312","340780.443918","347680.33948","348446.883139","349213.419996","349980.327856","336130.690264","336896.961853","337663.951025","341546.969645","342313.612237","343080.15033","343846.629682","344613.561348","345379.980102","346146.910531","346913.427292","349222.973641"
"Mixed","both","tile","26","M_dime.wav","None","722.747638356","312","340780.443918","347680.33948","348446.883139","349213.419996","349980.327856","350746.424455","336896.961853","337663.951025","341546.969645","342313.612237","343080.15033","343846.629682","344613.561348","345379.980102","346146.910531","346913.427292","349990.326087"
"Mixed","both","tile","26","F_cad.wav","None","724.865758792","312","340780.443918","347680.33948","348446.883139","349213.419996","349980.327856","350746.424455","351512.992538","337663.951025","341546.969645","342313.612237","343080.15033","343846.629682","344613.561348","345379.980102","346146.910531","346913.427292","350755.631213"
"Mixed","both","tile","26","F_jaw.wav","None","724.713647272","312","340780.443918","347680.33948","348446.883139","349213.419996","349980.327856","350746.424455","351512.992538","352279.363061","341546.969645","342313.612237","343080.15033","343846.629682","344613.561348","345379.980102","346146.910531","346913.427292","351522.693039"
"Mixed","both","tile","30","M_greet.wav","None","726.79002909","312","355413.505821","347680.33948","348446.883139","349213.419996","349980.327856","350746.424455","351512.992538","352279.363061","341546.969645","342313.612237","343080.15033","343846.629682","344613.561348","345379.980102","346146.910531","346913.427292","352288.021353"
"Mixed","both","tile","30","M_romp.wav","None","722.861412913","312","355413.505821","347680.33948","348446.883139","349213.419996","349980.327856","350746.424455","351512.992538","352279.363061","356179.330042","342313.612237","343080.15033","343846.629682","344613.561348","345379.980102","346146.910531","346913.427292","355423.438199"
"Mixed","both","tile","30","M_lash.wav","None","725.051260088","312","355413.505821","347680.33948","348446.883139","349213.419996","349980.327856","350746.424455","351512.992538","352279.363061","356179.330042","356946.250269","343080.15033","343846.629682","344613.561348","345379.980102","346146.910531","346913.427292","356188.299358"
"Mixed","both","tile","30","F_tile.wav","None","724.932230078","312","355413.505821","347680.33948","348446.883139","349213.419996","349980.327856","350746.424455","351512.992538","352279.363061","356179.330042","356946.250269","357713.066615","343846.629682","344613.561348","345379.980102","346146.910531","346913.427292","356955.340161"
"Mixed","both","tile","30","F_lash.wav","space","437.875177246","312","355413.505821","347680.33948","348446.883139","349213.419996","349980.327856","350746.424455","351512.992538","352279.363061","356179.330042","356946.250269","357713.066615","358480.041565","344613.561348","345379.980102","346146.910531","346913.427292","357722.748257"
"Mixed","both","tile","30","M_depth.wav","None","723.660616204","312","355413.505821","347680.33948","348446.883139","349213.419996","349980.327856","350746.424455","351512.992538","352279.363061","356179.330042","356946.250269","357713.066615","358480.041565","359245.874443","345379.980102","346146.910531","346913.427292","358489.74794"
"Mixed","both","tile","30","F_greet.wav","None","725.335696246","312","355413.505821","347680.33948","348446.883139","349213.419996","349980.327856","350746.424455","351512.992538","352279.363061","356179.330042","356946.250269","357713.066615","358480.041565","359245.874443","360012.569903","346146.910531","346913.427292","359255.168077"
"Mixed","both","tile","30","M_tile.wav","None","726.413460914","312","355413.505821","347680.33948","348446.883139","349213.419996","349980.327856","350746.424455","351512.992538","352279.363061","356179.330042","356946.250269","357713.066615","358480.041565","359245.874443","360012.569903","360779.738702","346913.427292","360021.69504"
