"Condition","Talker","Target","Trial","current_stimulus","response_response","response_time_response","subject_nr","time_Audio1","time_Audio10","time_Audio11","time_Audio12","time_Audio13","time_Audio14","time_Audio15","time_Audio16","time_Audio2","time_Audio3","time_Audio4","time_Audio5","time_Audio6","time_Audio7","time_Audio8","time_Audio9","time_response","title"
"Mixed","Female","cave","24","M_park.wav","NA","NA","407","252832.897553","NA","NA","NA","NA","NA","NA","NA","NA","NA","NA","NA","NA","NA","NA","NA","NA","Mapping"
"Mixed","Female","cave","24","M_gnash.wav","None","721.082074417","407","252832.897553","NA","NA","NA","NA","NA","NA","NA","253600.158167","NA","NA","NA","NA","NA","NA","NA","252844.256197","Mapping"
"Mixed","Female","cave","24","F_greet.wav","None","726.376345126","407","252832.897553","NA","NA","NA","NA","NA","NA","NA","253600.158167","254367.331645","NA","NA","NA","NA","NA","NA","253603.969922","Mapping"
"Mixed","Female","cave","24","M_bluff.wav","None","724.935293916","407","252832.897553","NA","NA","NA","NA","NA","NA","NA","253600.158167","254367.331645","255117.565861","NA","NA","NA","NA","NA","254370.776227","Mapping"
"Mixed","Female","cave","24","M_greet.wav","None","740.124021747","407","252832.897553","NA","NA","NA","NA","NA","NA","NA","253600.158167","254367.331645","255117.565861","255884.724617","NA","NA","NA","NA","255120.689241","Mapping"
"Mixed","Female","cave","24","F_cave.wav","None","738.293261733","407","252832.897553","NA","NA","NA","NA","NA","NA","NA","253600.158167","254367.331645","255117.565861","255884.724617","256651.578997","NA","NA","NA","255887.804729","Mapping"
"Mixed","Female","cave","24","F_park.wav","space","595.076027771","407","252832.897553","NA","NA","NA","NA","NA","NA","NA","253600.158167","254367.331645","255117.565861","255884.724617","256651.578997","257418.846222","NA","NA","256654.457794","Mapping"
"Mixed","Female","cave","24","F_jaw.wav","None","734.469187765","407","252832.897553","NA","NA","NA","NA","NA","NA","NA","253600.158167","254367.331645","255117.565861","255884.724617","256651.578997","257418.846222","258186.116151","NA","257421.684455","Mapping"
"Mixed","Female","cave","24","F_cave.wav","None","731.968381005","407","252832.897553","NA","NA","NA","NA","NA","NA","NA","253600.158167","254367.331645","255117.565861","255884.724617","256651.578997","257418.846222","258186.116151","258953.60362","258188.950779","Mapping"
"Mixed","Female","cave","24","M_greet.wav","space","632.705913178","407","252832.897553","259720.562262","NA","NA","NA","NA","NA","NA","253600.158167","254367.331645","255117.565861","255884.724617","256651.578997","257418.846222","258186.116151","258953.60362","258956.84298","Mapping"
"Mixed","Female","cave","24","F_cave.wav","None","726.936720545","407","252832.897553","259720.562262","260470.980966","NA","NA","NA","NA","NA","253600.158167","254367.331645","255117.565861","255884.724617","256651.578997","257418.846222","258186.116151","258953.60362","259723.580778","Mapping"
"Mixed","Female","cave","24","M_cling.wav","space","507.719058714","407","252832.897553","259720.562262","260470.980966","261238.219947","NA","NA","NA","NA","253600.158167","254367.331645","255117.565861","255884.724617","256651.578997","257418.846222","258186.116151","258953.60362","260473.790956","Mapping"
"Mixed","Female","cave","24","M_park.wav","None","739.241543139","407","252832.897553","259720.562262","260470.980966","261238.219947","262005.426477","NA","NA","NA","253600.158167","254367.331645","255117.565861","255884.724617","256651.578997","257418.846222","258186.116151","258953.60362","261241.60774","Mapping"
"Mixed","Female","cave","24","F_cave.wav","None","737.288191613","407","252832.897553","259720.562262","260470.980966","261238.219947","262005.426477","262772.729458","NA","NA","253600.158167","254367.331645","255117.565861","255884.724617","256651.578997","257418.846222","258186.116151","258953.60362","262008.671246","Mapping"
"Mixed","Female","cave","24","M_greet.wav","space","457.912050205","407","252832.897553","259720.562262","260470.980966","261238.219947","262005.426477","262772.729458","263539.968439","NA","253600.158167","254367.331645","255117.565861","255884.724617","256651.578997","257418.846222","258186.116151","258953.60362","262775.569194","Mapping"
"Mixed","Female","cave","24","F_greet.wav","None","732.380625012","407","252832.897553","259720.562262","260470.980966","261238.219947","262005.426477","262772.729458","263539.968439","264307.363664","253600.158167","254367.331645","255117.565861","255884.724617","256651.578997","257418.846222","258186.116151","258953.60362","263543.024513","Mapping"
"Mixed","Male","ball","1","F_jaw.wav","None","729.745808903","407","267443.428524","259720.562262","260470.980966","261238.219947","262005.426477","262772.729458","263539.968439","264307.363664","253600.158167","254367.331645","255117.565861","255884.724617","256651.578997","257418.846222","258186.116151","258953.60362","264310.563663","Mapping"
"Mixed","Male","ball","1","M_ball.wav","None","715.386076128","407","267443.428524","259720.562262","260470.980966","261238.219947","262005.426477","262772.729458","263539.968439","264307.363664","268193.71382","254367.331645","255117.565861","255884.724617","256651.578997","257418.846222","258186.116151","258953.60362","267458.55866","Mapping"
"Mixed","Male","ball","1","M_jaw.wav","space","467.827540183","407","267443.428524","259720.562262","260470.980966","261238.219947","262005.426477","262772.729458","263539.968439","264307.363664","268193.71382","268960.866566","255117.565861","255884.724617","256651.578997","257418.846222","258186.116151","258953.60362","268196.714307","Mapping"
"Mixed","Male","ball","1","F_dime.wav","None","739.59759937","407","267443.428524","259720.562262","260470.980966","261238.219947","262005.426477","262772.729458","263539.968439","264307.363664","268193.71382","268960.866566","269728.182767","255884.724617","256651.578997","257418.846222","258186.116151","258953.60362","268964.105926","Mapping"
"Mixed","Male","ball","1","M_ball.wav","None","737.807102255","407","267443.428524","259720.562262","260470.980966","261238.219947","262005.426477","262772.729458","263539.968439","264307.363664","268193.71382","268960.866566","269728.182767","270495.020321","256651.578997","257418.846222","258186.116151","258953.60362","269731.175743","Mapping"
"Mixed","Male","ball","1","F_priest.wav","space","435.98499576","407","267443.428524","259720.562262","260470.980966","261238.219947","262005.426477","262772.729458","263539.968439","264307.363664","268193.71382","268960.866566","269728.182767","270495.020321","271262.160447","257418.846222","258186.116151","258953.60362","270497.657541","Mapping"
"Mixed","Male","ball","1","F_jolt.wav","None","733.792530691","407","267443.428524","259720.562262","260470.980966","261238.219947","262005.426477","262772.729458","263539.968439","264307.363664","268193.71382","268960.866566","269728.182767","270495.020321","271262.160447","272029.462526","258186.116151","258953.60362","271264.614982","Mapping"
"Mixed","Male","ball","1","M_ball.wav","None","730.947686476","407","267443.428524","259720.562262","260470.980966","261238.219947","262005.426477","262772.729458","263539.968439","264307.363664","268193.71382","268960.866566","269728.182767","270495.020321","271262.160447","272029.462526","272796.877282","258953.60362","272032.471727","Mapping"
"Mixed","Male","ball","1","F_priest.wav","space","402.627484656","407","267443.428524","259720.562262","260470.980966","261238.219947","262005.426477","262772.729458","263539.968439","264307.363664","268193.71382","268960.866566","269728.182767","270495.020321","271262.160447","272029.462526","272796.877282","273564.099436","272799.925243","Mapping"
"Mixed","Male","ball","1","M_ball.wav","None","725.96350018","407","267443.428524","274314.389539","260470.980966","261238.219947","262005.426477","262772.729458","263539.968439","264307.363664","268193.71382","268960.866566","269728.182767","270495.020321","271262.160447","272029.462526","272796.877282","273564.099436","273567.204787","Mapping"
"Mixed","Male","ball","1","M_knife.wav","space","525.398677814","407","267443.428524","274314.389539","275081.629121","261238.219947","262005.426477","262772.729458","263539.968439","264307.363664","268193.71382","268960.866566","269728.182767","270495.020321","271262.160447","272029.462526","272796.877282","273564.099436","274317.166177","Mapping"
"Mixed","Male","ball","1","M_gnash.wav","None","738.61175929","407","267443.428524","274314.389539","275081.629121","275848.858787","262005.426477","262772.729458","263539.968439","264307.363664","268193.71382","268960.866566","269728.182767","270495.020321","271262.160447","272029.462526","272796.877282","273564.099436","275084.498303","Mapping"
"Mixed","Male","ball","1","F_priest.wav","None","736.451985291","407","267443.428524","274314.389539","275081.629121","275848.858787","276616.029261","262772.729458","263539.968439","264307.363664","268193.71382","268960.866566","269728.182767","270495.020321","271262.160447","272029.462526","272796.877282","273564.099436","275851.404364","Mapping"
"Mixed","Male","ball","1","F_cling.wav","None","733.95658698","407","267443.428524","274314.389539","275081.629121","275848.858787","276616.029261","277383.307603","263539.968439","264307.363664","268193.71382","268960.866566","269728.182767","270495.020321","271262.160447","272029.462526","272796.877282","273564.099436","276618.876809","Mapping"
"Mixed","Male","ball","1","M_lash.wav","None","732.156775314","407","267443.428524","274314.389539","275081.629121","275848.858787","276616.029261","277383.307603","278150.664969","264307.363664","268193.71382","268960.866566","269728.182767","270495.020321","271262.160447","272029.462526","272796.877282","273564.099436","277386.052992","Mapping"
"Mixed","Male","ball","1","F_cling.wav","None","729.28669167","407","267443.428524","274314.389539","275081.629121","275848.858787","276616.029261","277383.307603","278150.664969","278917.896438","268193.71382","268960.866566","269728.182767","270495.020321","271262.160447","272029.462526","272796.877282","273564.099436","278153.6934","Mapping"
"Mixed","Male","tile","26","F_knife.wav","None","727.300288511","407","282037.507294","274314.389539","275081.629121","275848.858787","276616.029261","277383.307603","278150.664969","278917.896438","268193.71382","268960.866566","269728.182767","270495.020321","271262.160447","272029.462526","272796.877282","273564.099436","278920.996681","Mapping"
"Mixed","Male","tile","26","M_tile.wav","None","727.526241494","407","282037.507294","274314.389539","275081.629121","275848.858787","276616.029261","277383.307603","278150.664969","278917.896438","282804.709016","268960.866566","269728.182767","270495.020321","271262.160447","272029.462526","272796.877282","273564.099436","282041.043819","Mapping"
"Mixed","Male","tile","26","M_depth.wav","space","380.042101771","407","282037.507294","274314.389539","275081.629121","275848.858787","276616.029261","277383.307603","278150.664969","278917.896438","282804.709016","283554.41681","269728.182767","270495.020321","271262.160447","272029.462526","272796.877282","273564.099436","282808.469691","Mapping"
"Mixed","Male","tile","26","F_romp.wav","None","741.703889817","407","282037.507294","274314.389539","275081.629121","275848.858787","276616.029261","277383.307603","278150.664969","278917.896438","282804.709016","283554.41681","284321.678927","270495.020321","271262.160447","272029.462526","272796.877282","273564.099436","283557.068452","Mapping"
"Mixed","Male","tile","26","M_tile.wav","None","739.297730915","407","282037.507294","274314.389539","275081.629121","275848.858787","276616.029261","277383.307603","278150.664969","278917.896438","282804.709016","283554.41681","284321.678927","285089.22048","271262.160447","272029.462526","272796.877282","273564.099436","284324.556522","Mapping"
"Mixed","Male","tile","26","F_bluff.wav","space","517.127656826","407","282037.507294","274314.389539","275081.629121","275848.858787","276616.029261","277383.307603","278150.664969","278917.896438","282804.709016","283554.41681","284321.678927","285089.22048","285856.570935","272029.462526","272796.877282","273564.099436","285092.409963","Mapping"
"Mixed","Male","tile","26","F_priest.wav","None","733.765187977","407","282037.507294","274314.389539","275081.629121","275848.858787","276616.029261","277383.307603","278150.664969","278917.896438","282804.709016","283554.41681","284321.678927","285089.22048","285856.570935","286623.347794","272796.877282","273564.099436","285859.985469","Mapping"
"Mixed","Male","tile","26","F_cling.wav","None","733.107160005","407","282037.507294","274314.389539","275081.629121","275848.858787","276616.029261","277383.307603","278150.664969","278917.896438","282804.709016","283554.41681","284321.678927","285089.22048","285856.570935","286623.347794","287390.885141","273564.099436","286626.069746","Mapping"
"Mixed","Male","tile","26","M_gnash.wav","None","730.451911977","407","282037.507294","274314.389539","275081.629121","275848.858787","276616.029261","277383.307603","278150.664969","278917.896438","282804.709016","283554.41681","284321.678927","285089.22048","285856.570935","286623.347794","287390.885141","288158.016553","287393.96976","Mapping"
"Mixed","Male","tile","26","M_bluff.wav","None","728.659912515","407","282037.507294","288925.262145","275081.629121","275848.858787","276616.029261","277383.307603","278150.664969","278917.896438","282804.709016","283554.41681","284321.678927","285089.22048","285856.570935","286623.347794","287390.885141","288158.016553","288160.988797","Mapping"
"Mixed","Male","tile","26","F_reek.wav","space","629.286871951","407","282037.507294","288925.262145","289675.446182","275848.858787","276616.029261","277383.307603","278150.664969","278917.896438","282804.709016","283554.41681","284321.678927","285089.22048","285856.570935","286623.347794","287390.885141","288158.016553","288928.244604","Mapping"
"Mixed","Male","tile","26","M_tile.wav","None","741.757072899","407","282037.507294","288925.262145","289675.446182","290442.823078","276616.029261","277383.307603","278150.664969","278917.896438","282804.709016","283554.41681","284321.678927","285089.22048","285856.570935","286623.347794","287390.885141","288158.016553","289678.123364","Mapping"
"Mixed","Male","tile","26","F_romp.wav","space","557.863193882","407","282037.507294","288925.262145","289675.446182","290442.823078","291210.032913","277383.307603","278150.664969","278917.896438","282804.709016","283554.41681","284321.678927","285089.22048","285856.570935","286623.347794","287390.885141","288158.016553","290445.703077","Mapping"
"Mixed","Male","tile","26","M_tile.wav","None","736.846201135","407","282037.507294","288925.262145","289675.446182","290442.823078","291210.032913","291977.146298","278150.664969","278917.896438","282804.709016","283554.41681","284321.678927","285089.22048","285856.570935","286623.347794","287390.885141","288158.016553","291212.853119","Mapping"
"Mixed","Male","tile","26","M_gnash.wav","space","669.397733139","407","282037.507294","288925.262145","289675.446182","290442.823078","291210.032913","291977.146298","292744.352227","278917.896438","282804.709016","283554.41681","284321.678927","285089.22048","285856.570935","286623.347794","287390.885141","288158.016553","291980.132964","Mapping"
"Mixed","Male","tile","26","F_gnash.wav","None","732.531160178","407","282037.507294","288925.262145","289675.446182","290442.823078","291210.032913","291977.146298","292744.352227","293511.88056","282804.709016","283554.41681","284321.678927","285089.22048","285856.570935","286623.347794","287390.885141","288158.016553","292746.979832","Mapping"
"Mixed","Female","tile","36","M_gnash.wav","None","729.899348763","407","296631.254045","288925.262145","289675.446182","290442.823078","291210.032913","291977.146298","292744.352227","293511.88056","282804.709016","283554.41681","284321.678927","285089.22048","285856.570935","286623.347794","287390.885141","288158.016553","293514.86362","Mapping"
"Mixed","Female","tile","36","F_bluff.wav","None","727.495894086","407","296631.254045","288925.262145","289675.446182","290442.823078","291210.032913","291977.146298","292744.352227","293511.88056","297398.651674","283554.41681","284321.678927","285089.22048","285856.570935","286623.347794","287390.885141","288158.016553","296634.880711","Mapping"
"Mixed","Female","tile","36","M_depth.wav","None","724.738185994","407","296631.254045","288925.262145","289675.446182","290442.823078","291210.032913","291977.146298","292744.352227","293511.88056","297398.651674","298148.241683","284321.678927","285089.22048","285856.570935","286623.347794","287390.885141","288158.016553","297402.710114","Mapping"
"Mixed","Female","tile","36","F_priest.wav","None","741.822575227","407","296631.254045","288925.262145","289675.446182","290442.823078","291210.032913","291977.146298","292744.352227","293511.88056","297398.651674","298148.241683","298915.537152","285089.22048","285856.570935","286623.347794","287390.885141","288158.016553","298150.8128","Mapping"
"Mixed","Female","tile","36","M_cad.wav","None","739.921204906","407","296631.254045","288925.262145","289675.446182","290442.823078","291210.032913","291977.146298","292744.352227","293511.88056","297398.651674","298148.241683","298915.537152","299682.743382","285856.570935","286623.347794","287390.885141","288158.016553","298917.964043","Mapping"
"Mixed","Female","tile","36","F_tile.wav","None","737.753017764","407","296631.254045","288925.262145","289675.446182","290442.823078","291210.032913","291977.146298","292744.352227","293511.88056","297398.651674","298148.241683","298915.537152","299682.743382","300450.031038","286623.347794","287390.885141","288158.016553","299685.266724","Mapping"
"Mixed","Female","tile","36","F_priest.wav","space","467.022282209","407","296631.254045","288925.262145","289675.446182","290442.823078","291210.032913","291977.146298","292744.352227","293511.88056","297398.651674","298148.241683","298915.537152","299682.743382","300450.031038","301217.190094","287390.885141","288158.016553","300452.48347","Mapping"
"Mixed","Female","tile","36","F_tile.wav","None","733.309075438","407","296631.254045","288925.262145","289675.446182","290442.823078","291210.032913","291977.146298","292744.352227","293511.88056","297398.651674","298148.241683","298915.537152","299682.743382","300450.031038","301217.190094","301984.437488","288158.016553","301219.890713","Mapping"
"Mixed","Female","tile","36","M_jaw.wav","space","727.413265003","407","296631.254045","288925.262145","289675.446182","290442.823078","291210.032913","291977.146298","292744.352227","293511.88056","297398.651674","298148.241683","298915.537152","299682.743382","300450.031038","301217.190094","301984.437488","302751.977239","301987.099046","Mapping"
"Mixed","Female","tile","36","F_tile.wav","None","719.950506682","407","296631.254045","303519.185271","289675.446182","290442.823078","291210.032913","291977.146298","292744.352227","293511.88056","297398.651674","298148.241683","298915.537152","299682.743382","300450.031038","301217.190094","301984.437488","302751.977239","302763.395977","Mapping"
"Mixed","Female","tile","36","M_reek.wav","space","580.277910151","407","296631.254045","303519.185271","304269.676088","290442.823078","291210.032913","291977.146298","292744.352227","293511.88056","297398.651674","298148.241683","298915.537152","299682.743382","300450.031038","301217.190094","301984.437488","302751.977239","303522.272294","Mapping"
"Mixed","Female","tile","36","M_knife.wav","None","740.679589655","407","296631.254045","303519.185271","304269.676088","305036.869698","291210.032913","291977.146298","292744.352227","293511.88056","297398.651674","298148.241683","298915.537152","299682.743382","300450.031038","301217.190094","301984.437488","302751.977239","304272.907336","Mapping"
"Mixed","Female","tile","36","M_knife.wav","None","739.216904648","407","296631.254045","303519.185271","304269.676088","305036.869698","305803.847571","291977.146298","292744.352227","293511.88056","297398.651674","298148.241683","298915.537152","299682.743382","300450.031038","301217.190094","301984.437488","302751.977239","305039.842542","Mapping"
"Mixed","Female","tile","36","F_tile.wav","None","737.786670336","407","296631.254045","303519.185271","304269.676088","305036.869698","305803.847571","306571.010232","292744.352227","293511.88056","297398.651674","298148.241683","298915.537152","299682.743382","300450.031038","301217.190094","301984.437488","302751.977239","305806.588753","Mapping"
"Mixed","Female","tile","36","M_jaw.wav","space","490.619646011","407","296631.254045","303519.185271","304269.676088","305036.869698","305803.847571","306571.010232","307338.385025","293511.88056","297398.651674","298148.241683","298915.537152","299682.743382","300450.031038","301217.190094","301984.437488","302751.977239","306573.935602","Mapping"
"Mixed","Female","tile","36","F_cling.wav","None","733.63989224","407","296631.254045","303519.185271","304269.676088","305036.869698","305803.847571","306571.010232","307338.385025","308105.526353","297398.651674","298148.241683","298915.537152","299682.743382","300450.031038","301217.190094","301984.437488","302751.977239","307341.053193","Mapping"
"Mixed","Male","tile","27","M_cad.wav","None","731.800719083","407","311225.455707","303519.185271","304269.676088","305036.869698","305803.847571","306571.010232","307338.385025","308105.526353","297398.651674","298148.241683","298915.537152","299682.743382","300450.031038","301217.190094","301984.437488","302751.977239","308108.369395","Mapping"
"Mixed","Male","tile","27","F_gnash.wav","None","726.734504643","407","311225.455707","303519.185271","304269.676088","305036.869698","305803.847571","306571.010232","307338.385025","308105.526353","311974.970299","298148.241683","298915.537152","299682.743382","300450.031038","301217.190094","301984.437488","302751.977239","311229.027988","Mapping"
"Mixed","Male","tile","27","F_priest.wav","None","742.940621839","407","311225.455707","303519.185271","304269.676088","305036.869698","305803.847571","306571.010232","307338.385025","308105.526353","311974.970299","312742.295815","298915.537152","299682.743382","300450.031038","301217.190094","301984.437488","302751.977239","311977.814542","Mapping"
"Mixed","Male","tile","27","F_reek.wav","None","741.199401705","407","311225.455707","303519.185271","304269.676088","305036.869698","305803.847571","306571.010232","307338.385025","308105.526353","311974.970299","312742.295815","313509.423922","299682.743382","300450.031038","301217.190094","301984.437488","302751.977239","312744.864828","Mapping"
"Mixed","Male","tile","27","M_tile.wav","None","738.994557297","407","311225.455707","303519.185271","304269.676088","305036.869698","305803.847571","306571.010232","307338.385025","308105.526353","311974.970299","312742.295815","313509.423922","314276.629551","300450.031038","301217.190094","301984.437488","302751.977239","313512.205067","Mapping"
"Mixed","Male","tile","27","M_dime.wav","space","545.910521417","407","311225.455707","303519.185271","304269.676088","305036.869698","305803.847571","306571.010232","307338.385025","308105.526353","311974.970299","312742.295815","313509.423922","314276.629551","315043.949358","301217.190094","301984.437488","302751.977239","314279.600592","Mapping"
"Mixed","Male","tile","27","M_tile.wav","None","734.08068084","407","311225.455707","303519.185271","304269.676088","305036.869698","305803.847571","306571.010232","307338.385025","308105.526353","311974.970299","312742.295815","313509.423922","314276.629551","315043.949358","315811.129446","301984.437488","302751.977239","315046.603404","Mapping"
"Mixed","Male","tile","27","F_jolt.wav","space","647.545195104","407","311225.455707","303519.185271","304269.676088","305036.869698","305803.847571","306571.010232","307338.385025","308105.526353","311974.970299","312742.295815","313509.423922","314276.629551","315043.949358","315811.129446","316578.533385","302751.977239","315813.969784","Mapping"
"Mixed","Male","tile","27","M_tile.wav","None","729.458860632","407","311225.455707","303519.185271","304269.676088","305036.869698","305803.847571","306571.010232","307338.385025","308105.526353","311974.970299","312742.295815","313509.423922","314276.629551","315043.949358","315811.129446","316578.533385","317346.352572","316581.570229","Mapping"
"Mixed","Male","tile","27","M_park.wav","space","591.549418502","407","311225.455707","318113.478276","304269.676088","305036.869698","305803.847571","306571.010232","307338.385025","308105.526353","311974.970299","312742.295815","313509.423922","314276.629551","315043.949358","315811.129446","316578.533385","317346.352572","317349.912834","Mapping"
"Mixed","Male","tile","27","M_tile.wav","None","724.941303304","407","311225.455707","318113.478276","318863.651196","305036.869698","305803.847571","306571.010232","307338.385025","308105.526353","311974.970299","312742.295815","313509.423922","314276.629551","315043.949358","315811.129446","316578.533385","317346.352572","318116.983852","Mapping"
"Mixed","Male","tile","27","F_park.wav","space","516.799844717","407","311225.455707","318113.478276","318863.651196","319630.596017","305803.847571","306571.010232","307338.385025","308105.526353","311974.970299","312742.295815","313509.423922","314276.629551","315043.949358","315811.129446","316578.533385","317346.352572","318866.749336","Mapping"
"Mixed","Male","tile","27","F_park.wav","None","738.921543235","407","311225.455707","318113.478276","318863.651196","319630.596017","320397.779411","306571.010232","307338.385025","308105.526353","311974.970299","312742.295815","313509.423922","314276.629551","315043.949358","315811.129446","316578.533385","317346.352572","319633.235941","Mapping"
"Mixed","Male","tile","27","M_knife.wav","None","736.829975788","407","311225.455707","318113.478276","318863.651196","319630.596017","320397.779411","321164.980533","307338.385025","308105.526353","311974.970299","312742.295815","313509.423922","314276.629551","315043.949358","315811.129446","316578.533385","317346.352572","320400.785607","Mapping"
"Mixed","Male","tile","27","F_depth.wav","None","735.436999681","407","311225.455707","318113.478276","318863.651196","319630.596017","320397.779411","321164.980533","321932.233034","308105.526353","311974.970299","312742.295815","313509.423922","314276.629551","315043.949358","315811.129446","316578.533385","317346.352572","321167.502973","Mapping"
"Mixed","Male","tile","27","F_jaw.wav","None","733.784117548","407","311225.455707","318113.478276","318863.651196","319630.596017","320397.779411","321164.980533","321932.233034","322699.453987","311974.970299","312742.295815","313509.423922","314276.629551","315043.949358","315811.129446","316578.533385","317346.352572","321934.701991","Mapping"
"Mixed","Female","done","45","F_cling.wav","None","731.987310577","407","325819.349989","318113.478276","318863.651196","319630.596017","320397.779411","321164.980533","321932.233034","322699.453987","311974.970299","312742.295815","313509.423922","314276.629551","315043.949358","315811.129446","316578.533385","317346.352572","322702.151601","Mapping"
"Mixed","Female","done","45","F_done.wav","None","727.04789422","407","325819.349989","318113.478276","318863.651196","319630.596017","320397.779411","321164.980533","321932.233034","322699.453987","326586.007561","312742.295815","313509.423922","314276.629551","315043.949358","315811.129446","316578.533385","317346.352572","325823.212222","Mapping"
"Mixed","Female","done","45","M_cad.wav","space","474.583294022","407","325819.349989","318113.478276","318863.651196","319630.596017","320397.779411","321164.980533","321932.233034","322699.453987","326586.007561","327336.1285","313509.423922","314276.629551","315043.949358","315811.129446","316578.533385","317346.352572","326588.932631","Mapping"
"Mixed","Female","done","45","M_jaw.wav","None","742.348997604","407","325819.349989","318113.478276","318863.651196","319630.596017","320397.779411","321164.980533","321932.233034","322699.453987","326586.007561","327336.1285","328103.302579","314276.629551","315043.949358","315811.129446","316578.533385","317346.352572","327338.651241","Mapping"
"Mixed","Female","done","45","F_done.wav","None","740.267345647","407","325819.349989","318113.478276","318863.651196","319630.596017","320397.779411","321164.980533","321932.233034","322699.453987","326586.007561","327336.1285","328103.302579","328870.58663","315043.949358","315811.129446","316578.533385","317346.352572","328106.161846","Mapping"
"Mixed","Female","done","45","F_greet.wav","space","407.099370637","407","325819.349989","318113.478276","318863.651196","319630.596017","320397.779411","321164.980533","321932.233034","322699.453987","326586.007561","327336.1285","328103.302579","328870.58663","329637.743283","315811.129446","316578.533385","317346.352572","328873.414648","Mapping"
"Mixed","Female","done","45","F_done.wav","None","736.203497103","407","325819.349989","318113.478276","318863.651196","319630.596017","320397.779411","321164.980533","321932.233034","322699.453987","326586.007561","327336.1285","328103.302579","328870.58663","329637.743283","330405.136705","316578.533385","317346.352572","329640.438793","Mapping"
"Mixed","Female","done","45","M_cling.wav","space","411.384665124","407","325819.349989","318113.478276","318863.651196","319630.596017","320397.779411","321164.980533","321932.233034","322699.453987","326586.007561","327336.1285","328103.302579","328870.58663","329637.743283","330405.136705","331172.264512","317346.352572","330408.122469","Mapping"
"Mixed","Female","done","45","M_reek.wav","None","731.999629822","407","325819.349989","318113.478276","318863.651196","319630.596017","320397.779411","321164.980533","321932.233034","322699.453987","326586.007561","327336.1285","328103.302579","328870.58663","329637.743283","330405.136705","331172.264512","331940.15521","331174.835628","Mapping"
"Mixed","Female","done","45","M_cling.wav","None","728.443574552","407","325819.349989","332707.418529","318863.651196","319630.596017","320397.779411","321164.980533","321932.233034","322699.453987","326586.007561","327336.1285","328103.302579","328870.58663","329637.743283","330405.136705","331172.264512","331940.15521","331943.555022","Mapping"
"Mixed","Female","done","45","F_done.wav","space","509.688936056","407","325819.349989","332707.418529","333457.532557","319630.596017","320397.779411","321164.980533","321932.233034","322699.453987","326586.007561","327336.1285","328103.302579","328870.58663","329637.743283","330405.136705","331172.264512","331940.15521","332710.797908","Mapping"
"Mixed","Female","done","45","F_dime.wav","None","741.695176204","407","325819.349989","332707.418529","333457.532557","334224.459951","320397.779411","321164.980533","321932.233034","322699.453987","326586.007561","327336.1285","328103.302579","328870.58663","329637.743283","330405.136705","331172.264512","331940.15521","333460.834115","Mapping"
"Mixed","Female","done","45","M_cling.wav","space","503.366759552","407","325819.349989","332707.418529","333457.532557","334224.459951","334991.984378","321164.980533","321932.233034","322699.453987","326586.007561","327336.1285","328103.302579","328870.58663","329637.743283","330405.136705","331172.264512","331940.15521","334227.127519","Mapping"
"Mixed","Female","done","45","M_priest.wav","None","737.729581152","407","325819.349989","332707.418529","333457.532557","334224.459951","334991.984378","335758.940317","321932.233034","322699.453987","326586.007561","327336.1285","328103.302579","328870.58663","329637.743283","330405.136705","331172.264512","331940.15521","334994.96864","Mapping"
"Mixed","Female","done","45","F_dime.wav","None","736.496755231","407","325819.349989","332707.418529","333457.532557","334224.459951","334991.984378","335758.940317","336526.14895","322699.453987","326586.007561","327336.1285","328103.302579","328870.58663","329637.743283","330405.136705","331172.264512","331940.15521","335761.770738","Mapping"
"Mixed","Female","done","45","M_romp.wav","None","735.014239244","407","325819.349989","332707.418529","333457.532557","334224.459951","334991.984378","335758.940317","336526.14895","337293.308006","326586.007561","327336.1285","328103.302579","328870.58663","329637.743283","330405.136705","331172.264512","331940.15521","336528.734189","Mapping"
"Mixed","Female","tile","31","F_park.wav","None","733.044361902","407","340429.645693","332707.418529","333457.532557","334224.459951","334991.984378","335758.940317","336526.14895","337293.308006","326586.007561","327336.1285","328103.302579","328870.58663","329637.743283","330405.136705","331172.264512","331940.15521","337296.290465","Mapping"
"Mixed","Female","tile","31","F_greet.wav","None","726.64706805","407","340429.645693","332707.418529","333457.532557","334224.459951","334991.984378","335758.940317","336526.14895","337293.308006","341196.452899","327336.1285","328103.302579","328870.58663","329637.743283","330405.136705","331172.264512","331940.15521","340433.617898","Mapping"
"Mixed","Female","tile","31","F_jolt.wav","None","726.002561201","407","340429.645693","332707.418529","333457.532557","334224.459951","334991.984378","335758.940317","336526.14895","337293.308006","341196.452899","341946.756523","328103.302579","328870.58663","329637.743283","330405.136705","331172.264512","331940.15521","341199.403508","Mapping"
"Mixed","Female","tile","31","M_bluff.wav","None","741.46441571","407","340429.645693","332707.418529","333457.532557","334224.459951","334991.984378","335758.940317","336526.14895","337293.308006","341196.452899","341946.756523","342713.917682","328870.58663","329637.743283","330405.136705","331172.264512","331940.15521","341949.496203","Mapping"
"Mixed","Female","tile","31","F_tile.wav","None","739.777280067","407","340429.645693","332707.418529","333457.532557","334224.459951","334991.984378","335758.940317","336526.14895","337293.308006","341196.452899","341946.756523","342713.917682","343481.251311","329637.743283","330405.136705","331172.264512","331940.15521","342716.776348","Mapping"
"Mixed","Female","tile","31","M_park.wav","space","483.193845425","407","340429.645693","332707.418529","333457.532557","334224.459951","334991.984378","335758.940317","336526.14895","337293.308006","341196.452899","341946.756523","342713.917682","343481.251311","344248.426892","330405.136705","331172.264512","331940.15521","343484.313094","Mapping"
"Mixed","Female","tile","31","F_bluff.wav","None","735.657544216","407","340429.645693","332707.418529","333457.532557","334224.459951","334991.984378","335758.940317","336526.14895","337293.308006","341196.452899","341946.756523","342713.917682","343481.251311","344248.426892","345015.997591","331172.264512","331940.15521","344251.144939","Mapping"
"Mixed","Female","tile","31","F_tile.wav","None","732.338258828","407","340429.645693","332707.418529","333457.532557","334224.459951","334991.984378","335758.940317","336526.14895","337293.308006","341196.452899","341946.756523","342713.917682","343481.251311","344248.426892","345015.997591","345783.107671","331940.15521","345019.695468","Mapping"
"Mixed","Female","tile","31","M_romp.wav","space","631.301819703","407","340429.645693","332707.418529","333457.532557","334224.459951","334991.984378","335758.940317","336526.14895","337293.308006","341196.452899","341946.756523","342713.917682","343481.251311","344248.426892","345015.997591","345783.107671","346550.272436","345786.228346","Mapping"
"Mixed","Female","tile","31","M_jolt.wav","None","728.991931195","407","340429.645693","347317.557088","333457.532557","334224.459951","334991.984378","335758.940317","336526.14895","337293.308006","341196.452899","341946.756523","342713.917682","343481.251311","344248.426892","345015.997591","345783.107671","346550.272436","346553.721524","Mapping"
"Mixed","Female","tile","31","F_tile.wav","None","728.258485406","407","340429.645693","347317.557088","348084.823411","334224.459951","334991.984378","335758.940317","336526.14895","337293.308006","341196.452899","341946.756523","342713.917682","343481.251311","344248.426892","345015.997591","345783.107671","346550.272436","347320.280843","Mapping"
"Mixed","Female","tile","31","M_knife.wav","space","471.672647009","407","340429.645693","347317.557088","348084.823411","348835.011655","334991.984378","335758.940317","336526.14895","337293.308006","341196.452899","341946.756523","342713.917682","343481.251311","344248.426892","345015.997591","345783.107671","346550.272436","348087.831711","Mapping"
"Mixed","Female","tile","31","M_jaw.wav","None","741.005899416","407","340429.645693","347317.557088","348084.823411","348835.011655","349602.24673","335758.940317","336526.14895","337293.308006","341196.452899","341946.756523","342713.917682","343481.251311","344248.426892","345015.997591","345783.107671","346550.272436","348837.807222","Mapping"
"Mixed","Female","tile","31","F_tile.wav","None","739.446162795","407","340429.645693","347317.557088","348084.823411","348835.011655","349602.24673","350369.493523","336526.14895","337293.308006","341196.452899","341946.756523","342713.917682","343481.251311","344248.426892","345015.997591","345783.107671","346550.272436","349605.066936","Mapping"
"Mixed","Female","tile","31","M_bluff.wav","space","502.8872104","407","340429.645693","347317.557088","348084.823411","348835.011655","349602.24673","350369.493523","351136.67271","337293.308006","341196.452899","341946.756523","342713.917682","343481.251311","344248.426892","345015.997591","345783.107671","346550.272436","350372.617203","Mapping"
"Mixed","Female","tile","31","M_cling.wav","None","735.525037213","407","340429.645693","347317.557088","348084.823411","348835.011655","349602.24673","350369.493523","351136.67271","351903.908386","341196.452899","341946.756523","342713.917682","343481.251311","344248.426892","345015.997591","345783.107671","346550.272436","351139.560822","Mapping"
"Mixed","Female","done","44","M_jaw.wav","None","734.188549352","407","355040.427255","347317.557088","348084.823411","348835.011655","349602.24673","350369.493523","351136.67271","351903.908386","341196.452899","341946.756523","342713.917682","343481.251311","344248.426892","345015.997591","345783.107671","346550.272436","351906.705155","Mapping"
"Mixed","Female","done","44","F_cling.wav","None","726.972175933","407","355040.427255","347317.557088","348084.823411","348835.011655","349602.24673","350369.493523","351136.67271","351903.908386","355807.021128","341946.756523","342713.917682","343481.251311","344248.426892","345015.997591","345783.107671","346550.272436","355043.910597","Mapping"
"Mixed","Female","done","44","M_cling.wav","None","726.216495409","407","355040.427255","347317.557088","348084.823411","348835.011655","349602.24673","350369.493523","351136.67271","351903.908386","355807.021128","356557.313635","342713.917682","343481.251311","344248.426892","345015.997591","345783.107671","346550.272436","355809.903531","Mapping"
"Mixed","Female","done","44","M_bluff.wav","None","741.712603429","407","355040.427255","347317.557088","348084.823411","348835.011655","349602.24673","350369.493523","351136.67271","351903.908386","355807.021128","356557.313635","357324.556222","343481.251311","344248.426892","345015.997591","345783.107671","346550.272436","356560.013353","Mapping"
"Mixed","Female","done","44","F_done.wav","None","739.860810558","407","355040.427255","347317.557088","348084.823411","348835.011655","349602.24673","350369.493523","351136.67271","351903.908386","355807.021128","356557.313635","357324.556222","358091.747728","344248.426892","345015.997591","345783.107671","346550.272436","357327.357498","Mapping"
"Mixed","Female","done","44","F_lash.wav","space","437.072995433","407","355040.427255","347317.557088","348084.823411","348835.011655","349602.24673","350369.493523","351136.67271","351903.908386","355807.021128","356557.313635","357324.556222","358091.747728","358858.952756","345015.997591","345783.107671","346550.272436","358094.469981","Mapping"
"Mixed","Female","done","44","M_jaw.wav","None","735.853149791","407","355040.427255","347317.557088","348084.823411","348835.011655","349602.24673","350369.493523","351136.67271","351903.908386","355807.021128","356557.313635","357324.556222","358091.747728","358858.952756","359626.222385","345783.107671","346550.272436","358861.84237","Mapping"
"Mixed","Female","done","44","F_done.wav","None","734.397676049","407","355040.427255","347317.557088","348084.823411","348835.011655","349602.24673","350369.493523","351136.67271","351903.908386","355807.021128","356557.313635","357324.556222","358091.747728","358858.952756","359626.222385","360393.460764","346550.272436","359629.080149","Mapping"
"Mixed","Female","done","44","M_depth.wav","space","681.84257447","407","355040.427255","347317.557088","348084.823411","348835.011655","349602.24673","350369.493523","351136.67271","351903.908386","355807.021128","356557.313635","357324.556222","358091.747728","358858.952756","359626.222385","360393.460764","361160.948534","360396.691712","Mapping"
"Mixed","Female","done","44","M_jolt.wav","None","729.945921519","407","355040.427255","361927.971177","348084.823411","348835.011655","349602.24673","350369.493523","351136.67271","351903.908386","355807.021128","356557.313635","357324.556222","358091.747728","358858.952756","359626.222385","360393.460764","361160.948534","361163.864289","Mapping"
"Mixed","Female","done","44","M_greet.wav","None","728.910804459","407","355040.427255","361927.971177","362695.337256","348835.011655","349602.24673","350369.493523","351136.67271","351903.908386","355807.021128","356557.313635","357324.556222","358091.747728","358858.952756","359626.222385","360393.460764","361160.948534","361930.628528","Mapping"
"Mixed","Female","done","44","F_depth.wav","None","726.588176049","407","355040.427255","361927.971177","362695.337256","363445.576279","349602.24673","350369.493523","351136.67271","351903.908386","355807.021128","356557.313635","357324.556222","358091.747728","358858.952756","359626.222385","360393.460764","361160.948534","362698.467546","Mapping"
"Mixed","Female","done","44","F_done.wav","None","742.440640769","407","355040.427255","361927.971177","362695.337256","363445.576279","364212.852518","350369.493523","351136.67271","351903.908386","355807.021128","356557.313635","357324.556222","358091.747728","358858.952756","359626.222385","360393.460764","361160.948534","363448.407001","Mapping"
"Mixed","Female","done","44","F_dime.wav","space","556.564264694","407","355040.427255","361927.971177","362695.337256","363445.576279","364212.852518","364980.06626","351136.67271","351903.908386","355807.021128","356557.313635","357324.556222","358091.747728","358858.952756","359626.222385","360393.460764","361160.948534","364215.970189","Mapping"
"Mixed","Female","done","44","F_done.wav","None","738.581411882","407","355040.427255","361927.971177","362695.337256","363445.576279","364212.852518","364980.06626","365747.284207","351903.908386","355807.021128","356557.313635","357324.556222","358091.747728","358858.952756","359626.222385","360393.460764","361160.948534","364982.736831","Mapping"
"Mixed","Female","done","44","M_priest.wav","space","706.570905068","407","355040.427255","361927.971177","362695.337256","363445.576279","364212.852518","364980.06626","365747.284207","366514.54332","355807.021128","356557.313635","357324.556222","358091.747728","358858.952756","359626.222385","360393.460764","361160.948534","365749.936751","Mapping"
"Mixed","Male","ball","6","M_cad.wav","None","734.877525671","407","369650.963034","361927.971177","362695.337256","363445.576279","364212.852518","364980.06626","365747.284207","366514.54332","355807.021128","356557.313635","357324.556222","358091.747728","358858.952756","359626.222385","360393.460764","361160.948534","366517.050436","Mapping"
"Mixed","Male","ball","6","F_lash.wav","None","728.235048793","407","369650.963034","361927.971177","362695.337256","363445.576279","364212.852518","364980.06626","365747.284207","366514.54332","370418.157546","356557.313635","357324.556222","358091.747728","358858.952756","359626.222385","360393.460764","361160.948534","369654.220423","Mapping"
"Mixed","Male","ball","6","M_ball.wav","None","726.286504778","407","369650.963034","361927.971177","362695.337256","363445.576279","364212.852518","364980.06626","365747.284207","366514.54332","370418.157546","371185.377897","357324.556222","358091.747728","358858.952756","359626.222385","360393.460764","361160.948534","370421.942559","Mapping"
"Mixed","Male","ball","6","M_greet.wav","space","488.621825015","407","369650.963034","361927.971177","362695.337256","363445.576279","364212.852518","364980.06626","365747.284207","366514.54332","370418.157546","371185.377897","371935.570949","358091.747728","358858.952756","359626.222385","360393.460764","361160.948534","371188.892788","Mapping"
"Mixed","Male","ball","6","F_romp.wav","None","739.996923193","407","369650.963034","361927.971177","362695.337256","363445.576279","364212.852518","364980.06626","365747.284207","366514.54332","370418.157546","371185.377897","371935.570949","372702.287113","358858.952756","359626.222385","360393.460764","361160.948534","371938.439831","Mapping"
"Mixed","Male","ball","6","M_ball.wav","None","739.644773064","407","369650.963034","361927.971177","362695.337256","363445.576279","364212.852518","364980.06626","365747.284207","366514.54332","370418.157546","371185.377897","371935.570949","372702.287113","373469.527896","359626.222385","360393.460764","361160.948534","372704.88437","Mapping"
"Mixed","Male","ball","6","F_lash.wav","space","520.352594824","407","369650.963034","361927.971177","362695.337256","363445.576279","364212.852518","364980.06626","365747.284207","366514.54332","370418.157546","371185.377897","371935.570949","372702.287113","373469.527896","374236.757863","360393.460764","361160.948534","373472.143483","Mapping"
"Mixed","Male","ball","6","M_ball.wav","None","735.186708676","407","369650.963034","361927.971177","362695.337256","363445.576279","364212.852518","364980.06626","365747.284207","366514.54332","370418.157546","371185.377897","371935.570949","372702.287113","373469.527896","374236.757863","375004.011867","361160.948534","374239.401693","Mapping"
"Mixed","Male","ball","6","F_park.wav","space","561.092037982","407","369650.963034","361927.971177","362695.337256","363445.576279","364212.852518","364980.06626","365747.284207","366514.54332","370418.157546","371185.377897","371935.570949","372702.287113","373469.527896","374236.757863","375004.011867","375771.505947","375007.382533","Mapping"
"Mixed","Male","ball","6","F_park.wav","None","729.751217352","407","369650.963034","376538.683331","362695.337256","363445.576279","364212.852518","364980.06626","365747.284207","366514.54332","370418.157546","371185.377897","371935.570949","372702.287113","373469.527896","374236.757863","375004.011867","375771.505947","375774.948124","Mapping"
"Mixed","Male","ball","6","M_ball.wav","None","728.689959455","407","369650.963034","376538.683331","377305.837579","363445.576279","364212.852518","364980.06626","365747.284207","366514.54332","370418.157546","371185.377897","371935.570949","372702.287113","373469.527896","374236.757863","375004.011867","375771.505947","376541.604194","Mapping"
"Mixed","Male","ball","6","M_cling.wav","space","512.394662943","407","369650.963034","376538.683331","377305.837579","378056.113861","364212.852518","364980.06626","365747.284207","366514.54332","370418.157546","371185.377897","371935.570949","372702.287113","373469.527896","374236.757863","375004.011867","375771.505947","377309.103982","Mapping"
"Mixed","Male","ball","6","F_park.wav","None","742.0289977","407","369650.963034","376538.683331","377305.837579","378056.113861","378823.412936","364980.06626","365747.284207","366514.54332","370418.157546","371185.377897","371935.570949","372702.287113","373469.527896","374236.757863","375004.011867","375771.505947","378058.897109","Mapping"
"Mixed","Male","ball","6","F_park.wav","None","740.710538002","407","369650.963034","376538.683331","377305.837579","378056.113861","378823.412936","379590.627578","365747.284207","366514.54332","370418.157546","371185.377897","371935.570949","372702.287113","373469.527896","374236.757863","375004.011867","375771.505947","378826.056465","Mapping"
"Mixed","Male","ball","6","M_jaw.wav","None","739.358125263","407","369650.963034","376538.683331","377305.837579","378056.113861","378823.412936","379590.627578","380357.891498","366514.54332","370418.157546","371185.377897","371935.570949","372702.287113","373469.527896","374236.757863","375004.011867","375771.505947","379593.217024","Mapping"
"Mixed","Male","ball","6","F_jaw.wav","None","737.513844127","407","369650.963034","376538.683331","377305.837579","378056.113861","378823.412936","379590.627578","380357.891498","381125.134084","370418.157546","371185.377897","371935.570949","372702.287113","373469.527896","374236.757863","375004.011867","375771.505947","380360.782314","Mapping"
"Mixed","Male","cave","18","F_greet.wav","None","735.881393913","407","384261.588053","376538.683331","377305.837579","378056.113861","378823.412936","379590.627578","380357.891498","381125.134084","370418.157546","371185.377897","371935.570949","372702.287113","373469.527896","374236.757863","375004.011867","375771.505947","381127.908018","Mapping"
"Mixed","Male","cave","18","F_greet.wav","None","726.972776872","407","384261.588053","376538.683331","377305.837579","378056.113861","378823.412936","379590.627578","380357.891498","381125.134084","385028.694827","371185.377897","371935.570949","372702.287113","373469.527896","374236.757863","375004.011867","375771.505947","384265.042549","Mapping"
"Mixed","Male","cave","18","F_jolt.wav","None","725.662429848","407","384261.588053","376538.683331","377305.837579","378056.113861","378823.412936","379590.627578","380357.891498","381125.134084","385028.694827","385778.77971","371935.570949","372702.287113","373469.527896","374236.757863","375004.011867","375771.505947","385032.206413","Mapping"
"Mixed","Male","cave","18","M_cave.wav","None","741.379683341","407","384261.588053","376538.683331","377305.837579","378056.113861","378823.412936","379590.627578","380357.891498","381125.134084","385028.694827","385778.77971","386545.689676","372702.287113","373469.527896","374236.757863","375004.011867","375771.505947","385781.914807","Mapping"
"Mixed","Male","cave","18","M_romp.wav","space","452.894812276","407","384261.588053","376538.683331","377305.837579","378056.113861","378823.412936","379590.627578","380357.891498","381125.134084","385028.694827","385778.77971","386545.689676","387312.870066","373469.527896","374236.757863","375004.011867","375771.505947","386548.615046","Mapping"
"Mixed","Male","cave","18","M_cave.wav","None","738.050782933","407","384261.588053","376538.683331","377305.837579","378056.113861","378823.412936","379590.627578","380357.891498","381125.134084","385028.694827","385778.77971","386545.689676","387312.870066","388080.126474","374236.757863","375004.011867","375771.505947","387315.74045","Mapping"
"Mixed","Male","cave","18","M_romp.wav","space","524.526415166","407","384261.588053","376538.683331","377305.837579","378056.113861","378823.412936","379590.627578","380357.891498","381125.134084","385028.694827","385778.77971","386545.689676","387312.870066","388080.126474","388847.284027","375004.011867","375771.505947","388082.984538","Mapping"
"Mixed","Male","cave","18","M_cave.wav","None","734.465281663","407","384261.588053","376538.683331","377305.837579","378056.113861","378823.412936","379590.627578","380357.891498","381125.134084","385028.694827","385778.77971","386545.689676","387312.870066","388080.126474","388847.284027","389614.509487","375771.505947","388849.923951","Mapping"
"Mixed","Male","cave","18","F_lash.wav","space","477.433847156","407","384261.588053","376538.683331","377305.837579","378056.113861","378823.412936","379590.627578","380357.891498","381125.134084","385028.694827","385778.77971","386545.689676","387312.870066","388080.126474","388847.284027","389614.509487","390382.054045","389617.090218","Mapping"
"Mixed","Male","cave","18","M_greet.wav","None","729.995198499","407","384261.588053","391149.139486","377305.837579","378056.113861","378823.412936","379590.627578","380357.891498","381125.134084","385028.694827","385778.77971","386545.689676","387312.870066","388080.126474","388847.284027","389614.509487","390382.054045","390384.903697","Mapping"
"Mixed","Male","cave","18","F_bluff.wav","None","728.232645038","407","384261.588053","391149.139486","391916.537715","378056.113861","378823.412936","379590.627578","380357.891498","381125.134084","385028.694827","385778.77971","386545.689676","387312.870066","388080.126474","388847.284027","389614.509487","390382.054045","391152.203072","Mapping"
"Mixed","Male","cave","18","M_park.wav","None","726.85499287","407","384261.588053","391149.139486","391916.537715","392666.80949","378823.412936","379590.627578","380357.891498","381125.134084","385028.694827","385778.77971","386545.689676","387312.870066","388080.126474","388847.284027","389614.509487","390382.054045","391919.680024","Mapping"
"Mixed","Male","cave","18","F_gnash.wav","None","742.740809693","407","384261.588053","391149.139486","391916.537715","392666.80949","393433.973654","379590.627578","380357.891498","381125.134084","385028.694827","385778.77971","386545.689676","387312.870066","388080.126474","388847.284027","389614.509487","390382.054045","392669.607461","Mapping"
"Mixed","Male","cave","18","M_cave.wav","None","741.399213852","407","384261.588053","391149.139486","391916.537715","392666.80949","393433.973654","394201.285348","380357.891498","381125.134084","385028.694827","385778.77971","386545.689676","387312.870066","388080.126474","388847.284027","389614.509487","390382.054045","393436.978348","Mapping"
"Mixed","Male","cave","18","F_cad.wav","None","740.194632054","407","384261.588053","391149.139486","391916.537715","392666.80949","393433.973654","394201.285348","394968.473549","381125.134084","385028.694827","385778.77971","386545.689676","387312.870066","388080.126474","388847.284027","389614.509487","390382.054045","394204.065591","Mapping"
"Mixed","Male","cave","18","F_romp.wav","None","738.816679417","407","384261.588053","391149.139486","391916.537715","392666.80949","393433.973654","394201.285348","394968.473549","395735.677676","385028.694827","385778.77971","386545.689676","387312.870066","388080.126474","388847.284027","389614.509487","390382.054045","394971.266112","Mapping"
"Mixed","Female","tile","32","M_reek.wav","None","737.59677368","407","398872.05232","391149.139486","391916.537715","392666.80949","393433.973654","394201.285348","394968.473549","395735.677676","385028.694827","385778.77971","386545.689676","387312.870066","388080.126474","388847.284027","389614.509487","390382.054045","395738.376191","Mapping"
"Mixed","Female","tile","32","F_reek.wav","None","726.648570397","407","398872.05232","391149.139486","391916.537715","392666.80949","393433.973654","394201.285348","394968.473549","395735.677676","399638.662719","385778.77971","386545.689676","387312.870066","388080.126474","388847.284027","389614.509487","390382.054045","398875.978854","Mapping"
"Mixed","Female","tile","32","F_tile.wav","None","727.159668835","407","398872.05232","391149.139486","391916.537715","392666.80949","393433.973654","394201.285348","394968.473549","395735.677676","399638.662719","400389.030644","386545.689676","387312.870066","388080.126474","388847.284027","389614.509487","390382.054045","399641.436953","Mapping"
"Mixed","Female","tile","32","F_jolt.wav","space","650.955823187","407","398872.05232","391149.139486","391916.537715","392666.80949","393433.973654","394201.285348","394968.473549","395735.677676","399638.662719","400389.030644","401156.268122","387312.870066","388080.126474","388847.284027","389614.509487","390382.054045","400391.544671","Mapping"
"Mixed","Female","tile","32","M_cling.wav","None","740.730969921","407","398872.05232","391149.139486","391916.537715","392666.80949","393433.973654","394201.285348","394968.473549","395735.677676","399638.662719","400389.030644","401156.268122","401923.381507","388080.126474","388847.284027","389614.509487","390382.054045","401158.786356","Mapping"
"Mixed","Female","tile","32","M_romp.wav","None","739.342200386","407","398872.05232","391149.139486","391916.537715","392666.80949","393433.973654","394201.285348","394968.473549","395735.677676","399638.662719","400389.030644","401156.268122","401923.381507","402690.740976","388847.284027","389614.509487","390382.054045","401926.18759","Mapping"
"Mixed","Female","tile","32","M_jaw.wav","None","737.94832287","407","398872.05232","391149.139486","391916.537715","392666.80949","393433.973654","394201.285348","394968.473549","395735.677676","399638.662719","400389.030644","401156.268122","401923.381507","402690.740976","403457.91806","389614.509487","390382.054045","402693.550064","Mapping"
"Mixed","Female","tile","32","F_tile.wav","None","736.612435947","407","398872.05232","391149.139486","391916.537715","392666.80949","393433.973654","394201.285348","394968.473549","395735.677676","399638.662719","400389.030644","401156.268122","401923.381507","402690.740976","403457.91806","404225.146824","390382.054045","403460.804369","Mapping"
"Mixed","Female","tile","32","M_romp.wav","space","460.439899211","407","398872.05232","391149.139486","391916.537715","392666.80949","393433.973654","394201.285348","394968.473549","395735.677676","399638.662719","400389.030644","401156.268122","401923.381507","402690.740976","403457.91806","404225.146824","404992.733448","404227.998579","Mapping"
"Mixed","Female","tile","32","F_tile.wav","None","732.34216493","407","398872.05232","405760.433049","391916.537715","392666.80949","393433.973654","394201.285348","394968.473549","395735.677676","399638.662719","400389.030644","401156.268122","401923.381507","402690.740976","403457.91806","404225.146824","404992.733448","404995.790123","Mapping"
"Mixed","Female","tile","32","F_romp.wav","space","472.586374434","407","398872.05232","405760.433049","406527.114358","392666.80949","393433.973654","394201.285348","394968.473549","395735.677676","399638.662719","400389.030644","401156.268122","401923.381507","402690.740976","403457.91806","404225.146824","404992.733448","405763.900465","Mapping"
"Mixed","Female","tile","32","F_tile.wav","None","728.695968843","407","398872.05232","405760.433049","406527.114358","407294.295048","393433.973654","394201.285348","394968.473549","395735.677676","399638.662719","400389.030644","401156.268122","401923.381507","402690.740976","403457.91806","404225.146824","404992.733448","406530.073982","Mapping"
"Mixed","Female","tile","32","M_gnash.wav","space","478.22438213","407","398872.05232","405760.433049","406527.114358","407294.295048","408044.924681","394201.285348","394968.473549","395735.677676","399638.662719","400389.030644","401156.268122","401923.381507","402690.740976","403457.91806","404225.146824","404992.733448","407297.272399","Mapping"
"Mixed","Female","tile","32","M_cling.wav","None","741.357148137","407","398872.05232","405760.433049","406527.114358","407294.295048","408044.924681","408812.23277","394968.473549","395735.677676","399638.662719","400389.030644","401156.268122","401923.381507","402690.740976","403457.91806","404225.146824","404992.733448","408048.05377","Mapping"
"Mixed","Female","tile","32","F_dime.wav","None","739.74092327","407","398872.05232","405760.433049","406527.114358","407294.295048","408044.924681","408812.23277","409579.019544","395735.677676","399638.662719","400389.030644","401156.268122","401923.381507","402690.740976","403457.91806","404225.146824","404992.733448","408815.667436","Mapping"
"Mixed","Female","tile","32","M_park.wav","None","739.50325198","407","398872.05232","405760.433049","406527.114358","407294.295048","408044.924681","408812.23277","409579.019544","410346.183408","399638.662719","400389.030644","401156.268122","401923.381507","402690.740976","403457.91806","404225.146824","404992.733448","409581.91637","Mapping"
"Mixed","Male","cave","13","F_park.wav","None","738.053186688","407","413482.653301","405760.433049","406527.114358","407294.295048","408044.924681","408812.23277","409579.019544","410346.183408","399638.662719","400389.030644","401156.268122","401923.381507","402690.740976","403457.91806","404225.146824","404992.733448","410348.962149","Mapping"
"Mixed","Male","cave","13","F_priest.wav","None","726.497734761","407","413482.653301","405760.433049","406527.114358","407294.295048","408044.924681","408812.23277","409579.019544","410346.183408","414249.232451","400389.030644","401156.268122","401923.381507","402690.740976","403457.91806","404225.146824","404992.733448","413486.465957","Mapping"
"Mixed","Male","cave","13","M_cave.wav","None","726.963161851","407","413482.653301","405760.433049","406527.114358","407294.295048","408044.924681","408812.23277","409579.019544","410346.183408","414249.232451","414999.552902","401156.268122","401923.381507","402690.740976","403457.91806","404225.146824","404992.733448","414252.164131","Mapping"
"Mixed","Male","cave","13","F_dime.wav","space","613.227984758","407","413482.653301","405760.433049","406527.114358","407294.295048","408044.924681","408812.23277","409579.019544","410346.183408","414249.232451","414999.552902","415766.772352","401923.381507","402690.740976","403457.91806","404225.146824","404992.733448","415002.255924","Mapping"
"Mixed","Male","cave","13","M_priest.wav","None","740.732472268","407","413482.653301","405760.433049","406527.114358","407294.295048","408044.924681","408812.23277","409579.019544","410346.183408","414249.232451","414999.552902","415766.772352","416534.031764","402690.740976","403457.91806","404225.146824","404992.733448","415769.522849","Mapping"
"Mixed","Male","cave","13","F_jaw.wav","None","739.239139383","407","413482.653301","405760.433049","406527.114358","407294.295048","408044.924681","408812.23277","409579.019544","410346.183408","414249.232451","414999.552902","415766.772352","416534.031764","417301.304999","403457.91806","404225.146824","404992.733448","416536.970055","Mapping"
"Mixed","Male","cave","13","M_cave.wav","None","737.909862788","407","413482.653301","405760.433049","406527.114358","407294.295048","408044.924681","408812.23277","409579.019544","410346.183408","414249.232451","414999.552902","415766.772352","416534.031764","417301.304999","418068.553594","404225.146824","404992.733448","417304.153449","Mapping"
"Mixed","Male","cave","13","M_priest.wav","space","547.01324409","407","413482.653301","405760.433049","406527.114358","407294.295048","408044.924681","408812.23277","409579.019544","410346.183408","414249.232451","414999.552902","415766.772352","416534.031764","417301.304999","418068.553594","418836.189796","404992.733448","418071.454025","Mapping"
"Mixed","Male","cave","13","M_cave.wav","None","733.332211581","407","413482.653301","405760.433049","406527.114358","407294.295048","408044.924681","408812.23277","409579.019544","410346.183408","414249.232451","414999.552902","415766.772352","416534.031764","417301.304999","418068.553594","418836.189796","419603.279143","418839.357945","Mapping"
"Mixed","Male","cave","13","M_bluff.wav","space","700.885423208","407","413482.653301","420370.888903","406527.114358","407294.295048","408044.924681","408812.23277","409579.019544","410346.183408","414249.232451","414999.552902","415766.772352","416534.031764","417301.304999","418068.553594","418836.189796","419603.279143","419606.523311","Mapping"
"Mixed","Male","cave","13","F_jolt.wav","None","729.255743322","407","413482.653301","420370.888903","421138.124879","407294.295048","408044.924681","408812.23277","409579.019544","410346.183408","414249.232451","414999.552902","415766.772352","416534.031764","417301.304999","418068.553594","418836.189796","419603.279143","420374.413409","Mapping"
"Mixed","Male","cave","13","M_cave.wav","None","727.256720449","407","413482.653301","420370.888903","421138.124879","421904.853362","408044.924681","408812.23277","409579.019544","410346.183408","414249.232451","414999.552902","415766.772352","416534.031764","417301.304999","418068.553594","418836.189796","419603.279143","421142.188727","Mapping"
"Mixed","Male","cave","13","F_dime.wav","space","575.410606449","407","413482.653301","420370.888903","421138.124879","421904.853362","422655.487803","408812.23277","409579.019544","410346.183408","414249.232451","414999.552902","415766.772352","416534.031764","417301.304999","418068.553594","418836.189796","419603.279143","421908.068384","Mapping"
"Mixed","Male","cave","13","M_priest.wav","None","741.155533174","407","413482.653301","420370.888903","421138.124879","421904.853362","422655.487803","423422.787479","409579.019544","410346.183408","414249.232451","414999.552902","415766.772352","416534.031764","417301.304999","418068.553594","418836.189796","419603.279143","422658.817004","Mapping"
"Mixed","Male","cave","13","F_dime.wav","None","740.344866751","407","413482.653301","420370.888903","421138.124879","421904.853362","422655.487803","423422.787479","424189.561934","410346.183408","414249.232451","414999.552902","415766.772352","416534.031764","417301.304999","418068.553594","418836.189796","419603.279143","423425.934595","Mapping"
"Mixed","Male","cave","13","F_knife.wav","None","739.679327045","407","413482.653301","420370.888903","421138.124879","421904.853362","422655.487803","423422.787479","424189.561934","424956.875731","414249.232451","414999.552902","415766.772352","416534.031764","417301.304999","418068.553594","418836.189796","419603.279143","424192.653163","Mapping"
"Mixed","Male","done","41","M_jolt.wav","None","738.27012559","407","428093.331803","420370.888903","421138.124879","421904.853362","422655.487803","423422.787479","424189.561934","424956.875731","414249.232451","414999.552902","415766.772352","416534.031764","417301.304999","418068.553594","418836.189796","419603.279143","424959.624726","Mapping"
"Mixed","Male","done","41","M_done.wav","None","716.812404338","407","428093.331803","420370.888903","421138.124879","421904.853362","422655.487803","423422.787479","424189.561934","424956.875731","428859.831629","414999.552902","415766.772352","416534.031764","417301.304999","418068.553594","418836.189796","419603.279143","428106.966503","Mapping"
"Mixed","Male","done","41","F_cling.wav","space","605.723461191","407","428093.331803","420370.888903","421138.124879","421904.853362","422655.487803","423422.787479","424189.561934","424956.875731","428859.831629","429610.130746","415766.772352","416534.031764","417301.304999","418068.553594","418836.189796","419603.279143","428862.79636","Mapping"
"Mixed","Male","done","41","M_knife.wav","None","740.931082537","407","428093.331803","420370.888903","421138.124879","421904.853362","422655.487803","423422.787479","424189.561934","424956.875731","428859.831629","429610.130746","430377.391962","416534.031764","417301.304999","418068.553594","418836.189796","419603.279143","429613.106896","Mapping"
"Mixed","Male","done","41","M_done.wav","None","740.120115645","407","428093.331803","420370.888903","421138.124879","421904.853362","422655.487803","423422.787479","424189.561934","424956.875731","428859.831629","429610.130746","430377.391962","431144.599393","417301.304999","418068.553594","418836.189796","419603.279143","430380.041801","Mapping"
"Mixed","Male","done","41","M_jolt.wav","None","738.73585315","407","428093.331803","420370.888903","421138.124879","421904.853362","422655.487803","423422.787479","424189.561934","424956.875731","428859.831629","429610.130746","430377.391962","431144.599393","431911.917097","418068.553594","418836.189796","419603.279143","431147.26005","Mapping"
"Mixed","Male","done","41","F_depth.wav","space","0.0174272247823","407","428093.331803","420370.888903","421138.124879","421904.853362","422655.487803","423422.787479","424189.561934","424956.875731","428859.831629","429610.130746","430377.391962","431144.599393","431911.917097","432679.079458","418836.189796","419603.279143","431914.493321","Mapping"
"Mixed","Male","done","41","M_done.wav","None","735.214051391","407","428093.331803","420370.888903","421138.124879","421904.853362","422655.487803","423422.787479","424189.561934","424956.875731","428859.831629","429610.130746","430377.391962","431144.599393","431911.917097","432679.079458","433446.289594","419603.279143","432681.751532","Mapping"
"Mixed","Male","done","41","F_gnash.wav","space","659.624966122","407","428093.331803","420370.888903","421138.124879","421904.853362","422655.487803","423422.787479","424189.561934","424956.875731","428859.831629","429610.130746","430377.391962","431144.599393","431911.917097","432679.079458","433446.289594","434213.554715","433448.909386","Mapping"
"Mixed","Male","done","41","F_depth.wav","None","731.56965812","407","428093.331803","434980.998015","421138.124879","421904.853362","422655.487803","423422.787479","424189.561934","424956.875731","428859.831629","429610.130746","430377.391962","431144.599393","431911.917097","432679.079458","433446.289594","434213.554715","434216.367109","Mapping"
"Mixed","Male","done","41","F_greet.wav","None","730.269226586","407","428093.331803","434980.998015","435748.240301","421904.853362","422655.487803","423422.787479","424189.561934","424956.875731","428859.831629","429610.130746","430377.391962","431144.599393","431911.917097","432679.079458","433446.289594","434213.554715","434983.639442","Mapping"
"Mixed","Male","done","41","M_done.wav","None","728.709790435","407","428093.331803","434980.998015","435748.240301","436515.226287","422655.487803","423422.787479","424189.561934","424956.875731","428859.831629","429610.130746","430377.391962","431144.599393","431911.917097","432679.079458","433446.289594","434213.554715","435751.176488","Mapping"
"Mixed","Male","done","41","F_park.wav","space","547.141244052","407","428093.331803","434980.998015","435748.240301","436515.226287","437265.715","423422.787479","424189.561934","424956.875731","428859.831629","429610.130746","430377.391962","431144.599393","431911.917097","432679.079458","433446.289594","434213.554715","436518.347262","Mapping"
"Mixed","Male","done","41","F_depth.wav","None","742.230913132","407","428093.331803","434980.998015","435748.240301","436515.226287","437265.715","438032.966901","424189.561934","424956.875731","428859.831629","429610.130746","430377.391962","431144.599393","431911.917097","432679.079458","433446.289594","434213.554715","437268.464595","Mapping"
"Mixed","Male","done","41","F_romp.wav","None","741.274819523","407","428093.331803","434980.998015","435748.240301","436515.226287","437265.715","438032.966901","438800.14699","424956.875731","428859.831629","429610.130746","430377.391962","431144.599393","431911.917097","432679.079458","433446.289594","434213.554715","438035.540722","Mapping"
"Mixed","Male","done","41","M_priest.wav","None","739.842181456","407","428093.331803","434980.998015","435748.240301","436515.226287","437265.715","438032.966901","438800.14699","439567.448468","428859.831629","429610.130746","430377.391962","431144.599393","431911.917097","432679.079458","433446.289594","434213.554715","438803.072059","Mapping"
"Mixed","Female","ball","9","F_depth.wav","None","738.949787358","407","442703.800878","434980.998015","435748.240301","436515.226287","437265.715","438032.966901","438800.14699","439567.448468","428859.831629","429610.130746","430377.391962","431144.599393","431911.917097","432679.079458","433446.289594","434213.554715","439570.301725","Mapping"
"Mixed","Female","ball","9","F_ball.wav","None","727.272044388","407","442703.800878","434980.998015","435748.240301","436515.226287","437265.715","438032.966901","438800.14699","439567.448468","443471.190394","429610.130746","430377.391962","431144.599393","431911.917097","432679.079458","433446.289594","434213.554715","442707.705177","Mapping"
"Mixed","Female","ball","9","M_greet.wav","space","472.789491744","407","442703.800878","434980.998015","435748.240301","436515.226287","437265.715","438032.966901","438800.14699","439567.448468","443471.190394","444220.95107","430377.391962","431144.599393","431911.917097","432679.079458","433446.289594","434213.554715","443474.695369","Mapping"
"Mixed","Female","ball","9","F_romp.wav","None","741.419345301","407","442703.800878","434980.998015","435748.240301","436515.226287","437265.715","438032.966901","438800.14699","439567.448468","443471.190394","444220.95107","444987.990839","431144.599393","431911.917097","432679.079458","433446.289594","434213.554715","444224.008646","Mapping"
"Mixed","Female","ball","9","F_jaw.wav","None","740.422087385","407","442703.800878","434980.998015","435748.240301","436515.226287","437265.715","438032.966901","438800.14699","439567.448468","443471.190394","444220.95107","444987.990839","445755.232825","431911.917097","432679.079458","433446.289594","434213.554715","444990.7185","Mapping"
"Mixed","Female","ball","9","M_bluff.wav","None","739.15170279","407","442703.800878","434980.998015","435748.240301","436515.226287","437265.715","438032.966901","438800.14699","439567.448468","443471.190394","444220.95107","444987.990839","445755.232825","446522.51327","432679.079458","433446.289594","434213.554715","445757.919322","Mapping"
"Mixed","Female","ball","9","F_ball.wav","None","737.960942584","407","442703.800878","434980.998015","435748.240301","436515.226287","437265.715","438032.966901","438800.14699","439567.448468","443471.190394","444220.95107","444987.990839","445755.232825","446522.51327","447289.602317","433446.289594","434213.554715","446525.142077","Mapping"
"Mixed","Female","ball","9","M_bluff.wav","space","487.312980338","407","442703.800878","434980.998015","435748.240301","436515.226287","437265.715","438032.966901","438800.14699","439567.448468","443471.190394","444220.95107","444987.990839","445755.232825","446522.51327","447289.602317","448056.918218","434213.554715","447292.175837","Mapping"
"Mixed","Female","ball","9","M_park.wav","None","726.326467207","407","442703.800878","434980.998015","435748.240301","436515.226287","437265.715","438032.966901","438800.14699","439567.448468","443471.190394","444220.95107","444987.990839","445755.232825","446522.51327","447289.602317","448056.918218","448824.165612","448067.998928","Mapping"
"Mixed","Female","ball","9","M_knife.wav","None","733.205113028","407","442703.800878","449591.372442","435748.240301","436515.226287","437265.715","438032.966901","438800.14699","439567.448468","443471.190394","444220.95107","444987.990839","445755.232825","446522.51327","447289.602317","448056.918218","448824.165612","448827.079564","Mapping"
"Mixed","Female","ball","9","M_depth.wav","None","732.328042869","407","442703.800878","449591.372442","450358.488531","436515.226287","437265.715","438032.966901","438800.14699","439567.448468","443471.190394","444220.95107","444987.990839","445755.232825","446522.51327","447289.602317","448056.918218","448824.165612","449594.161399","Mapping"
"Mixed","Female","ball","9","F_ball.wav","None","731.411911688","407","442703.800878","449591.372442","450358.488531","451126.125033","437265.715","438032.966901","438800.14699","439567.448468","443471.190394","444220.95107","444987.990839","445755.232825","446522.51327","447289.602317","448056.918218","448824.165612","450361.177431","Mapping"
"Mixed","Female","ball","9","M_priest.wav","None","729.789376965","407","442703.800878","449591.372442","450358.488531","451126.125033","451893.727281","438032.966901","438800.14699","439567.448468","443471.190394","444220.95107","444987.990839","445755.232825","446522.51327","447289.602317","448056.918218","448824.165612","451129.012243","Mapping"
"Mixed","Female","ball","9","F_ball.wav","space","0.0360563272261","407","442703.800878","449591.372442","450358.488531","451126.125033","451893.727281","452661.18951","438800.14699","439567.448468","443471.190394","444220.95107","444987.990839","445755.232825","446522.51327","447289.602317","448056.918218","448824.165612","451897.72743","Mapping"
"Mixed","Female","ball","9","M_cling.wav","space","495.760076391","407","442703.800878","449591.372442","450358.488531","451126.125033","451893.727281","452661.18951","453411.025304","439567.448468","443471.190394","444220.95107","444987.990839","445755.232825","446522.51327","447289.602317","448056.918218","448824.165612","452664.707706","Mapping"
"Mixed","Female","ball","9","F_bluff.wav","None","740.444622589","407","442703.800878","449591.372442","450358.488531","451126.125033","451893.727281","452661.18951","453411.025304","454178.315364","443471.190394","444220.95107","444987.990839","445755.232825","446522.51327","447289.602317","448056.918218","448824.165612","453414.165209","Mapping"
"Mixed","Female","tile","34","F_cad.wav","None","739.712078209","407","457314.61399","449591.372442","450358.488531","451126.125033","451893.727281","452661.18951","453411.025304","454178.315364","443471.190394","444220.95107","444987.990839","445755.232825","446522.51327","447289.602317","448056.918218","448824.165612","454181.185748","Mapping"
"Mixed","Female","tile","34","F_dime.wav","None","727.644025497","407","457314.61399","449591.372442","450358.488531","451126.125033","451893.727281","452661.18951","453411.025304","454178.315364","458081.212069","444220.95107","444987.990839","445755.232825","446522.51327","447289.602317","448056.918218","448824.165612","457318.374665","Mapping"
"Mixed","Female","tile","34","M_gnash.wav","None","727.722147539","407","457314.61399","449591.372442","450358.488531","451126.125033","451893.727281","452661.18951","453411.025304","454178.315364","458081.212069","458848.318243","444987.990839","445755.232825","446522.51327","447289.602317","448056.918218","448824.165612","458084.248012","Mapping"
"Mixed","Female","tile","34","M_cling.wav","None","726.463180781","407","457314.61399","449591.372442","450358.488531","451126.125033","451893.727281","452661.18951","453411.025304","454178.315364","458081.212069","458848.318243","459615.431026","445755.232825","446522.51327","447289.602317","448056.918218","448824.165612","458851.782955","Mapping"
"Mixed","Female","tile","34","F_tile.wav","None","725.819575341","407","457314.61399","449591.372442","450358.488531","451126.125033","451893.727281","452661.18951","453411.025304","454178.315364","458081.212069","458848.318243","459615.431026","460365.690181","446522.51327","447289.602317","448056.918218","448824.165612","459618.810406","Mapping"
"Mixed","Female","tile","34","M_jaw.wav","space","590.039259331","407","457314.61399","449591.372442","450358.488531","451126.125033","451893.727281","452661.18951","453411.025304","454178.315364","458081.212069","458848.318243","459615.431026","460365.690181","461132.99166","447289.602317","448056.918218","448824.165612","460368.439777","Mapping"
"Mixed","Female","tile","34","F_tile.wav","space","612.833167975","407","457314.61399","449591.372442","450358.488531","451126.125033","451893.727281","452661.18951","453411.025304","454178.315364","458081.212069","458848.318243","459615.431026","460365.690181","461132.99166","461900.581889","448056.918218","448824.165612","461135.574494","Mapping"
"Mixed","Female","tile","34","M_dime.wav","space","631.48630791","407","457314.61399","449591.372442","450358.488531","451126.125033","451893.727281","452661.18951","453411.025304","454178.315364","458081.212069","458848.318243","459615.431026","460365.690181","461132.99166","461900.581889","462667.498166","448824.165612","461903.98771","Mapping"
"Mixed","Female","tile","34","F_tile.wav","None","735.257018514","407","457314.61399","449591.372442","450358.488531","451126.125033","451893.727281","452661.18951","453411.025304","454178.315364","458081.212069","458848.318243","459615.431026","460365.690181","461132.99166","461900.581889","462667.498166","463434.709503","462670.601113","Mapping"
"Mixed","Female","tile","34","F_cling.wav","space","388.051413919","407","457314.61399","464201.803357","450358.488531","451126.125033","451893.727281","452661.18951","453411.025304","454178.315364","458081.212069","458848.318243","459615.431026","460365.690181","461132.99166","461900.581889","462667.498166","463434.709503","463437.431155","Mapping"
"Mixed","Female","tile","34","F_tile.wav","None","732.59455922","407","457314.61399","464201.803357","464970.00354","451126.125033","451893.727281","452661.18951","453411.025304","454178.315364","458081.212069","458848.318243","459615.431026","460365.690181","461132.99166","461900.581889","462667.498166","463434.709503","464204.553554","Mapping"
"Mixed","Female","tile","34","M_knife.wav","space","620.668207874","407","457314.61399","464201.803357","464970.00354","465737.215178","451893.727281","452661.18951","453411.025304","454178.315364","458081.212069","458848.318243","459615.431026","460365.690181","461132.99166","461900.581889","462667.498166","463434.709503","464973.839031","Mapping"
"Mixed","Female","tile","34","M_reek.wav","None","727.578523169","407","457314.61399","464201.803357","464970.00354","465737.215178","466503.957482","452661.18951","453411.025304","454178.315364","458081.212069","458848.318243","459615.431026","460365.690181","461132.99166","461900.581889","462667.498166","463434.709503","465740.457843","Mapping"
"Mixed","Female","tile","34","M_reek.wav","None","727.889208522","407","457314.61399","464201.803357","464970.00354","465737.215178","466503.957482","467270.821477","453411.025304","454178.315364","458081.212069","458848.318243","459615.431026","460365.690181","461132.99166","461900.581889","462667.498166","463434.709503","466506.672824","Mapping"
"Mixed","Female","tile","34","F_cad.wav","None","726.381753576","407","457314.61399","464201.803357","464970.00354","465737.215178","466503.957482","467270.821477","468038.250054","454178.315364","458081.212069","458848.318243","459615.431026","460365.690181","461132.99166","461900.581889","462667.498166","463434.709503","467274.610396","Mapping"
"Mixed","Female","tile","34","M_depth.wav","None","726.127856938","407","457314.61399","464201.803357","464970.00354","465737.215178","466503.957482","467270.821477","468038.250054","468788.579519","458081.212069","458848.318243","459615.431026","460365.690181","461132.99166","461900.581889","462667.498166","463434.709503","468041.552513","Mapping"
"Mixed","Male","cave","14","M_dime.wav","None","742.171420193","407","471924.914201","464201.803357","464970.00354","465737.215178","466503.957482","467270.821477","468038.250054","468788.579519","458081.212069","458848.318243","459615.431026","460365.690181","461132.99166","461900.581889","462667.498166","463434.709503","468791.477847","Mapping"
"Mixed","Male","cave","14","M_cave.wav","None","727.965828217","407","471924.914201","464201.803357","464970.00354","465737.215178","466503.957482","467270.821477","468038.250054","468788.579519","472691.473219","458848.318243","459615.431026","460365.690181","461132.99166","461900.581889","462667.498166","463434.709503","471928.446219","Mapping"
"Mixed","Male","cave","14","M_reek.wav","space","526.544668081","407","471924.914201","464201.803357","464970.00354","465737.215178","466503.957482","467270.821477","468038.250054","468788.579519","472691.473219","473458.793327","459615.431026","460365.690181","461132.99166","461900.581889","462667.498166","463434.709503","472694.954458","Mapping"
"Mixed","Male","cave","14","F_jaw.wav","None","725.256796167","407","471924.914201","464201.803357","464970.00354","465737.215178","466503.957482","467270.821477","468038.250054","468788.579519","472691.473219","473458.793327","474209.254097","460365.690181","461132.99166","461900.581889","462667.498166","463434.709503","473462.508331","Mapping"
"Mixed","Male","cave","14","M_depth.wav","None","742.20747652","407","471924.914201","464201.803357","464970.00354","465737.215178","466503.957482","467270.821477","468038.250054","468788.579519","472691.473219","473458.793327","474209.254097","474976.351556","461132.99166","461900.581889","462667.498166","463434.709503","474212.087523","Mapping"
"Mixed","Male","cave","14","F_park.wav","None","741.43496971","407","471924.914201","464201.803357","464970.00354","465737.215178","466503.957482","467270.821477","468038.250054","468788.579519","472691.473219","473458.793327","474209.254097","474976.351556","475743.616077","461900.581889","462667.498166","463434.709503","474979.558767","Mapping"
"Mixed","Male","cave","14","M_cave.wav","None","740.616190613","407","471924.914201","464201.803357","464970.00354","465737.215178","466503.957482","467270.821477","468038.250054","468788.579519","472691.473219","473458.793327","474209.254097","474976.351556","475743.616077","476510.890213","462667.498166","463434.709503","475746.872564","Mapping"
"Mixed","Male","cave","14","F_reek.wav","space","593.059577672","407","471924.914201","464201.803357","464970.00354","465737.215178","466503.957482","467270.821477","468038.250054","468788.579519","472691.473219","473458.793327","474209.254097","474976.351556","475743.616077","476510.890213","477278.015316","463434.709503","476513.474249","Mapping"
"Mixed","Male","cave","14","F_knife.wav","None","737.627121089","407","471924.914201","464201.803357","464970.00354","465737.215178","466503.957482","467270.821477","468038.250054","468788.579519","472691.473219","473458.793327","474209.254097","474976.351556","475743.616077","476510.890213","477278.015316","478045.310484","477281.022113","Mapping"
"Mixed","Male","cave","14","F_bluff.wav","None","736.844398319","407","471924.914201","478812.562385","464970.00354","465737.215178","466503.957482","467270.821477","468038.250054","468788.579519","472691.473219","473458.793327","474209.254097","474976.351556","475743.616077","476510.890213","477278.015316","478045.310484","478048.110859","Mapping"
"Mixed","Male","cave","14","F_knife.wav","None","736.433957128","407","471924.914201","478812.562385","479579.77192","465737.215178","466503.957482","467270.821477","468038.250054","468788.579519","472691.473219","473458.793327","474209.254097","474976.351556","475743.616077","476510.890213","477278.015316","478045.310484","478815.187586","Mapping"
"Mixed","Male","cave","14","M_cave.wav","None","735.235084249","407","471924.914201","478812.562385","479579.77192","480346.943595","466503.957482","467270.821477","468038.250054","468788.579519","472691.473219","473458.793327","474209.254097","474976.351556","475743.616077","476510.890213","477278.015316","478045.310484","479582.470435","Mapping"
"Mixed","Male","cave","14","F_park.wav","space","489.591439747","407","471924.914201","478812.562385","479579.77192","480346.943595","481114.244473","467270.821477","468038.250054","468788.579519","472691.473219","473458.793327","474209.254097","474976.351556","475743.616077","476510.890213","477278.015316","478045.310484","480349.868665","Mapping"
"Mixed","Male","cave","14","F_bluff.wav","None","731.367141749","407","471924.914201","478812.562385","479579.77192","480346.943595","481114.244473","481882.07658","468038.250054","468788.579519","472691.473219","473458.793327","474209.254097","474976.351556","475743.616077","476510.890213","477278.015316","478045.310484","481117.113354","Mapping"
"Mixed","Male","cave","14","M_cave.wav","None","728.512081574","407","471924.914201","478812.562385","479579.77192","480346.943595","481114.244473","481882.07658","482649.075786","468788.579519","472691.473219","473458.793327","474209.254097","474976.351556","475743.616077","476510.890213","477278.015316","478045.310484","481885.999809","Mapping"
"Mixed","Male","cave","14","M_reek.wav","space","530.243145842","407","471924.914201","478812.562385","479579.77192","480346.943595","481114.244473","481882.07658","482649.075786","483416.657302","472691.473219","473458.793327","474209.254097","474976.351556","475743.616077","476510.890213","477278.015316","478045.310484","482652.228311","Mapping"
"Mixed","Male","done","37","F_cad.wav","None","725.440382966","407","486535.406712","478812.562385","479579.77192","480346.943595","481114.244473","481882.07658","482649.075786","483416.657302","472691.473219","473458.793327","474209.254097","474976.351556","475743.616077","476510.890213","477278.015316","478045.310484","483420.24701","Mapping"
"Mixed","Male","done","37","F_park.wav","None","726.714974133","407","486535.406712","478812.562385","479579.77192","480346.943595","481114.244473","481882.07658","482649.075786","483416.657302","487302.313674","473458.793327","474209.254097","474976.351556","475743.616077","476510.890213","477278.015316","478045.310484","486538.890655","Mapping"
"Mixed","Male","done","37","M_done.wav","None","726.235424981","407","486535.406712","478812.562385","479579.77192","480346.943595","481114.244473","481882.07658","482649.075786","483416.657302","487302.313674","488052.580341","474209.254097","474976.351556","475743.616077","476510.890213","477278.015316","478045.310484","487305.253467","Mapping"
"Mixed","Male","done","37","F_bluff.wav","space","444.987659722","407","486535.406712","478812.562385","479579.77192","480346.943595","481114.244473","481882.07658","482649.075786","483416.657302","487302.313674","488052.580341","488819.683209","474976.351556","475743.616077","476510.890213","477278.015316","478045.310484","488055.487082","Mapping"
"Mixed","Male","done","37","F_knife.wav","None","740.337655485","407","486535.406712","478812.562385","479579.77192","480346.943595","481114.244473","481882.07658","482649.075786","483416.657302","487302.313674","488052.580341","488819.683209","489586.962753","475743.616077","476510.890213","477278.015316","478045.310484","488822.453537","Mapping"
"Mixed","Male","done","37","M_done.wav","None","739.605712043","407","486535.406712","478812.562385","479579.77192","480346.943595","481114.244473","481882.07658","482649.075786","483416.657302","487302.313674","488052.580341","488819.683209","489586.962753","490354.234185","476510.890213","477278.015316","478045.310484","489589.58495","Mapping"
"Mixed","Male","done","37","F_cad.wav","space","537.206223562","407","486535.406712","478812.562385","479579.77192","480346.943595","481114.244473","481882.07658","482649.075786","483416.657302","487302.313674","488052.580341","488819.683209","489586.962753","490354.234185","491121.44432","477278.015316","478045.310484","490357.257207","Mapping"
"Mixed","Male","done","37","F_reek.wav","None","736.15572247","407","486535.406712","478812.562385","479579.77192","480346.943595","481114.244473","481882.07658","482649.075786","483416.657302","487302.313674","488052.580341","488819.683209","489586.962753","490354.234185","491121.44432","491888.662268","478045.310484","491124.300582","Mapping"
"Mixed","Male","done","37","M_done.wav","None","735.498595907","407","486535.406712","478812.562385","479579.77192","480346.943595","481114.244473","481882.07658","482649.075786","483416.657302","487302.313674","488052.580341","488819.683209","489586.962753","490354.234185","491121.44432","491888.662268","492655.808704","491891.40285","Mapping"
"Mixed","Male","done","37","M_jaw.wav","space","356.15238125","407","486535.406712","493423.037469","479579.77192","480346.943595","481114.244473","481882.07658","482649.075786","483416.657302","487302.313674","488052.580341","488819.683209","489586.962753","490354.234185","491121.44432","491888.662268","492655.808704","492658.318225","Mapping"
"Mixed","Male","done","37","F_priest.wav","None","732.291986541","407","486535.406712","493423.037469","494190.367492","480346.943595","481114.244473","481882.07658","482649.075786","483416.657302","487302.313674","488052.580341","488819.683209","489586.962753","490354.234185","491121.44432","491888.662268","492655.808704","493425.833637","Mapping"
"Mixed","Male","done","37","M_done.wav","None","731.036925886","407","486535.406712","493423.037469","494190.367492","494957.691806","481114.244473","481882.07658","482649.075786","483416.657302","487302.313674","488052.580341","488819.683209","489586.962753","490354.234185","491121.44432","491888.662268","492655.808704","494193.398026","Mapping"
"Mixed","Male","done","37","F_lash.wav","space","496.730592532","407","486535.406712","493423.037469","494190.367492","494957.691806","495725.039256","481882.07658","482649.075786","483416.657302","487302.313674","488052.580341","488819.683209","489586.962753","490354.234185","491121.44432","491888.662268","492655.808704","494960.798359","Mapping"
"Mixed","Male","done","37","M_bluff.wav","None","727.709527824","407","486535.406712","493423.037469","494190.367492","494957.691806","495725.039256","496492.232265","482649.075786","483416.657302","487302.313674","488052.580341","488819.683209","489586.962753","490354.234185","491121.44432","491888.662268","492655.808704","495727.842035","Mapping"
"Mixed","Male","done","37","M_cad.wav","None","726.665396683","407","486535.406712","493423.037469","494190.367492","494957.691806","495725.039256","496492.232265","497242.463777","483416.657302","487302.313674","488052.580341","488819.683209","489586.962753","490354.234185","491121.44432","491888.662268","492655.808704","496495.396508","Mapping"
"Mixed","Male","done","37","M_depth.wav","None","742.684020978","407","486535.406712","493423.037469","494190.367492","494957.691806","495725.039256","496492.232265","497242.463777","498009.773368","487302.313674","488052.580341","488819.683209","489586.962753","490354.234185","491121.44432","491888.662268","492655.808704","497245.622011","Mapping"
"Mixed","Female","tile","35","M_bluff.wav","None","741.602932101","407","501146.324989","493423.037469","494190.367492","494957.691806","495725.039256","496492.232265","497242.463777","498009.773368","487302.313674","488052.580341","488819.683209","489586.962753","490354.234185","491121.44432","491888.662268","492655.808704","498013.138325","Mapping"
"Mixed","Female","tile","35","M_jolt.wav","None","727.095969323","407","501146.324989","493423.037469","494190.367492","494957.691806","495725.039256","496492.232265","497242.463777","498009.773368","501913.414937","488052.580341","488819.683209","489586.962753","490354.234185","491121.44432","491888.662268","492655.808704","501150.290584","Mapping"
"Mixed","Female","tile","35","F_reek.wav","None","727.192119529","407","501146.324989","493423.037469","494190.367492","494957.691806","495725.039256","496492.232265","497242.463777","498009.773368","501913.414937","502680.709204","488819.683209","489586.962753","490354.234185","491121.44432","491888.662268","492655.808704","501916.782598","Mapping"
"Mixed","Female","tile","35","F_cad.wav","None","726.226711368","407","501146.324989","493423.037469","494190.367492","494957.691806","495725.039256","496492.232265","497242.463777","498009.773368","501913.414937","502680.709204","503447.274833","489586.962753","490354.234185","491121.44432","491888.662268","492655.808704","502684.108715","Mapping"
"Mixed","Female","tile","35","M_lash.wav","None","726.86490836","407","501146.324989","493423.037469","494190.367492","494957.691806","495725.039256","496492.232265","497242.463777","498009.773368","501913.414937","502680.709204","503447.274833","504214.433889","490354.234185","491121.44432","491888.662268","492655.808704","503450.079114","Mapping"
"Mixed","Female","tile","35","F_tile.wav","None","725.996551813","407","501146.324989","493423.037469","494190.367492","494957.691806","495725.039256","496492.232265","497242.463777","498009.773368","501913.414937","502680.709204","503447.274833","504214.433889","504964.772668","491121.44432","491888.662268","492655.808704","504217.446395","Mapping"
"Mixed","Female","tile","35","M_cad.wav","space","609.989826106","407","501146.324989","493423.037469","494190.367492","494957.691806","495725.039256","496492.232265","497242.463777","498009.773368","501913.414937","502680.709204","503447.274833","504214.433889","504964.772668","505732.064231","491888.662268","492655.808704","504967.476291","Mapping"
"Mixed","Female","tile","35","F_dime.wav","None","739.810031231","407","501146.324989","493423.037469","494190.367492","494957.691806","495725.039256","496492.232265","497242.463777","498009.773368","501913.414937","502680.709204","503447.274833","504214.433889","504964.772668","505732.064231","506499.182723","492655.808704","505734.747723","Mapping"
"Mixed","Female","tile","35","F_tile.wav","None","739.025505645","407","501146.324989","493423.037469","494190.367492","494957.691806","495725.039256","496492.232265","497242.463777","498009.773368","501913.414937","502680.709204","503447.274833","504214.433889","504964.772668","505732.064231","506499.182723","507266.398568","506502.105089","Mapping"
"Mixed","Female","tile","35","M_gnash.wav","None","737.968754789","407","501146.324989","508033.658882","494190.367492","494957.691806","495725.039256","496492.232265","497242.463777","498009.773368","501913.414937","502680.709204","503447.274833","504214.433889","504964.772668","505732.064231","506499.182723","507266.398568","507269.346473","Mapping"
"Mixed","Female","tile","35","F_tile.wav","space","13.0394702604","407","501146.324989","508033.658882","508800.914989","494957.691806","495725.039256","496492.232265","497242.463777","498009.773368","501913.414937","502680.709204","503447.274833","504214.433889","504964.772668","505732.064231","506499.182723","507266.398568","508036.404271","Mapping"
"Mixed","Female","tile","35","F_knife.wav","space","611.482257583","407","501146.324989","508033.658882","508800.914989","509568.0449","495725.039256","496492.232265","497242.463777","498009.773368","501913.414937","502680.709204","503447.274833","504214.433889","504964.772668","505732.064231","506499.182723","507266.398568","508804.010425","Mapping"
"Mixed","Female","tile","35","F_tile.wav","None","733.073507433","407","501146.324989","508033.658882","508800.914989","509568.0449","510335.363204","496492.232265","497242.463777","498009.773368","501913.414937","502680.709204","503447.274833","504214.433889","504964.772668","505732.064231","506499.182723","507266.398568","509570.890946","Mapping"
"Mixed","Female","tile","35","M_priest.wav","space","584.321927715","407","501146.324989","508033.658882","508800.914989","509568.0449","510335.363204","511102.846467","497242.463777","498009.773368","501913.414937","502680.709204","503447.274833","504214.433889","504964.772668","505732.064231","506499.182723","507266.398568","510338.150358","Mapping"
"Mixed","Female","tile","35","M_jaw.wav","None","729.033696441","407","501146.324989","508033.658882","508800.914989","509568.0449","510335.363204","511102.846467","511869.936415","498009.773368","501913.414937","502680.709204","503447.274833","504214.433889","504964.772668","505732.064231","506499.182723","507266.398568","511105.788663","Mapping"
