"Condition","Talker","Target","Trial","current_stimulus","response_response","response_time_response","subject_nr","time_Audio1","time_Audio10","time_Audio11","time_Audio12","time_Audio13","time_Audio14","time_Audio15","time_Audio16","time_Audio2","time_Audio3","time_Audio4","time_Audio5","time_Audio6","time_Audio7","time_Audio8","time_Audio9","time_response"
"Blocked","Male","ball","5","M_cad.wav","NA","NA","237","129915.190486","NA","NA","NA","NA","NA","NA","NA","NA","NA","NA","NA","NA","NA","NA","NA","NA"
"Blocked","Male","ball","5","M_ball.wav","None","713.536552503","237","129915.190486","NA","NA","NA","NA","NA","NA","NA","130682.184604","NA","NA","NA","NA","NA","NA","NA","129933.591016"
"Blocked","Male","ball","5","M_knife.wav","space","529.53248634","237","129915.190486","NA","NA","NA","NA","NA","NA","NA","130682.184604","131448.296353","NA","NA","NA","NA","NA","NA","130692.277441"
"Blocked","Male","ball","5","M_knife.wav","None","720.121243852","237","129915.190486","NA","NA","NA","NA","NA","NA","NA","130682.184604","131448.296353","132215.143925","NA","NA","NA","NA","NA","131458.354563"
"Blocked","Male","ball","5","M_tile.wav","None","719.287413871","237","129915.190486","NA","NA","NA","NA","NA","NA","NA","130682.184604","131448.296353","132215.143925","132964.425415","NA","NA","NA","NA","132225.25964"
"Blocked","Male","ball","5","M_ball.wav","None","736.439208617","237","129915.190486","NA","NA","NA","NA","NA","NA","NA","130682.184604","131448.296353","132215.143925","132964.425415","133731.37594","NA","NA","NA","132973.902077"
"Blocked","Male","ball","5","M_depth.wav","space","408.797479118","237","129915.190486","NA","NA","NA","NA","NA","NA","NA","130682.184604","131448.296353","132215.143925","132964.425415","133731.37594","134497.838596","NA","NA","133740.928659"
"Blocked","Male","ball","5","M_park.wav","None","734.215352568","237","129915.190486","NA","NA","NA","NA","NA","NA","NA","130682.184604","131448.296353","132215.143925","132964.425415","133731.37594","134497.838596","135264.723578","NA","134507.280323"
"Blocked","Male","ball","5","M_ball.wav","None","732.655592612","237","129915.190486","NA","NA","NA","NA","NA","NA","NA","130682.184604","131448.296353","132215.143925","132964.425415","133731.37594","134497.838596","135264.723578","136031.258579","135274.623184"
"Blocked","Male","ball","5","M_knife.wav","space","516.927956021","237","129915.190486","136798.195192","NA","NA","NA","NA","NA","NA","130682.184604","131448.296353","132215.143925","132964.425415","133731.37594","134497.838596","135264.723578","136031.258579","136040.713909"
"Blocked","Male","ball","5","M_dime.wav","None","730.756364646","237","129915.190486","136798.195192","137565.031634","NA","NA","NA","NA","NA","130682.184604","131448.296353","132215.143925","132964.425415","133731.37594","134497.838596","135264.723578","136031.258579","136807.78161"
"Blocked","Male","ball","5","M_ball.wav","None","730.359391076","237","129915.190486","136798.195192","137565.031634","138331.702361","NA","NA","NA","NA","130682.184604","131448.296353","132215.143925","132964.425415","133731.37594","134497.838596","135264.723578","136031.258579","137574.122144"
"Blocked","Male","ball","5","M_dime.wav","space","432.399167563","237","129915.190486","136798.195192","137565.031634","138331.702361","139097.873471","NA","NA","NA","130682.184604","131448.296353","132215.143925","132964.425415","133731.37594","134497.838596","135264.723578","136031.258579","138341.128629"
"Blocked","Male","ball","5","M_tile.wav","None","729.388908017","237","129915.190486","136798.195192","137565.031634","138331.702361","139097.873471","139864.959721","NA","NA","130682.184604","131448.296353","132215.143925","132964.425415","133731.37594","134497.838596","135264.723578","136031.258579","139107.355698"
"Blocked","Male","ball","5","M_cad.wav","None","728.493862436","237","129915.190486","136798.195192","137565.031634","138331.702361","139097.873471","139864.959721","140631.705577","NA","130682.184604","131448.296353","132215.143925","132964.425415","133731.37594","134497.838596","135264.723578","136031.258579","139874.379806"
"Blocked","Male","ball","5","M_jolt.wav","None","728.04556659","237","129915.190486","136798.195192","137565.031634","138331.702361","139097.873471","139864.959721","140631.705577","141398.196985","130682.184604","131448.296353","132215.143925","132964.425415","133731.37594","134497.838596","135264.723578","136031.258579","140641.311472"
"Blocked","Male","done","22","M_cling.wav","None","727.936738986","237","144548.4416","136798.195192","137565.031634","138331.702361","139097.873471","139864.959721","140631.705577","141398.196985","130682.184604","131448.296353","132215.143925","132964.425415","133731.37594","134497.838596","135264.723578","136031.258579","141407.731463"
"Blocked","Male","done","22","M_reek.wav","None","722.214630339","237","144548.4416","136798.195192","137565.031634","138331.702361","139097.873471","139864.959721","140631.705577","141398.196985","145315.024832","131448.296353","132215.143925","132964.425415","133731.37594","134497.838596","135264.723578","136031.258579","144558.05708"
"Blocked","Male","done","22","M_reek.wav","None","721.252494957","237","144548.4416","136798.195192","137565.031634","138331.702361","139097.873471","139864.959721","140631.705577","141398.196985","145315.024832","146082.178482","132215.143925","132964.425415","133731.37594","134497.838596","135264.723578","136031.258579","145325.198363"
"Blocked","Male","done","22","M_cave.wav","None","720.768335625","237","144548.4416","136798.195192","137565.031634","138331.702361","139097.873471","139864.959721","140631.705577","141398.196985","145315.024832","146082.178482","146849.004722","132964.425415","133731.37594","134497.838596","135264.723578","136031.258579","146091.791489"
"Blocked","Male","done","22","M_done.wav","None","719.433960156","237","144548.4416","136798.195192","137565.031634","138331.702361","139097.873471","139864.959721","140631.705577","141398.196985","145315.024832","146082.178482","146849.004722","147615.147078","133731.37594","134497.838596","135264.723578","136031.258579","146858.960288"
"Blocked","Male","done","22","M_reek.wav","space","476.485806634","237","144548.4416","136798.195192","137565.031634","138331.702361","139097.873471","139864.959721","140631.705577","141398.196985","145315.024832","146082.178482","146849.004722","147615.147078","148364.170721","134497.838596","135264.723578","136031.258579","147624.815117"
"Blocked","Male","done","22","M_greet.wav","None","736.122309929","237","144548.4416","136798.195192","137565.031634","138331.702361","139097.873471","139864.959721","140631.705577","141398.196985","145315.024832","146082.178482","146849.004722","147615.147078","148364.170721","149131.144743","135264.723578","136031.258579","148373.500837"
"Blocked","Male","done","22","M_done.wav","None","735.118436627","237","144548.4416","136798.195192","137565.031634","138331.702361","139097.873471","139864.959721","140631.705577","141398.196985","145315.024832","146082.178482","146849.004722","147615.147078","148364.170721","149131.144743","149897.85659","136031.258579","149140.648922"
"Blocked","Male","done","22","M_jolt.wav","space","457.773942733","237","144548.4416","136798.195192","137565.031634","138331.702361","139097.873471","139864.959721","140631.705577","141398.196985","145315.024832","146082.178482","146849.004722","147615.147078","148364.170721","149131.144743","149897.85659","150664.606774","149907.443008"
"Blocked","Male","done","22","M_done.wav","None","732.481839368","237","144548.4416","151430.970186","137565.031634","138331.702361","139097.873471","139864.959721","140631.705577","141398.196985","145315.024832","146082.178482","146849.004722","147615.147078","148364.170721","149131.144743","149897.85659","150664.606774","150674.308512"
"Blocked","Male","done","22","M_reek.wav","space","629.040844971","237","144548.4416","151430.970186","152197.873409","138331.702361","139097.873471","139864.959721","140631.705577","141398.196985","145315.024832","146082.178482","146849.004722","147615.147078","148364.170721","149131.144743","149897.85659","150664.606774","151440.110782"
"Blocked","Male","done","22","M_dime.wav","None","730.012502754","237","144548.4416","151430.970186","152197.873409","152964.546918","139097.873471","139864.959721","140631.705577","141398.196985","145315.024832","146082.178482","146849.004722","147615.147078","148364.170721","149131.144743","149897.85659","150664.606774","152207.690158"
"Blocked","Male","done","22","M_depth.wav","None","730.43421004","237","144548.4416","151430.970186","152197.873409","152964.546918","153731.161686","139864.959721","140631.705577","141398.196985","145315.024832","146082.178482","146849.004722","147615.147078","148364.170721","149131.144743","149897.85659","150664.606774","152973.523654"
"Blocked","Male","done","22","M_bluff.wav","None","729.49217062","237","144548.4416","151430.970186","152197.873409","152964.546918","153731.161686","154497.751101","140631.705577","141398.196985","145315.024832","146082.178482","146849.004722","147615.147078","148364.170721","149131.144743","149897.85659","150664.606774","153740.619798"
"Blocked","Male","done","22","M_done.wav","None","728.454288677","237","144548.4416","151430.970186","152197.873409","152964.546918","153731.161686","154497.751101","155264.540859","141398.196985","145315.024832","146082.178482","146849.004722","147615.147078","148364.170721","149131.144743","149897.85659","150664.606774","154507.300728"
"Blocked","Male","done","22","M_bluff.wav","space","434.756584698","237","144548.4416","151430.970186","152197.873409","152964.546918","153731.161686","154497.751101","155264.540859","156031.174485","145315.024832","146082.178482","146849.004722","147615.147078","148364.170721","149131.144743","149897.85659","150664.606774","155274.287735"
"Blocked","Male","done","24","M_dime.wav","None","727.068281849","237","159164.382007","151430.970186","152197.873409","152964.546918","153731.161686","154497.751101","155264.540859","156031.174485","145315.024832","146082.178482","146849.004722","147615.147078","148364.170721","149131.144743","149897.85659","150664.606774","156040.558706"
"Blocked","Male","done","24","M_done.wav","None","724.51979795","237","159164.382007","151430.970186","152197.873409","152964.546918","153731.161686","154497.751101","155264.540859","156031.174485","159931.412608","146082.178482","146849.004722","147615.147078","148364.170721","149131.144743","149897.85659","150664.606774","159173.818169"
"Blocked","Male","done","24","M_depth.wav","space","495.445624576","237","159164.382007","151430.970186","152197.873409","152964.546918","153731.161686","154497.751101","155264.540859","156031.174485","159931.412608","160698.054582","146849.004722","147615.147078","148364.170721","149131.144743","149897.85659","150664.606774","159941.459379"
"Blocked","Male","done","24","M_romp.wav","None","721.33720736","237","159164.382007","151430.970186","152197.873409","152964.546918","153731.161686","154497.751101","155264.540859","156031.174485","159931.412608","160698.054582","161464.693465","147615.147078","148364.170721","149131.144743","149897.85659","150664.606774","160708.007056"
"Blocked","Male","done","24","M_depth.wav","None","720.845318749","237","159164.382007","151430.970186","152197.873409","152964.546918","153731.161686","154497.751101","155264.540859","156031.174485","159931.412608","160698.054582","161464.693465","162231.374703","148364.170721","149131.144743","149897.85659","150664.606774","161474.537421"
"Blocked","Male","done","24","M_done.wav","None","719.814238604","237","159164.382007","151430.970186","152197.873409","152964.546918","153731.161686","154497.751101","155264.540859","156031.174485","159931.412608","160698.054582","161464.693465","162231.374703","162998.013895","149131.144743","149897.85659","150664.606774","162241.576678"
"Blocked","Male","done","24","M_cling.wav","space","429.461129941","237","159164.382007","151430.970186","152197.873409","152964.546918","153731.161686","154497.751101","155264.540859","156031.174485","159931.412608","160698.054582","161464.693465","162231.374703","162998.013895","163764.657106","149897.85659","150664.606774","163007.362253"
"Blocked","Male","done","24","M_done.wav","None","719.168383512","237","159164.382007","151430.970186","152197.873409","152964.546918","153731.161686","154497.751101","155264.540859","156031.174485","159931.412608","160698.054582","161464.693465","162231.374703","162998.013895","163764.657106","164513.917573","150664.606774","163774.183854"
"Blocked","Male","done","24","M_reek.wav","space","553.56855772","237","159164.382007","151430.970186","152197.873409","152964.546918","153731.161686","154497.751101","155264.540859","156031.174485","159931.412608","160698.054582","161464.693465","162231.374703","162998.013895","163764.657106","164513.917573","165280.795753","164523.21399"
"Blocked","Male","done","24","M_gnash.wav","None","734.281514888","237","159164.382007","166047.457514","152197.873409","152964.546918","153731.161686","154497.751101","155264.540859","156031.174485","159931.412608","160698.054582","161464.693465","162231.374703","162998.013895","163764.657106","164513.917573","165280.795753","165290.316317"
"Blocked","Male","done","24","M_lash.wav","None","733.569497592","237","159164.382007","166047.457514","166814.190693","152964.546918","153731.161686","154497.751101","155264.540859","156031.174485","159931.412608","160698.054582","161464.693465","162231.374703","162998.013895","163764.657106","164513.917573","165280.795753","166056.972823"
"Blocked","Male","done","24","M_jolt.wav","None","733.102342463","237","159164.382007","166047.457514","166814.190693","167580.86915","153731.161686","154497.751101","155264.540859","156031.174485","159931.412608","160698.054582","161464.693465","162231.374703","162998.013895","163764.657106","164513.917573","165280.795753","166823.654989"
"Blocked","Male","done","24","M_reek.wav","None","732.967235381","237","159164.382007","166047.457514","166814.190693","167580.86915","168347.443725","154497.751101","155264.540859","156031.174485","159931.412608","160698.054582","161464.693465","162231.374703","162998.013895","163764.657106","164513.917573","165280.795753","167590.360343"
"Blocked","Male","done","24","M_reek.wav","None","732.260783203","237","159164.382007","166047.457514","166814.190693","167580.86915","168347.443725","169114.184943","155264.540859","156031.174485","159931.412608","160698.054582","161464.693465","162231.374703","162998.013895","163764.657106","164513.917573","165280.795753","168356.888234"
"Blocked","Male","done","24","M_done.wav","None","732.143917121","237","159164.382007","166047.457514","166814.190693","167580.86915","168347.443725","169114.184943","169880.764465","156031.174485","159931.412608","160698.054582","161464.693465","162231.374703","162998.013895","163764.657106","164513.917573","165280.795753","169123.176209"
"Blocked","Male","done","24","M_cad.wav","space","458.354562987","237","159164.382007","166047.457514","166814.190693","167580.86915","168347.443725","169114.184943","169880.764465","170647.278752","159931.412608","160698.054582","161464.693465","162231.374703","162998.013895","163764.657106","164513.917573","165280.795753","169890.294923"
"Blocked","Male","ball","6","M_dime.wav","None","730.576737085","237","173781.170466","166047.457514","166814.190693","167580.86915","168347.443725","169114.184943","169880.764465","170647.278752","159931.412608","160698.054582","161464.693465","162231.374703","162998.013895","163764.657106","164513.917573","165280.795753","170656.468815"
"Blocked","Male","ball","6","M_romp.wav","None","721.941324533","237","173781.170466","166047.457514","166814.190693","167580.86915","168347.443725","169114.184943","169880.764465","170647.278752","174547.656001","160698.054582","161464.693465","162231.374703","162998.013895","163764.657106","164513.917573","165280.795753","173790.649293"
"Blocked","Male","ball","6","M_lash.wav","None","720.982899191","237","173781.170466","166047.457514","166814.190693","167580.86915","168347.443725","169114.184943","169880.764465","170647.278752","174547.656001","175313.663868","161464.693465","162231.374703","162998.013895","163764.657106","164513.917573","165280.795753","174557.272408"
"Blocked","Male","ball","6","M_ball.wav","None","720.904988586","237","173781.170466","166047.457514","166814.190693","167580.86915","168347.443725","169114.184943","169880.764465","170647.278752","174547.656001","175313.663868","176081.111538","162231.374703","162998.013895","163764.657106","164513.917573","165280.795753","175322.821159"
"Blocked","Male","ball","6","M_greet.wav","space","337.792999926","237","173781.170466","166047.457514","166814.190693","167580.86915","168347.443725","169114.184943","169880.764465","170647.278752","174547.656001","175313.663868","176081.111538","176830.434766","162998.013895","163764.657106","164513.917573","165280.795753","176090.673532"
"Blocked","Male","ball","6","M_cave.wav","None","735.514482716","237","173781.170466","166047.457514","166814.190693","167580.86915","168347.443725","169114.184943","169880.764465","170647.278752","174547.656001","175313.663868","176081.111538","176830.434766","177597.006868","163764.657106","164513.917573","165280.795753","176840.020257"
"Blocked","Male","ball","6","M_greet.wav","None","734.41785865","237","173781.170466","166047.457514","166814.190693","167580.86915","168347.443725","169114.184943","169880.764465","170647.278752","174547.656001","175313.663868","176081.111538","176830.434766","177597.006868","178363.581753","164513.917573","165280.795753","177606.581847"
"Blocked","Male","ball","6","M_ball.wav","None","734.092303086","237","173781.170466","166047.457514","166814.190693","167580.86915","168347.443725","169114.184943","169880.764465","170647.278752","174547.656001","175313.663868","176081.111538","176830.434766","177597.006868","178363.581753","179130.02184","165280.795753","178373.041721"
"Blocked","Male","ball","6","M_dime.wav","space","449.58466175","237","173781.170466","166047.457514","166814.190693","167580.86915","168347.443725","169114.184943","169880.764465","170647.278752","174547.656001","175313.663868","176081.111538","176830.434766","177597.006868","178363.581753","179130.02184","179897.089231","179138.780302"
"Blocked","Male","ball","6","M_cad.wav","None","732.048074598","237","173781.170466","180663.780054","166814.190693","167580.86915","168347.443725","169114.184943","169880.764465","170647.278752","174547.656001","175313.663868","176081.111538","176830.434766","177597.006868","178363.581753","179130.02184","179897.089231","179906.821268"
"Blocked","Male","ball","6","M_ball.wav","None","731.951304595","237","173781.170466","180663.780054","181430.432231","167580.86915","168347.443725","169114.184943","169880.764465","170647.278752","174547.656001","175313.663868","176081.111538","176830.434766","177597.006868","178363.581753","179130.02184","179897.089231","180673.123774"
"Blocked","Male","ball","6","M_cling.wav","space","508.51019891","237","173781.170466","180663.780054","181430.432231","182197.033086","168347.443725","169114.184943","169880.764465","170647.278752","174547.656001","175313.663868","176081.111538","176830.434766","177597.006868","178363.581753","179130.02184","179897.089231","181439.779043"
"Blocked","Male","ball","6","M_jolt.wav","None","730.228303117","237","173781.170466","180663.780054","181430.432231","182197.033086","182963.461733","169114.184943","169880.764465","170647.278752","174547.656001","175313.663868","176081.111538","176830.434766","177597.006868","178363.581753","179130.02184","179897.089231","182206.439567"
"Blocked","Male","ball","6","M_ball.wav","None","729.83132943","237","173781.170466","180663.780054","181430.432231","182197.033086","182963.461733","183730.353517","169880.764465","170647.278752","174547.656001","175313.663868","176081.111538","176830.434766","177597.006868","178363.581753","179130.02184","179897.089231","182973.095145"
"Blocked","Male","ball","6","M_park.wav","space","440.421806066","237","173781.170466","180663.780054","181430.432231","182197.033086","182963.461733","183730.353517","184496.892847","170647.278752","174547.656001","175313.663868","176081.111538","176830.434766","177597.006868","178363.581753","179130.02184","179897.089231","183739.756288"
"Blocked","Male","ball","6","M_park.wav","None","729.738887865","237","173781.170466","180663.780054","181430.432231","182197.033086","182963.461733","183730.353517","184496.892847","185263.66189","174547.656001","175313.663868","176081.111538","176830.434766","177597.006868","178363.581753","179130.02184","179897.089231","184505.741895"
"Blocked","Male","tile","16","M_romp.wav","None","728.604545002","237","188397.303177","180663.780054","181430.432231","182197.033086","182963.461733","183730.353517","184496.892847","185263.66189","174547.656001","175313.663868","176081.111538","176830.434766","177597.006868","178363.581753","179130.02184","179897.089231","185272.972528"
"Blocked","Male","tile","16","M_tile.wav","None","722.016761894","237","188397.303177","180663.780054","181430.432231","182197.033086","182963.461733","183730.353517","184496.892847","185263.66189","189163.587133","175313.663868","176081.111538","176830.434766","177597.006868","178363.581753","179130.02184","179897.089231","188407.176194"
"Blocked","Male","tile","16","M_priest.wav","space","527.009972604","237","188397.303177","180663.780054","181430.432231","182197.033086","182963.461733","183730.353517","184496.892847","185263.66189","189163.587133","189930.457274","176081.111538","176830.434766","177597.006868","178363.581753","179130.02184","179897.089231","189173.005981"
"Blocked","Male","tile","16","M_ball.wav","None","720.96002067","237","188397.303177","180663.780054","181430.432231","182197.033086","182963.461733","183730.353517","184496.892847","185263.66189","189163.587133","189930.457274","190697.022265","176830.434766","177597.006868","178363.581753","179130.02184","179897.089231","189940.596796"
"Blocked","Male","tile","16","M_reek.wav","None","721.119552152","237","188397.303177","180663.780054","181430.432231","182197.033086","182963.461733","183730.353517","184496.892847","185263.66189","189163.587133","189930.457274","190697.022265","191463.86118","177597.006868","178363.581753","179130.02184","179897.089231","190706.700815"
"Blocked","Male","tile","16","M_tile.wav","None","720.747621264","237","188397.303177","180663.780054","181430.432231","182197.033086","182963.461733","183730.353517","184496.892847","185263.66189","189163.587133","189930.457274","190697.022265","191463.86118","192230.511502","178363.581753","179130.02184","179897.089231","191473.40586"
"Blocked","Male","tile","16","M_reek.wav","space","411.536411499","237","188397.303177","180663.780054","181430.432231","182197.033086","182963.461733","183730.353517","184496.892847","185263.66189","189163.587133","189930.457274","190697.022265","191463.86118","192230.511502","192997.08886","179130.02184","179897.089231","192240.442335"
"Blocked","Male","tile","16","M_done.wav","None","719.409226556","237","188397.303177","180663.780054","181430.432231","182197.033086","182963.461733","183730.353517","184496.892847","185263.66189","189163.587133","189930.457274","190697.022265","191463.86118","192230.511502","192997.08886","193763.752167","179897.089231","193007.030514"
"Blocked","Male","tile","16","M_park.wav","None","719.11644307","237","188397.303177","180663.780054","181430.432231","182197.033086","182963.461733","183730.353517","184496.892847","185263.66189","189163.587133","189930.457274","190697.022265","191463.86118","192230.511502","192997.08886","193763.752167","194529.722935","193773.70155"
"Blocked","Male","tile","16","M_tile.wav","None","720.407225657","237","188397.303177","195297.058067","181430.432231","182197.033086","182963.461733","183730.353517","184496.892847","185263.66189","189163.587133","189930.457274","190697.022265","191463.86118","192230.511502","192997.08886","193763.752167","194529.722935","194538.667826"
"Blocked","Male","tile","16","M_priest.wav","space","384.941035183","237","188397.303177","195297.058067","196046.236913","182197.033086","182963.461733","183730.353517","184496.892847","185263.66189","189163.587133","189930.457274","190697.022265","191463.86118","192230.511502","192997.08886","193763.752167","194529.722935","195306.912535"
"Blocked","Male","tile","16","M_ball.wav","None","735.743577243","237","188397.303177","195297.058067","196046.236913","196812.985242","182963.461733","183730.353517","184496.892847","185263.66189","189163.587133","189930.457274","190697.022265","191463.86118","192230.511502","192997.08886","193763.752167","194529.722935","196055.347828"
"Blocked","Male","tile","16","M_gnash.wav","None","734.963233583","237","188397.303177","195297.058067","196046.236913","196812.985242","197579.831577","183730.353517","184496.892847","185263.66189","189163.587133","189930.457274","190697.022265","191463.86118","192230.511502","192997.08886","193763.752167","194529.722935","196822.585572"
"Blocked","Male","tile","16","M_tile.wav","None","734.990131343","237","188397.303177","195297.058067","196046.236913","196812.985242","197579.831577","198346.304436","184496.892847","185263.66189","189163.587133","189930.457274","190697.022265","191463.86118","192230.511502","192997.08886","193763.752167","194529.722935","197588.863035"
"Blocked","Male","tile","16","M_jolt.wav","space","408.357531065","237","188397.303177","195297.058067","196046.236913","196812.985242","197579.831577","198346.304436","199113.133457","185263.66189","189163.587133","189930.457274","190697.022265","191463.86118","192230.511502","192997.08886","193763.752167","194529.722935","198355.421225"
"Blocked","Male","tile","16","M_romp.wav","None","734.302229132","237","188397.303177","195297.058067","196046.236913","196812.985242","197579.831577","198346.304436","199113.133457","199879.978556","189163.587133","189930.457274","190697.022265","191463.86118","192230.511502","192997.08886","193763.752167","194529.722935","199122.203562"
"Blocked","Male","ball","3","M_tile.wav","None","733.933080803","237","203013.469586","195297.058067","196046.236913","196812.985242","197579.831577","198346.304436","199113.133457","199879.978556","189163.587133","189930.457274","190697.022265","191463.86118","192230.511502","192997.08886","193763.752167","194529.722935","199889.232926"
"Blocked","Male","ball","3","M_ball.wav","None","722.812564112","237","203013.469586","195297.058067","196046.236913","196812.985242","197579.831577","198346.304436","199113.133457","199879.978556","203780.35395","189930.457274","190697.022265","191463.86118","192230.511502","192997.08886","193763.752167","194529.722935","203023.047347"
"Blocked","Male","ball","3","M_cave.wav","space","389.26415192","237","203013.469586","195297.058067","196046.236913","196812.985242","197579.831577","198346.304436","199113.133457","199879.978556","203780.35395","204546.278651","190697.022265","191463.86118","192230.511502","192997.08886","193763.752167","194529.722935","203790.314153"
"Blocked","Male","ball","3","M_dime.wav","None","721.777773928","237","203013.469586","195297.058067","196046.236913","196812.985242","197579.831577","198346.304436","199113.133457","199879.978556","203780.35395","204546.278651","205313.451469","191463.86118","192230.511502","192997.08886","193763.752167","194529.722935","204555.528074"
"Blocked","Male","ball","3","M_ball.wav","None","720.144431572","237","203013.469586","195297.058067","196046.236913","196812.985242","197579.831577","198346.304436","199113.133457","199879.978556","203780.35395","204546.278651","205313.451469","206080.160224","192230.511502","192997.08886","193763.752167","194529.722935","205323.02552"
"Blocked","Male","ball","3","M_dime.wav","space","401.837765123","237","203013.469586","195297.058067","196046.236913","196812.985242","197579.831577","198346.304436","199113.133457","199879.978556","203780.35395","204546.278651","205313.451469","206080.160224","206830.048305","192997.08886","193763.752167","194529.722935","206089.752825"
"Blocked","Male","ball","3","M_cling.wav","None","735.913929646","237","203013.469586","195297.058067","196046.236913","196812.985242","197579.831577","198346.304436","199113.133457","199879.978556","203780.35395","204546.278651","205313.451469","206080.160224","206830.048305","207596.048752","193763.752167","194529.722935","206839.055648"
"Blocked","Male","ball","3","M_ball.wav","None","735.947938287","237","203013.469586","195297.058067","196046.236913","196812.985242","197579.831577","198346.304436","199113.133457","199879.978556","203780.35395","204546.278651","205313.451469","206080.160224","206830.048305","207596.048752","208362.612816","194529.722935","207605.037546"
"Blocked","Male","ball","3","M_cave.wav","space","327.441387693","237","203013.469586","195297.058067","196046.236913","196812.985242","197579.831577","198346.304436","199113.133457","199879.978556","203780.35395","204546.278651","205313.451469","206080.160224","206830.048305","207596.048752","208362.612816","209129.542627","208372.037538"
"Blocked","Male","ball","3","M_knife.wav","None","734.047164442","237","203013.469586","209895.968801","196046.236913","196812.985242","197579.831577","198346.304436","199113.133457","199879.978556","203780.35395","204546.278651","205313.451469","206080.160224","206830.048305","207596.048752","208362.612816","209129.542627","209138.853884"
"Blocked","Male","ball","3","M_tile.wav","None","734.34674961","237","203013.469586","209895.968801","210662.798132","196812.985242","197579.831577","198346.304436","199113.133457","199879.978556","203780.35395","204546.278651","205313.451469","206080.160224","206830.048305","207596.048752","208362.612816","209129.542627","209904.978309"
"Blocked","Male","ball","3","M_ball.wav","None","733.61649143","237","203013.469586","209895.968801","210662.798132","211429.564393","197579.831577","198346.304436","199113.133457","199879.978556","203780.35395","204546.278651","205313.451469","206080.160224","206830.048305","207596.048752","208362.612816","209129.542627","210672.223163"
"Blocked","Male","ball","3","M_lash.wav","space","436.118476326","237","203013.469586","209895.968801","210662.798132","211429.564393","212195.620182","198346.304436","199113.133457","199879.978556","203780.35395","204546.278651","205313.451469","206080.160224","206830.048305","207596.048752","208362.612816","209129.542627","211439.278188"
"Blocked","Male","ball","3","M_gnash.wav","None","734.214116004","237","203013.469586","209895.968801","210662.798132","211429.564393","212195.620182","212962.796401","199113.133457","199879.978556","203780.35395","204546.278651","205313.451469","206080.160224","206830.048305","207596.048752","208362.612816","209129.542627","212204.72244"
"Blocked","Male","ball","3","M_knife.wav","None","733.507972793","237","203013.469586","209895.968801","210662.798132","211429.564393","212195.620182","212962.796401","213729.409004","199879.978556","203780.35395","204546.278651","205313.451469","206080.160224","206830.048305","207596.048752","208362.612816","209129.542627","212971.960493"
"Blocked","Male","ball","3","M_reek.wav","None","733.372556744","237","203013.469586","209895.968801","210662.798132","211429.564393","212195.620182","212962.796401","213729.409004","214496.315318","203780.35395","204546.278651","205313.451469","206080.160224","206830.048305","207596.048752","208362.612816","209129.542627","213738.854131"
"Blocked","Male","done","21","M_jolt.wav","None","733.357098186","237","217629.726274","209895.968801","210662.798132","211429.564393","212195.620182","212962.796401","213729.409004","214496.315318","203780.35395","204546.278651","205313.451469","206080.160224","206830.048305","207596.048752","208362.612816","209129.542627","214505.423451"
"Blocked","Male","done","21","M_done.wav","None","721.970077371","237","217629.726274","209895.968801","210662.798132","211429.564393","212195.620182","212962.796401","213729.409004","214496.315318","218395.993535","204546.278651","205313.451469","206080.160224","206830.048305","207596.048752","208362.612816","209129.542627","217639.424302"
"Blocked","Male","done","21","M_dime.wav","None","720.864796429","237","217629.726274","209895.968801","210662.798132","211429.564393","212195.620182","212962.796401","213729.409004","214496.315318","218395.993535","219163.053815","205313.451469","206080.160224","206830.048305","207596.048752","208362.612816","209129.542627","218406.348548"
"Blocked","Male","done","21","M_done.wav","space","0.0346269225702","237","217629.726274","209895.968801","210662.798132","211429.564393","212195.620182","212962.796401","213729.409004","214496.315318","218395.993535","219163.053815","219929.147941","206080.160224","206830.048305","207596.048752","208362.612816","209129.542627","219172.832846"
"Blocked","Male","done","21","M_jaw.wav","space","568.846785463","237","217629.726274","209895.968801","210662.798132","211429.564393","212195.620182","212962.796401","213729.409004","214496.315318","218395.993535","219163.053815","219929.147941","220696.273457","206830.048305","207596.048752","208362.612816","209129.542627","219938.297503"
"Blocked","Male","done","21","M_romp.wav","None","702.636473579","237","217629.726274","209895.968801","210662.798132","211429.564393","212195.620182","212962.796401","213729.409004","214496.315318","218395.993535","219163.053815","219929.147941","220696.273457","221462.528351","207596.048752","208362.612816","209129.542627","220722.409407"
"Blocked","Male","done","21","M_jaw.wav","None","720.213067252","237","217629.726274","209895.968801","210662.798132","211429.564393","212195.620182","212962.796401","213729.409004","214496.315318","218395.993535","219163.053815","219929.147941","220696.273457","221462.528351","222229.511648","208362.612816","209129.542627","221471.286813"
"Blocked","Male","done","21","M_done.wav","None","719.544642838","237","217629.726274","209895.968801","210662.798132","211429.564393","212195.620182","212962.796401","213729.409004","214496.315318","218395.993535","219163.053815","219929.147941","220696.273457","221462.528351","222229.511648","222979.445486","209129.542627","222238.980891"
"Blocked","Male","done","21","M_park.wav","space","422.523985384","237","217629.726274","209895.968801","210662.798132","211429.564393","212195.620182","212962.796401","213729.409004","214496.315318","218395.993535","219163.053815","219929.147941","220696.273457","221462.528351","222229.511648","222979.445486","223745.521989","222988.528267"
"Blocked","Male","done","21","M_tile.wav","None","734.886250342","237","217629.726274","224512.141394","210662.798132","211429.564393","212195.620182","212962.796401","213729.409004","214496.315318","218395.993535","219163.053815","219929.147941","220696.273457","221462.528351","222229.511648","222979.445486","223745.521989","223755.011019"
"Blocked","Male","done","21","M_priest.wav","None","734.987967066","237","217629.726274","224512.141394","225278.613635","211429.564393","212195.620182","212962.796401","213729.409004","214496.315318","218395.993535","219163.053815","219929.147941","220696.273457","221462.528351","222229.511648","222979.445486","223745.521989","224521.44183"
"Blocked","Male","done","21","M_cave.wav","None","735.745432321","237","217629.726274","224512.141394","225278.613635","226045.473883","212195.620182","212962.796401","213729.409004","214496.315318","218395.993535","219163.053815","219929.147941","220696.273457","221462.528351","222229.511648","222979.445486","223745.521989","225287.370551"
"Blocked","Male","done","21","M_lash.wav","None","735.369791393","237","217629.726274","224512.141394","225278.613635","226045.473883","226812.12977","212962.796401","213729.409004","214496.315318","218395.993535","219163.053815","219929.147941","220696.273457","221462.528351","222229.511648","222979.445486","223745.521989","226054.284594"
"Blocked","Male","done","21","M_done.wav","None","734.364372212","237","217629.726274","224512.141394","225278.613635","226045.473883","226812.12977","227578.968994","213729.409004","214496.315318","218395.993535","219163.053815","219929.147941","220696.273457","221462.528351","222229.511648","222979.445486","223745.521989","226821.697946"
"Blocked","Male","done","21","M_cave.wav","space","590.504725347","237","217629.726274","224512.141394","225278.613635","226045.473883","226812.12977","227578.968994","228345.761534","214496.315318","218395.993535","219163.053815","219929.147941","220696.273457","221462.528351","222229.511648","222979.445486","223745.521989","227588.37733"
"Blocked","Male","done","21","M_tile.wav","None","733.53332479","237","217629.726274","224512.141394","225278.613635","226045.473883","226812.12977","227578.968994","228345.761534","229112.627347","218395.993535","219163.053815","219929.147941","220696.273457","221462.528351","222229.511648","222979.445486","223745.521989","228354.847715"
"Blocked","Male","ball","2","M_gnash.wav","None","732.727010851","237","232245.858366","224512.141394","225278.613635","226045.473883","226812.12977","227578.968994","228345.761534","229112.627347","218395.993535","219163.053815","219929.147941","220696.273457","221462.528351","222229.511648","222979.445486","223745.521989","229122.083604"
"Blocked","Male","ball","2","M_greet.wav","None","722.073030774","237","232245.858366","224512.141394","225278.613635","226045.473883","226812.12977","227578.968994","228345.761534","229112.627347","233012.23229","219163.053815","219929.147941","220696.273457","221462.528351","222229.511648","222979.445486","223745.521989","232255.772194"
"Blocked","Male","ball","2","M_greet.wav","None","723.947834456","237","232245.858366","224512.141394","225278.613635","226045.473883","226812.12977","227578.968994","228345.761534","229112.627347","233012.23229","233779.218679","219929.147941","220696.273457","221462.528351","222229.511648","222979.445486","223745.521989","233021.609709"
"Blocked","Male","ball","2","M_cling.wav","None","723.129771999","237","232245.858366","224512.141394","225278.613635","226045.473883","226812.12977","227578.968994","228345.761534","229112.627347","233012.23229","233779.218679","234545.983394","220696.273457","221462.528351","222229.511648","222979.445486","223745.521989","233788.784383"
"Blocked","Male","ball","2","M_ball.wav","None","722.573576146","237","232245.858366","224512.141394","225278.613635","226045.473883","226812.12977","227578.968994","228345.761534","229112.627347","233012.23229","233779.218679","234545.983394","235312.475421","221462.528351","222229.511648","222979.445486","223745.521989","234555.981316"
"Blocked","Male","ball","2","M_dime.wav","space","496.320883278","237","232245.858366","224512.141394","225278.613635","226045.473883","226812.12977","227578.968994","228345.761534","229112.627347","233012.23229","233779.218679","234545.983394","235312.475421","236079.071329","222229.511648","222979.445486","223745.521989","235322.365134"
"Blocked","Male","ball","2","M_ball.wav","None","721.346791717","237","232245.858366","224512.141394","225278.613635","226045.473883","226812.12977","227578.968994","228345.761534","229112.627347","233012.23229","233779.218679","234545.983394","235312.475421","236079.071329","236845.798943","222979.445486","223745.521989","236089.214252"
"Blocked","Male","ball","2","M_romp.wav","space","394.952251809","237","232245.858366","224512.141394","225278.613635","226045.473883","226812.12977","227578.968994","228345.761534","229112.627347","233012.23229","233779.218679","234545.983394","235312.475421","236079.071329","236845.798943","237611.853496","223745.521989","236855.662068"
"Blocked","Male","ball","2","M_greet.wav","None","721.872998052","237","232245.858366","224512.141394","225278.613635","226045.473883","226812.12977","227578.968994","228345.761534","229112.627347","233012.23229","233779.218679","234545.983394","235312.475421","236079.071329","236845.798943","237611.853496","238379.454514","237620.914325"
"Blocked","Male","ball","2","M_cad.wav","None","719.975625048","237","232245.858366","239145.708171","225278.613635","226045.473883","226812.12977","227578.968994","228345.761534","229112.627347","233012.23229","233779.218679","234545.983394","235312.475421","236079.071329","236845.798943","237611.853496","238379.454514","238389.173256"
"Blocked","Male","ball","2","M_ball.wav","None","719.881637488","237","232245.858366","239145.708171","239912.371787","226045.473883","226812.12977","227578.968994","228345.761534","229112.627347","233012.23229","233779.218679","234545.983394","235312.475421","236079.071329","236845.798943","237611.853496","238379.454514","239155.720625"
"Blocked","Male","ball","2","M_done.wav","space","360.392979113","237","232245.858366","239145.708171","239912.371787","240678.893186","226812.12977","227578.968994","228345.761534","229112.627347","233012.23229","233779.218679","234545.983394","235312.475421","236079.071329","236845.798943","237611.853496","238379.454514","239922.139688"
"Blocked","Male","ball","2","M_jaw.wav","None","718.596110819","237","232245.858366","239145.708171","239912.371787","240678.893186","241445.649862","227578.968994","228345.761534","229112.627347","233012.23229","233779.218679","234545.983394","235312.475421","236079.071329","236845.798943","237611.853496","238379.454514","240688.95356"
"Blocked","Male","ball","2","M_ball.wav","None","718.558701454","237","232245.858366","239145.708171","239912.371787","240678.893186","241445.649862","242212.233712","228345.761534","229112.627347","233012.23229","233779.218679","234545.983394","235312.475421","236079.071329","236845.798943","237611.853496","238379.454514","241455.625215"
"Blocked","Male","ball","2","M_lash.wav","space","404.459213139","237","232245.858366","239145.708171","239912.371787","240678.893186","241445.649862","242212.233712","242961.583529","229112.627347","233012.23229","233779.218679","234545.983394","235312.475421","236079.071329","236845.798943","237611.853496","238379.454514","242222.007487"
"Blocked","Male","ball","2","M_priest.wav","None","735.35495135","237","232245.858366","239145.708171","239912.371787","240678.893186","241445.649862","242212.233712","242961.583529","243728.35319","233012.23229","233779.218679","234545.983394","235312.475421","236079.071329","236845.798943","237611.853496","238379.454514","242970.885511"
"Blocked","Male","tile","14","M_gnash.wav","None","734.795972821","237","246861.778677","239145.708171","239912.371787","240678.893186","241445.649862","242212.233712","242961.583529","243728.35319","233012.23229","233779.218679","234545.983394","235312.475421","236079.071329","236845.798943","237611.853496","238379.454514","243737.938681"
"Blocked","Male","tile","14","M_tile.wav","None","722.373234341","237","246861.778677","239145.708171","239912.371787","240678.893186","241445.649862","242212.233712","242961.583529","243728.35319","247628.809586","233779.218679","234545.983394","235312.475421","236079.071329","236845.798943","237611.853496","238379.454514","246871.832559"
"Blocked","Male","tile","14","M_greet.wav","space","427.907553385","237","246861.778677","239145.708171","239912.371787","240678.893186","241445.649862","242212.233712","242961.583529","243728.35319","247628.809586","248395.440121","234545.983394","235312.475421","236079.071329","236845.798943","237611.853496","238379.454514","247638.395386"
"Blocked","Male","tile","14","M_jaw.wav","None","720.763079706","237","246861.778677","239145.708171","239912.371787","240678.893186","241445.649862","242212.233712","242961.583529","243728.35319","247628.809586","248395.440121","249161.456027","235312.475421","236079.071329","236845.798943","237611.853496","238379.454514","248405.415784"
"Blocked","Male","tile","14","M_tile.wav","None","722.76186035","237","246861.778677","239145.708171","239912.371787","240678.893186","241445.649862","242212.233712","242961.583529","243728.35319","247628.809586","248395.440121","249161.456027","249928.639358","236079.071329","236845.798943","237611.853496","238379.454514","249170.475119"
"Blocked","Male","tile","14","M_lash.wav","space","463.555102702","237","246861.778677","239145.708171","239912.371787","240678.893186","241445.649862","242212.233712","242961.583529","243728.35319","247628.809586","248395.440121","249161.456027","249928.639358","250695.374701","236845.798943","237611.853496","238379.454514","249938.68953"
"Blocked","Male","tile","14","M_tile.wav","None","720.384037937","237","246861.778677","239145.708171","239912.371787","240678.893186","241445.649862","242212.233712","242961.583529","243728.35319","247628.809586","248395.440121","249161.456027","249928.639358","250695.374701","251461.99998","237611.853496","238379.454514","250705.058507"
"Blocked","Male","tile","14","M_knife.wav","space","514.301252202","237","246861.778677","239145.708171","239912.371787","240678.893186","241445.649862","242212.233712","242961.583529","243728.35319","247628.809586","248395.440121","249161.456027","249928.639358","250695.374701","251461.99998","252228.177891","238379.454514","251471.843627"
"Blocked","Male","tile","14","M_ball.wav","None","719.139321591","237","246861.778677","239145.708171","239912.371787","240678.893186","241445.649862","242212.233712","242961.583529","243728.35319","247628.809586","248395.440121","249161.456027","249928.639358","250695.374701","251461.99998","252228.177891","252994.316847","252238.723971"
"Blocked","Male","tile","14","M_reek.wav","None","723.865286214","237","246861.778677","253761.902406","239912.371787","240678.893186","241445.649862","242212.233712","242961.583529","243728.35319","247628.809586","248395.440121","249161.456027","249928.639358","250695.374701","251461.99998","252228.177891","252994.316847","253002.842195"
"Blocked","Male","tile","14","M_ball.wav","None","721.740055247","237","246861.778677","253761.902406","254528.630639","240678.893186","241445.649862","242212.233712","242961.583529","243728.35319","247628.809586","248395.440121","249161.456027","249928.639358","250695.374701","251461.99998","252228.177891","252994.316847","253771.617439"
"Blocked","Male","tile","14","M_done.wav","None","720.276446897","237","246861.778677","253761.902406","254528.630639","255295.028679","241445.649862","242212.233712","242961.583529","243728.35319","247628.809586","248395.440121","249161.456027","249928.639358","250695.374701","251461.99998","252228.177891","252994.316847","254539.69365"
"Blocked","Male","tile","14","M_bluff.wav","None","721.467676922","237","246861.778677","253761.902406","254528.630639","255295.028679","256061.918607","242212.233712","242961.583529","243728.35319","247628.809586","248395.440121","249161.456027","249928.639358","250695.374701","251461.99998","252228.177891","252994.316847","255305.010524"
"Blocked","Male","tile","14","M_tile.wav","None","721.95338225","237","246861.778677","253761.902406","254528.630639","255295.028679","256061.918607","256828.459792","242961.583529","243728.35319","247628.809586","248395.440121","249161.456027","249928.639358","250695.374701","251461.99998","252228.177891","252994.316847","256071.139586"
"Blocked","Male","tile","14","M_cave.wav","space","425.829007057","237","246861.778677","253761.902406","254528.630639","255295.028679","256061.918607","256828.459792","257594.66491","243728.35319","247628.809586","248395.440121","249161.456027","249928.639358","250695.374701","251461.99998","252228.177891","252994.316847","256840.192464"
"Blocked","Male","tile","14","M_jaw.wav","None","722.177530057","237","246861.778677","253761.902406","254528.630639","255295.028679","256061.918607","256828.459792","257594.66491","258361.906673","247628.809586","248395.440121","249161.456027","249928.639358","250695.374701","251461.99998","252228.177891","252994.316847","257603.191495"
"Blocked","Male","tile","17","M_cad.wav","None","715.889023035","237","261494.94848","253761.902406","254528.630639","255295.028679","256061.918607","256828.459792","257594.66491","258361.906673","247628.809586","248395.440121","249161.456027","249928.639358","250695.374701","251461.99998","252228.177891","252994.316847","258376.203906"
"Blocked","Male","tile","17","M_cad.wav","None","721.419755719","237","261494.94848","253761.902406","254528.630639","255295.028679","256061.918607","256828.459792","257594.66491","258361.906673","262261.780284","248395.440121","249161.456027","249928.639358","250695.374701","251461.99998","252228.177891","252994.316847","261505.292054"
"Blocked","Male","tile","17","M_tile.wav","None","722.084160894","237","261494.94848","253761.902406","254528.630639","255295.028679","256061.918607","256828.459792","257594.66491","258361.906673","262261.780284","263028.375574","249161.456027","249928.639358","250695.374701","251461.99998","252228.177891","252994.316847","262271.507993"
"Blocked","Male","tile","17","M_reek.wav","space","387.799616088","237","261494.94848","253761.902406","254528.630639","255295.028679","256061.918607","256828.459792","257594.66491","258361.906673","262261.780284","263028.375574","263794.925416","249928.639358","250695.374701","251461.99998","252228.177891","252994.316847","263038.038666"
"Blocked","Male","tile","17","M_tile.wav","None","720.890766708","237","261494.94848","253761.902406","254528.630639","255295.028679","256061.918607","256828.459792","257594.66491","258361.906673","262261.780284","263028.375574","263794.925416","264561.725067","250695.374701","251461.99998","252228.177891","252994.316847","263804.709393"
"Blocked","Male","tile","17","M_romp.wav","space","454.012277769","237","261494.94848","253761.902406","254528.630639","255295.028679","256061.918607","256828.459792","257594.66491","258361.906673","262261.780284","263028.375574","263794.925416","264561.725067","265327.634619","251461.99998","252228.177891","252994.316847","264571.765036"
"Blocked","Male","tile","17","M_tile.wav","None","720.950745628","237","261494.94848","253761.902406","254528.630639","255295.028679","256061.918607","256828.459792","257594.66491","258361.906673","262261.780284","263028.375574","263794.925416","264561.725067","265327.634619","266094.915337","252228.177891","252994.316847","265336.571162"
"Blocked","Male","tile","17","M_cad.wav","space","472.878726432","237","261494.94848","253761.902406","254528.630639","255295.028679","256061.918607","256828.459792","257594.66491","258361.906673","262261.780284","263028.375574","263794.925416","264561.725067","265327.634619","266094.915337","266861.529795","252994.316847","266104.829784"
"Blocked","Male","tile","17","M_tile.wav","None","718.522837735","237","261494.94848","253761.902406","254528.630639","255295.028679","256061.918607","256828.459792","257594.66491","258361.906673","262261.780284","263028.375574","263794.925416","264561.725067","265327.634619","266094.915337","266861.529795","267628.668914","266871.371896"
"Blocked","Male","tile","17","M_done.wav","space","411.461592535","237","261494.94848","268377.863218","254528.630639","255295.028679","256061.918607","256828.459792","257594.66491","258361.906673","262261.780284","263028.375574","263794.925416","264561.725067","265327.634619","266094.915337","266861.529795","267628.668914","267638.231217"
"Blocked","Male","tile","17","M_dime.wav","None","735.168522107","237","261494.94848","268377.863218","269161.321539","255295.028679","256061.918607","256828.459792","257594.66491","258361.906673","262261.780284","263028.375574","263794.925416","264561.725067","265327.634619","266094.915337","266861.529795","267628.668914","268387.246203"
"Blocked","Male","tile","17","M_cad.wav","None","718.895696104","237","261494.94848","268377.863218","269161.321539","269928.113769","256061.918607","256828.459792","257594.66491","258361.906673","262261.780284","263028.375574","263794.925416","264561.725067","265327.634619","266094.915337","266861.529795","267628.668914","269171.172296"
"Blocked","Male","tile","17","M_done.wav","None","719.010707107","237","261494.94848","268377.863218","269161.321539","269928.113769","270694.722353","256828.459792","257594.66491","258361.906673","262261.780284","263028.375574","263794.925416","264561.725067","265327.634619","266094.915337","266861.529795","267628.668914","269937.619494"
"Blocked","Male","tile","17","M_priest.wav","None","718.971442664","237","261494.94848","268377.863218","269161.321539","269928.113769","270694.722353","271461.365874","257594.66491","258361.906673","262261.780284","263028.375574","263794.925416","264561.725067","265327.634619","266094.915337","266861.529795","267628.668914","270704.431202"
"Blocked","Male","tile","17","M_jaw.wav","None","719.26082531","237","261494.94848","268377.863218","269161.321539","269928.113769","270694.722353","271461.365874","272228.193968","258361.906673","262261.780284","263028.375574","263794.925416","264561.725067","265327.634619","266094.915337","266861.529795","267628.668914","271470.805436"
"Blocked","Male","tile","17","M_jolt.wav","None","719.312765752","237","261494.94848","268377.863218","269161.321539","269928.113769","270694.722353","271461.365874","272228.193968","272994.063328","262261.780284","263028.375574","263794.925416","264561.725067","265327.634619","266094.915337","266861.529795","267628.668914","272238.132839"
"Blocked","Male","cave","7","M_priest.wav","None","721.226524678","237","276127.977611","268377.863218","269161.321539","269928.113769","270694.722353","271461.365874","272228.193968","272994.063328","262261.780284","263028.375574","263794.925416","264561.725067","265327.634619","266094.915337","266861.529795","267628.668914","273002.964935"
"Blocked","Male","cave","7","M_bluff.wav","None","721.241983236","237","276127.977611","268377.863218","269161.321539","269928.113769","270694.722353","271461.365874","272228.193968","272994.063328","276894.494681","263028.375574","263794.925416","264561.725067","265327.634619","266094.915337","266861.529795","267628.668914","276137.89515"
"Blocked","Male","cave","7","M_knife.wav","None","720.768644707","237","276127.977611","268377.863218","269161.321539","269928.113769","270694.722353","271461.365874","272228.193968","272994.063328","276894.494681","277661.412125","263794.925416","264561.725067","265327.634619","266094.915337","266861.529795","267628.668914","276904.585663"
"Blocked","Male","cave","7","M_cave.wav","None","721.534148324","237","276127.977611","268377.863218","269161.321539","269928.113769","270694.722353","271461.365874","272228.193968","272994.063328","276894.494681","277661.412125","278427.878801","264561.725067","265327.634619","266094.915337","266861.529795","267628.668914","277670.570653"
"Blocked","Male","cave","7","M_cad.wav","space","356.622039108","237","276127.977611","268377.863218","269161.321539","269928.113769","270694.722353","271461.365874","272228.193968","272994.063328","276894.494681","277661.412125","278427.878801","279194.527267","265327.634619","266094.915337","266861.529795","267628.668914","278436.765259"
"Blocked","Male","cave","7","M_cave.wav","None","720.349101815","237","276127.977611","268377.863218","269161.321539","269928.113769","270694.722353","271461.365874","272228.193968","272994.063328","276894.494681","277661.412125","278427.878801","279194.527267","279961.351034","266094.915337","266861.529795","267628.668914","279204.519316"
"Blocked","Male","cave","7","M_done.wav","space","621.94478733","237","276127.977611","268377.863218","269161.321539","269928.113769","270694.722353","271461.365874","272228.193968","272994.063328","276894.494681","277661.412125","278427.878801","279194.527267","279961.351034","280727.189167","266861.529795","267628.668914","279971.398114"
"Blocked","Male","cave","7","M_done.wav","None","721.220032196","237","276127.977611","268377.863218","269161.321539","269928.113769","270694.722353","271461.365874","272228.193968","272994.063328","276894.494681","277661.412125","278427.878801","279194.527267","279961.351034","280727.189167","281494.35302","267628.668914","280736.232065"
"Blocked","Male","cave","7","M_gnash.wav","None","720.274901134","237","276127.977611","268377.863218","269161.321539","269928.113769","270694.722353","271461.365874","272228.193968","272994.063328","276894.494681","277661.412125","278427.878801","279194.527267","279961.351034","280727.189167","281494.35302","282260.270301","281503.781143"
"Blocked","Male","cave","7","M_cave.wav","None","721.793232486","237","276127.977611","283027.573589","269161.321539","269928.113769","270694.722353","271461.365874","272228.193968","272994.063328","276894.494681","277661.412125","278427.878801","279194.527267","279961.351034","280727.189167","281494.35302","282260.270301","282269.148102"
"Blocked","Male","cave","7","M_jolt.wav","space","522.867719992","237","276127.977611","283027.573589","283794.279252","269928.113769","270694.722353","271461.365874","272228.193968","272994.063328","276894.494681","277661.412125","278427.878801","279194.527267","279961.351034","280727.189167","281494.35302","282260.270301","283038.339797"
"Blocked","Male","cave","7","M_depth.wav","None","719.499194878","237","276127.977611","283027.573589","283794.279252","284560.171799","270694.722353","271461.365874","272228.193968","272994.063328","276894.494681","277661.412125","278427.878801","279194.527267","279961.351034","280727.189167","281494.35302","282260.270301","283803.807855"
"Blocked","Male","cave","7","M_dime.wav","None","721.334424918","237","276127.977611","283027.573589","283794.279252","284560.171799","285327.706037","271461.365874","272228.193968","272994.063328","276894.494681","277661.412125","278427.878801","279194.527267","279961.351034","280727.189167","281494.35302","282260.270301","284569.014665"
"Blocked","Male","cave","7","M_cave.wav","None","719.277520431","237","276127.977611","283027.573589","283794.279252","284560.171799","285327.706037","286094.286486","272228.193968","272994.063328","276894.494681","277661.412125","278427.878801","279194.527267","279961.351034","280727.189167","281494.35302","282260.270301","285337.775686"
"Blocked","Male","cave","7","M_jolt.wav","space","488.863097271","237","276127.977611","283027.573589","283794.279252","284560.171799","285327.706037","286094.286486","286860.35155","272994.063328","276894.494681","277661.412125","278427.878801","279194.527267","279961.351034","280727.189167","281494.35302","282260.270301","286104.270805"
"Blocked","Male","cave","7","M_romp.wav","None","720.03869561","237","276127.977611","283027.573589","283794.279252","284560.171799","285327.706037","286094.286486","286860.35155","287627.128632","276894.494681","277661.412125","278427.878801","279194.527267","279961.351034","280727.189167","281494.35302","282260.270301","286869.531101"
"Blocked","Male","cave","8","M_priest.wav","None","720.374144614","237","290743.908125","283027.573589","283794.279252","284560.171799","285327.706037","286094.286486","286860.35155","287627.128632","276894.494681","277661.412125","278427.878801","279194.527267","279961.351034","280727.189167","281494.35302","282260.270301","287636.141231"
"Blocked","Male","cave","8","M_ball.wav","None","722.665708628","237","290743.908125","283027.573589","283794.279252","284560.171799","285327.706037","286094.286486","286860.35155","287627.128632","291510.825878","277661.412125","278427.878801","279194.527267","279961.351034","280727.189167","281494.35302","282260.270301","290753.113955"
"Blocked","Male","cave","8","M_cave.wav","None","720.90251511","237","290743.908125","283027.573589","283794.279252","284560.171799","285327.706037","286094.286486","286860.35155","287627.128632","291510.825878","292277.726318","278427.878801","279194.527267","279961.351034","280727.189167","281494.35302","282260.270301","291521.081648"
"Blocked","Male","cave","8","M_park.wav","space","489.072095836","237","290743.908125","283027.573589","283794.279252","284560.171799","285327.706037","286094.286486","286860.35155","287627.128632","291510.825878","292277.726318","293044.129614","279194.527267","279961.351034","280727.189167","281494.35302","282260.270301","292287.890265"
"Blocked","Male","cave","8","M_jolt.wav","None","720.458238735","237","290743.908125","283027.573589","283794.279252","284560.171799","285327.706037","286094.286486","286860.35155","287627.128632","291510.825878","292277.726318","293044.129614","293810.67049","279961.351034","280727.189167","281494.35302","282260.270301","293053.92874"
"Blocked","Male","cave","8","M_lash.wav","None","721.092654392","237","290743.908125","283027.573589","283794.279252","284560.171799","285327.706037","286094.286486","286860.35155","287627.128632","291510.825878","292277.726318","293044.129614","293810.67049","294577.685941","280727.189167","281494.35302","282260.270301","293820.290916"
"Blocked","Male","cave","8","M_romp.wav","None","720.341681736","237","290743.908125","283027.573589","283794.279252","284560.171799","285327.706037","286094.286486","286860.35155","287627.128632","291510.825878","292277.726318","293044.129614","293810.67049","294577.685941","295344.045952","281494.35302","282260.270301","294587.812787"
"Blocked","Male","cave","8","M_cave.wav","None","720.981662511","237","290743.908125","283027.573589","283794.279252","284560.171799","285327.706037","286094.286486","286860.35155","287627.128632","291510.825878","292277.726318","293044.129614","293810.67049","294577.685941","295344.045952","296110.659792","282260.270301","295353.82622"
"Blocked","Male","cave","8","M_ball.wav","space","544.392407872","237","290743.908125","283027.573589","283794.279252","284560.171799","285327.706037","286094.286486","286860.35155","287627.128632","291510.825878","292277.726318","293044.129614","293810.67049","294577.685941","295344.045952","296110.659792","296877.465317","296120.427383"
"Blocked","Male","cave","8","M_depth.wav","None","719.685624121","237","290743.908125","297643.869231","283794.279252","284560.171799","285327.706037","286094.286486","286860.35155","287627.128632","291510.825878","292277.726318","293044.129614","293810.67049","294577.685941","295344.045952","296110.659792","296877.465317","296887.341118"
"Blocked","Male","cave","8","M_cave.wav","None","719.993556966","237","290743.908125","297643.869231","298410.599628","284560.171799","285327.706037","286094.286486","286860.35155","287627.128632","291510.825878","292277.726318","293044.129614","293810.67049","294577.685941","295344.045952","296110.659792","296877.465317","297653.834382"
"Blocked","Male","cave","8","M_cling.wav","space","484.608616098","237","290743.908125","297643.869231","298410.599628","299177.097838","285327.706037","286094.286486","286860.35155","287627.128632","291510.825878","292277.726318","293044.129614","293810.67049","294577.685941","295344.045952","296110.659792","296877.465317","298420.140289"
"Blocked","Male","cave","8","M_tile.wav","None","718.74265722","237","290743.908125","297643.869231","298410.599628","299177.097838","299943.773512","286094.286486","286860.35155","287627.128632","291510.825878","292277.726318","293044.129614","293810.67049","294577.685941","295344.045952","296110.659792","296877.465317","299187.222211"
"Blocked","Male","cave","8","M_cave.wav","None","719.547116081","237","290743.908125","297643.869231","298410.599628","299177.097838","299943.773512","300710.489996","286860.35155","287627.128632","291510.825878","292277.726318","293044.129614","293810.67049","294577.685941","295344.045952","296110.659792","296877.465317","299953.279855"
"Blocked","Male","cave","8","M_dime.wav","space","464.577216888","237","290743.908125","297643.869231","298410.599628","299177.097838","299943.773512","300710.489996","301477.059316","287627.128632","291510.825878","292277.726318","293044.129614","293810.67049","294577.685941","295344.045952","296110.659792","296877.465317","300720.134229"
"Blocked","Male","cave","8","M_greet.wav","None","718.740802258","237","290743.908125","297643.869231","298410.599628","299177.097838","299943.773512","300710.489996","301477.059316","302243.759414","291510.825878","292277.726318","293044.129614","293810.67049","294577.685941","295344.045952","296110.659792","296877.465317","301486.608943"
"Blocked","Male","cave","10","M_greet.wav","None","718.570449855","237","305360.195729","297643.869231","298410.599628","299177.097838","299943.773512","300710.489996","301477.059316","302243.759414","291510.825878","292277.726318","293044.129614","293810.67049","294577.685941","295344.045952","296110.659792","296877.465317","302253.599042"
"Blocked","Male","cave","10","M_jolt.wav","None","721.650087042","237","305360.195729","297643.869231","298410.599628","299177.097838","299943.773512","300710.489996","301477.059316","302243.759414","306127.068344","292277.726318","293044.129614","293810.67049","294577.685941","295344.045952","296110.659792","296877.465317","305369.921891"
"Blocked","Male","cave","10","M_jaw.wav","None","720.882110065","237","305360.195729","297643.869231","298410.599628","299177.097838","299943.773512","300710.489996","301477.059316","302243.759414","306127.068344","306893.336223","293044.129614","293810.67049","294577.685941","295344.045952","296110.659792","296877.465317","306137.056064"
"Blocked","Male","cave","10","M_done.wav","None","721.468295204","237","305360.195729","297643.869231","298410.599628","299177.097838","299943.773512","300710.489996","301477.059316","302243.759414","306127.068344","306893.336223","307660.428967","293810.67049","294577.685941","295344.045952","296110.659792","296877.465317","306903.008899"
"Blocked","Male","cave","10","M_cave.wav","None","720.835734624","237","305360.195729","297643.869231","298410.599628","299177.097838","299943.773512","300710.489996","301477.059316","302243.759414","306127.068344","306893.336223","307660.428967","308426.964586","294577.685941","295344.045952","296110.659792","296877.465317","307670.600024"
"Blocked","Male","cave","10","M_knife.wav","space","507.454385166","237","305360.195729","297643.869231","298410.599628","299177.097838","299943.773512","300710.489996","301477.059316","302243.759414","306127.068344","306893.336223","307660.428967","308426.964586","309193.526486","295344.045952","296110.659792","296877.465317","308437.030526"
"Blocked","Male","cave","10","M_cave.wav","None","720.480189659","237","305360.195729","297643.869231","298410.599628","299177.097838","299943.773512","300710.489996","301477.059316","302243.759414","306127.068344","306893.336223","307660.428967","308426.964586","309193.526486","309960.140326","296110.659792","296877.465317","309203.336124"
"Blocked","Male","cave","10","M_cling.wav","None","721.801270847","237","305360.195729","297643.869231","298410.599628","299177.097838","299943.773512","300710.489996","301477.059316","302243.759414","306127.068344","306893.336223","307660.428967","308426.964586","309193.526486","309960.140326","310726.899166","296877.465317","309970.143195"
"Blocked","Male","cave","10","M_cave.wav","space","0.0401920406148","237","305360.195729","297643.869231","298410.599628","299177.097838","299943.773512","300710.489996","301477.059316","302243.759414","306127.068344","306893.336223","307660.428967","308426.964586","309193.526486","309960.140326","310726.899166","311494.076313","310736.629657"
"Blocked","Male","cave","10","M_knife.wav","space","608.383995946","237","305360.195729","312260.128083","298410.599628","299177.097838","299943.773512","300710.489996","301477.059316","302243.759414","306127.068344","306893.336223","307660.428967","308426.964586","309193.526486","309960.140326","310726.899166","311494.076313","311503.989832"
"Blocked","Male","cave","10","M_cling.wav","None","719.890294247","237","305360.195729","312260.128083","313026.230556","299177.097838","299943.773512","300710.489996","301477.059316","302243.759414","306127.068344","306893.336223","307660.428967","308426.964586","309193.526486","309960.140326","310726.899166","311494.076313","312270.203297"
"Blocked","Male","cave","10","M_cave.wav","None","721.648231847","237","305360.195729","312260.128083","313026.230556","313793.269195","299943.773512","300710.489996","301477.059316","302243.759414","306127.068344","306893.336223","307660.428967","308426.964586","309193.526486","309960.140326","310726.899166","311494.076313","313035.450608"
"Blocked","Male","cave","10","M_cad.wav","space","525.112908683","237","305360.195729","312260.128083","313026.230556","313793.269195","314560.140573","300710.489996","301477.059316","302243.759414","306127.068344","306893.336223","307660.428967","308426.964586","309193.526486","309960.140326","310726.899166","311494.076313","313803.163546"
"Blocked","Male","cave","10","M_done.wav","None","719.948109007","237","305360.195729","312260.128083","313026.230556","313793.269195","314560.140573","315326.656097","301477.059316","302243.759414","306127.068344","306893.336223","307660.428967","308426.964586","309193.526486","309960.140326","310726.899166","311494.076313","314569.88003"
"Blocked","Male","cave","10","M_tile.wav","None","720.519454102","237","305360.195729","312260.128083","313026.230556","313793.269195","314560.140573","315326.656097","316093.188007","302243.759414","306127.068344","306893.336223","307660.428967","308426.964586","309193.526486","309960.140326","310726.899166","311494.076313","315336.818807"
"Blocked","Male","cave","10","M_knife.wav","None","720.470914501","237","305360.195729","312260.128083","313026.230556","313793.269195","314560.140573","315326.656097","316093.188007","316860.073298","306127.068344","306893.336223","307660.428967","308426.964586","309193.526486","309960.140326","310726.899166","311494.076313","316103.481186"
"Blocked","Male","cave","12","M_greet.wav","None","721.263315878","237","319993.17663","312260.128083","313026.230556","313793.269195","314560.140573","315326.656097","316093.188007","316860.073298","306127.068344","306893.336223","307660.428967","308426.964586","309193.526486","309960.140326","310726.899166","311494.076313","316869.673628"
"Blocked","Male","cave","12","M_cling.wav","None","721.586088883","237","319993.17663","312260.128083","313026.230556","313793.269195","314560.140573","315326.656097","316093.188007","316860.073298","320759.877346","306893.336223","307660.428967","308426.964586","309193.526486","309960.140326","310726.899166","311494.076313","320003.294819"
"Blocked","Male","cave","12","M_cave.wav","None","721.508487361","237","319993.17663","312260.128083","313026.230556","313793.269195","314560.140573","315326.656097","316093.188007","316860.073298","320759.877346","321526.667104","307660.428967","308426.964586","309193.526486","309960.140326","310726.899166","311494.076313","320769.856409"
"Blocked","Male","cave","12","M_cling.wav","space","407.937369659","237","319993.17663","312260.128083","313026.230556","313793.269195","314560.140573","315326.656097","316093.188007","316860.073298","320759.877346","321526.667104","322293.120794","308426.964586","309193.526486","309960.140326","310726.899166","311494.076313","321536.202818"
"Blocked","Male","cave","12","M_reek.wav","None","721.89835005","237","319993.17663","312260.128083","313026.230556","313793.269195","314560.140573","315326.656097","316093.188007","316860.073298","320759.877346","321526.667104","322293.120794","323059.674655","309193.526486","309960.140326","310726.899166","311494.076313","322303.059046"
"Blocked","Male","cave","12","M_depth.wav","None","723.214175319","237","319993.17663","312260.128083","313026.230556","313793.269195","314560.140573","315326.656097","316093.188007","316860.073298","320759.877346","321526.667104","322293.120794","323059.674655","323826.55067","309960.140326","310726.899166","311494.076313","323069.003534"
"Blocked","Male","cave","12","M_greet.wav","None","722.778555588","237","319993.17663","312260.128083","313026.230556","313793.269195","314560.140573","315326.656097","316093.188007","316860.073298","320759.877346","321526.667104","322293.120794","323059.674655","323826.55067","324592.654999","310726.899166","311494.076313","323836.53468"
"Blocked","Male","cave","12","M_cave.wav","None","724.559371709","237","319993.17663","312260.128083","313026.230556","313793.269195","314560.140573","315326.656097","316093.188007","316860.073298","320759.877346","321526.667104","322293.120794","323059.674655","323826.55067","324592.654999","325359.449703","311494.076313","324602.036437"
"Blocked","Male","cave","12","M_knife.wav","space","422.958059236","237","319993.17663","312260.128083","313026.230556","313793.269195","314560.140573","315326.656097","316093.188007","316860.073298","320759.877346","321526.667104","322293.120794","323059.674655","323826.55067","324592.654999","325359.449703","326126.412904","325369.01417"
"Blocked","Male","cave","12","M_cave.wav","None","723.992973217","237","319993.17663","326893.300669","313026.230556","313793.269195","314560.140573","315326.656097","316093.188007","316860.073298","320759.877346","321526.667104","322293.120794","323059.674655","323826.55067","324592.654999","325359.449703","326126.412904","326135.154671"
"Blocked","Male","cave","12","M_priest.wav","space","592.555446434","237","319993.17663","326893.300669","327659.413654","313793.269195","314560.140573","315326.656097","316093.188007","316860.073298","320759.877346","321526.667104","322293.120794","323059.674655","323826.55067","324592.654999","325359.449703","326126.412904","326903.373719"
"Blocked","Male","cave","12","M_cave.wav","None","723.028055276","237","319993.17663","326893.300669","327659.413654","328426.396642","314560.140573","315326.656097","316093.188007","316860.073298","320759.877346","321526.667104","322293.120794","323059.674655","323826.55067","324592.654999","325359.449703","326126.412904","327669.051703"
"Blocked","Male","cave","12","M_reek.wav","space","339.864435373","237","319993.17663","326893.300669","327659.413654","328426.396642","329193.012028","315326.656097","316093.188007","316860.073298","320759.877346","321526.667104","322293.120794","323059.674655","323826.55067","324592.654999","325359.449703","326126.412904","328436.041493"
"Blocked","Male","cave","12","M_gnash.wav","None","722.710228991","237","319993.17663","326893.300669","327659.413654","328426.396642","329193.012028","329959.754482","316093.188007","316860.073298","320759.877346","321526.667104","322293.120794","323059.674655","323826.55067","324592.654999","325359.449703","326126.412904","329202.343999"
"Blocked","Male","cave","12","M_romp.wav","None","722.189587657","237","319993.17663","326893.300669","327659.413654","328426.396642","329193.012028","329959.754482","330725.782137","316860.073298","320759.877346","321526.667104","322293.120794","323059.674655","323826.55067","324592.654999","325359.449703","326126.412904","329970.057864"
"Blocked","Male","cave","12","M_done.wav","None","724.066246301","237","319993.17663","326893.300669","327659.413654","328426.396642","329193.012028","329959.754482","330725.782137","331493.114177","320759.877346","321526.667104","322293.120794","323059.674655","323826.55067","324592.654999","325359.449703","326126.412904","330734.891506"
"Blocked","Male","cave","9","M_gnash.wav","None","723.195006722","237","334626.216582","326893.300669","327659.413654","328426.396642","329193.012028","329959.754482","330725.782137","331493.114177","320759.877346","321526.667104","322293.120794","323059.674655","323826.55067","324592.654999","325359.449703","326126.412904","331502.953805"
"Blocked","Male","cave","9","M_romp.wav","None","721.431194921","237","334626.216582","326893.300669","327659.413654","328426.396642","329193.012028","329959.754482","330725.782137","331493.114177","335392.740144","321526.667104","322293.120794","323059.674655","323826.55067","324592.654999","325359.449703","326126.412904","334635.882147"
"Blocked","Male","cave","9","M_cave.wav","None","721.178912558","237","334626.216582","326893.300669","327659.413654","328426.396642","329193.012028","329959.754482","330725.782137","331493.114177","335392.740144","336159.439933","322293.120794","323059.674655","323826.55067","324592.654999","325359.449703","326126.412904","335402.763419"
"Blocked","Male","cave","9","M_cling.wav","space","646.704933606","237","334626.216582","326893.300669","327659.413654","328426.396642","329193.012028","329959.754482","330725.782137","331493.114177","335392.740144","336159.439933","336925.613207","323059.674655","323826.55067","324592.654999","325359.449703","326126.412904","336168.906703"
"Blocked","Male","cave","9","M_cave.wav","None","721.77839221","237","334626.216582","326893.300669","327659.413654","328426.396642","329193.012028","329959.754482","330725.782137","331493.114177","335392.740144","336159.439933","336925.613207","337692.649372","323826.55067","324592.654999","325359.449703","326126.412904","336934.495646"
"Blocked","Male","cave","9","M_dime.wav","space","529.173231334","237","334626.216582","326893.300669","327659.413654","328426.396642","329193.012028","329959.754482","330725.782137","331493.114177","335392.740144","336159.439933","336925.613207","337692.649372","338459.470974","324592.654999","325359.449703","326126.412904","337702.395012"
"Blocked","Male","cave","9","M_cave.wav","None","720.007160329","237","334626.216582","326893.300669","327659.413654","328426.396642","329193.012028","329959.754482","330725.782137","331493.114177","335392.740144","336159.439933","336925.613207","337692.649372","338459.470974","339226.108929","325359.449703","326126.412904","338469.2667"
"Blocked","Male","cave","9","M_depth.wav","space","363.55330958","237","334626.216582","326893.300669","327659.413654","328426.396642","329193.012028","329959.754482","330725.782137","331493.114177","335392.740144","336159.439933","336925.613207","337692.649372","338459.470974","339226.108929","339992.11185","326126.412904","339236.011009"
"Blocked","Male","cave","9","M_dime.wav","None","720.253568492","237","334626.216582","326893.300669","327659.413654","328426.396642","329193.012028","329959.754482","330725.782137","331493.114177","335392.740144","336159.439933","336925.613207","337692.649372","338459.470974","339226.108929","339992.11185","340758.702502","340001.922107"
"Blocked","Male","cave","9","M_ball.wav","None","721.557336044","237","334626.216582","341526.05062","327659.413654","328426.396642","329193.012028","329959.754482","330725.782137","331493.114177","335392.740144","336159.439933","336925.613207","337692.649372","338459.470974","339226.108929","339992.11185","340758.702502","340767.618022"
"Blocked","Male","cave","9","M_park.wav","None","720.376927056","237","334626.216582","341526.05062","342292.364565","328426.396642","329193.012028","329959.754482","330725.782137","331493.114177","335392.740144","336159.439933","336925.613207","337692.649372","338459.470974","339226.108929","339992.11185","340758.702502","341535.901687"
"Blocked","Male","cave","9","M_priest.wav","None","721.826622728","237","334626.216582","341526.05062","342292.364565","343059.327457","329193.012028","329959.754482","330725.782137","331493.114177","335392.740144","336159.439933","336925.613207","337692.649372","338459.470974","339226.108929","339992.11185","340758.702502","342301.821132"
"Blocked","Male","cave","9","M_jaw.wav","None","722.175984178","237","334626.216582","341526.05062","342292.364565","343059.327457","343825.366551","329959.754482","330725.782137","331493.114177","335392.740144","336159.439933","336925.613207","337692.649372","338459.470974","339226.108929","339992.11185","340758.702502","343068.706423"
"Blocked","Male","cave","9","M_tile.wav","None","723.265806562","237","334626.216582","341526.05062","342292.364565","343059.327457","343825.366551","344592.031095","330725.782137","331493.114177","335392.740144","336159.439933","336925.613207","337692.649372","338459.470974","339226.108929","339992.11185","340758.702502","343834.544247"
"Blocked","Male","cave","9","M_cave.wav","None","723.793558893","237","334626.216582","341526.05062","342292.364565","343059.327457","343825.366551","344592.031095","345359.196802","331493.114177","335392.740144","336159.439933","336925.613207","337692.649372","338459.470974","339226.108929","339992.11185","340758.702502","344600.851391"
"Blocked","Male","cave","9","M_ball.wav","space","502.148418687","237","334626.216582","341526.05062","342292.364565","343059.327457","343825.366551","344592.031095","345359.196802","346126.419397","335392.740144","336159.439933","336925.613207","337692.649372","338459.470974","339226.108929","339992.11185","340758.702502","345369.214203"
"Blocked","Male","tile","18","M_knife.wav","None","721.418828238","237","349259.062066","341526.05062","342292.364565","343059.327457","343825.366551","344592.031095","345359.196802","346126.419397","335392.740144","336159.439933","336925.613207","337692.649372","338459.470974","339226.108929","339992.11185","340758.702502","346136.036732"
"Blocked","Male","tile","18","M_dime.wav","None","720.761533827","237","349259.062066","341526.05062","342292.364565","343059.327457","343825.366551","344592.031095","345359.196802","346126.419397","350025.645608","336159.439933","336925.613207","337692.649372","338459.470974","339226.108929","339992.11185","340758.702502","349269.391728"
"Blocked","Male","tile","18","M_tile.wav","None","721.105948673","237","349259.062066","341526.05062","342292.364565","343059.327457","343825.366551","344592.031095","345359.196802","346126.419397","350025.645608","350792.297166","336925.613207","337692.649372","338459.470974","339226.108929","339992.11185","340758.702502","350035.661462"
"Blocked","Male","tile","18","M_bluff.wav","space","404.865152668","237","349259.062066","341526.05062","342292.364565","343059.327457","343825.366551","344592.031095","345359.196802","346126.419397","350025.645608","350792.297166","351559.06961","337692.649372","338459.470974","339226.108929","339992.11185","340758.702502","350802.371763"
"Blocked","Male","tile","18","M_gnash.wav","None","721.13130067","237","349259.062066","341526.05062","342292.364565","343059.327457","343825.366551","344592.031095","345359.196802","346126.419397","350025.645608","350792.297166","351559.06961","352324.949791","338459.470974","339226.108929","339992.11185","340758.702502","351568.732393"
"Blocked","Male","tile","18","M_tile.wav","None","723.197480198","237","349259.062066","341526.05062","342292.364565","343059.327457","343825.366551","344592.031095","345359.196802","346126.419397","350025.645608","350792.297166","351559.06961","352324.949791","353092.407045","339226.108929","339992.11185","340758.702502","352334.148819"
"Blocked","Male","tile","18","M_cave.wav","space","408.828086918","237","349259.062066","341526.05062","342292.364565","343059.327457","343825.366551","344592.031095","345359.196802","346126.419397","350025.645608","350792.297166","351559.06961","352324.949791","353092.407045","353858.967708","339992.11185","340758.702502","353102.309434"
"Blocked","Male","tile","18","M_bluff.wav","None","721.176439314","237","349259.062066","341526.05062","342292.364565","343059.327457","343825.366551","344592.031095","345359.196802","346126.419397","350025.645608","350792.297166","351559.06961","352324.949791","353092.407045","353858.967708","354625.581857","340758.702502","353869.134746"
"Blocked","Male","tile","18","M_tile.wav","None","722.277082619","237","349259.062066","341526.05062","342292.364565","343059.327457","343825.366551","344592.031095","345359.196802","346126.419397","350025.645608","350792.297166","351559.06961","352324.949791","353092.407045","353858.967708","354625.581857","355392.700571","354635.319768"
"Blocked","Male","tile","18","M_cling.wav","space","610.436571995","237","349259.062066","356158.999367","342292.364565","343059.327457","343825.366551","344592.031095","345359.196802","346126.419397","350025.645608","350792.297166","351559.06961","352324.949791","353092.407045","353858.967708","354625.581857","355392.700571","355396.629805"
"Blocked","Male","tile","18","M_greet.wav","None","721.408625599","237","349259.062066","356158.999367","356925.508707","343059.327457","343825.366551","344592.031095","345359.196802","346126.419397","350025.645608","350792.297166","351559.06961","352324.949791","353092.407045","353858.967708","354625.581857","355392.700571","356169.121266"
"Blocked","Male","tile","18","M_jolt.wav","None","722.861412913","237","349259.062066","356158.999367","356925.508707","357691.765147","343825.366551","344592.031095","345359.196802","346126.419397","350025.645608","350792.297166","351559.06961","352324.949791","353092.407045","353858.967708","354625.581857","355392.700571","356935.225595"
"Blocked","Male","tile","18","M_tile.wav","None","725.565718254","237","349259.062066","356158.999367","356925.508707","357691.765147","358458.368166","344592.031095","345359.196802","346126.419397","350025.645608","350792.297166","351559.06961","352324.949791","353092.407045","353858.967708","354625.581857","355392.700571","357701.144731"
"Blocked","Male","tile","18","M_done.wav","space","443.577808095","237","349259.062066","356158.999367","356925.508707","357691.765147","358458.368166","359225.034256","345359.196802","346126.419397","350025.645608","350792.297166","351559.06961","352324.949791","353092.407045","353858.967708","354625.581857","355392.700571","358467.411683"
"Blocked","Male","tile","18","M_lash.wav","None","725.040748599","237","349259.062066","356158.999367","356925.508707","357691.765147","358458.368166","359225.034256","359991.200728","346126.419397","350025.645608","350792.297166","351559.06961","352324.949791","353092.407045","353858.967708","354625.581857","355392.700571","359234.482784"
"Blocked","Male","tile","18","M_dime.wav","None","726.585977478","237","349259.062066","356158.999367","356925.508707","357691.765147","358458.368166","359225.034256","359991.200728","360758.356542","350025.645608","350792.297166","351559.06961","352324.949791","353092.407045","353858.967708","354625.581857","355392.700571","360000.012367"
"Blocked","Male","done","19","M_dime.wav","None","726.166434586","237","363891.878798","356158.999367","356925.508707","357691.765147","358458.368166","359225.034256","359991.200728","360758.356542","350025.645608","350792.297166","351559.06961","352324.949791","353092.407045","353858.967708","354625.581857","355392.700571","360767.556189"
"Blocked","Male","done","19","M_park.wav","None","721.518999082","237","363891.878798","356158.999367","356925.508707","357691.765147","358458.368166","359225.034256","359991.200728","360758.356542","364658.323832","350792.297166","351559.06961","352324.949791","353092.407045","353858.967708","354625.581857","355392.700571","363901.96236"
"Blocked","Male","done","19","M_tile.wav","None","722.610367229","237","363891.878798","356158.999367","356925.508707","357691.765147","358458.368166","359225.034256","359991.200728","360758.356542","364658.323832","365425.270956","351559.06961","352324.949791","353092.407045","353858.967708","354625.581857","355392.700571","364667.879332"
"Blocked","Male","done","19","M_done.wav","None","722.103638458","237","363891.878798","356158.999367","356925.508707","357691.765147","358458.368166","359225.034256","359991.200728","360758.356542","364658.323832","365425.270956","366191.713825","352324.949791","353092.407045","353858.967708","354625.581857","355392.700571","365435.196842"
"Blocked","Male","done","19","M_romp.wav","space","429.379818379","237","363891.878798","356158.999367","356925.508707","357691.765147","358458.368166","359225.034256","359991.200728","360758.356542","364658.323832","365425.270956","366191.713825","366958.556141","353092.407045","353858.967708","354625.581857","355392.700571","366201.354966"
"Blocked","Male","done","19","M_cad.wav","None","722.129917936","237","363891.878798","356158.999367","356925.508707","357691.765147","358458.368166","359225.034256","359991.200728","360758.356542","364658.323832","365425.270956","366191.713825","366958.556141","367725.080322","353858.967708","354625.581857","355392.700571","366968.310748"
"Blocked","Male","done","19","M_done.wav","None","722.410025424","237","363891.878798","356158.999367","356925.508707","357691.765147","358458.368166","359225.034256","359991.200728","360758.356542","364658.323832","365425.270956","366191.713825","366958.556141","367725.080322","368492.041978","354625.581857","355392.700571","367735.398544"
"Blocked","Male","done","19","M_cave.wav","None","723.311872804","237","363891.878798","356158.999367","356925.508707","357691.765147","358458.368166","359225.034256","359991.200728","360758.356542","364658.323832","365425.270956","366191.713825","366958.556141","367725.080322","368492.041978","369258.109206","355392.700571","368501.781125"
"Blocked","Male","done","19","M_gnash.wav","space","387.420265237","237","363891.878798","356158.999367","356925.508707","357691.765147","358458.368166","359225.034256","359991.200728","360758.356542","364658.323832","365425.270956","366191.713825","366958.556141","367725.080322","368492.041978","369258.109206","370025.241832","369267.195388"
"Blocked","Male","done","19","M_done.wav","None","723.513451288","237","363891.878798","370791.311225","356925.508707","357691.765147","358458.368166","359225.034256","359991.200728","360758.356542","364658.323832","365425.270956","366191.713825","366958.556141","367725.080322","368492.041978","369258.109206","370025.241832","370034.733644"
"Blocked","Male","done","19","M_jolt.wav","space","549.743512995","237","363891.878798","370791.311225","371558.331004","357691.765147","358458.368166","359225.034256","359991.200728","360758.356542","364658.323832","365425.270956","366191.713825","366958.556141","367725.080322","368492.041978","369258.109206","370025.241832","370800.858378"
"Blocked","Male","done","19","M_done.wav","None","723.880126374","237","363891.878798","370791.311225","371558.331004","372324.712349","358458.368166","359225.034256","359991.200728","360758.356542","364658.323832","365425.270956","366191.713825","366958.556141","367725.080322","368492.041978","369258.109206","370025.241832","371567.536834"
"Blocked","Male","done","19","M_knife.wav","space","503.769703326","237","363891.878798","370791.311225","371558.331004","372324.712349","373091.703685","359225.034256","359991.200728","360758.356542","364658.323832","365425.270956","366191.713825","366958.556141","367725.080322","368492.041978","369258.109206","370025.241832","372334.807659"
"Blocked","Male","done","19","M_lash.wav","None","722.851828672","237","363891.878798","370791.311225","371558.331004","372324.712349","373091.703685","373858.359881","359991.200728","360758.356542","364658.323832","365425.270956","366191.713825","366958.556141","367725.080322","368492.041978","369258.109206","370025.241832","373101.482406"
"Blocked","Male","done","19","M_park.wav","space","482.314887922","237","363891.878798","370791.311225","371558.331004","372324.712349","373091.703685","373858.359881","374625.04483","360758.356542","364658.323832","365425.270956","366191.713825","366958.556141","367725.080322","368492.041978","369258.109206","370025.241832","373868.178794"
"Blocked","Male","done","19","M_priest.wav","None","722.188041778","237","363891.878798","370791.311225","371558.331004","372324.712349","373091.703685","373858.359881","374625.04483","375391.4911","364658.323832","365425.270956","366191.713825","366958.556141","367725.080322","368492.041978","369258.109206","370025.241832","374634.621663"
"Blocked","Male","done","20","M_depth.wav","None","722.864504671","237","378524.8631","370791.311225","371558.331004","372324.712349","373091.703685","373858.359881","374625.04483","375391.4911","364658.323832","365425.270956","366191.713825","366958.556141","367725.080322","368492.041978","369258.109206","370025.241832","375401.596304"
"Blocked","Male","done","20","M_dime.wav","None","721.781174769","237","378524.8631","370791.311225","371558.331004","372324.712349","373091.703685","373858.359881","374625.04483","375391.4911","379291.403048","365425.270956","366191.713825","366958.556141","367725.080322","368492.041978","369258.109206","370025.241832","378534.379027"
"Blocked","Male","done","20","M_reek.wav","None","722.146613174","237","378524.8631","370791.311225","371558.331004","372324.712349","373091.703685","373858.359881","374625.04483","375391.4911","379291.403048","380057.46904","366191.713825","366958.556141","367725.080322","368492.041978","369258.109206","370025.241832","379300.898879"
"Blocked","Male","done","20","M_dime.wav","None","723.305998603","237","378524.8631","370791.311225","371558.331004","372324.712349","373091.703685","373858.359881","374625.04483","375391.4911","379291.403048","380057.46904","380824.874353","366958.556141","367725.080322","368492.041978","369258.109206","370025.241832","380066.543473"
"Blocked","Male","done","20","M_knife.wav","None","722.292231978","237","378524.8631","370791.311225","371558.331004","372324.712349","373091.703685","373858.359881","374625.04483","375391.4911","379291.403048","380057.46904","380824.874353","381590.549246","367725.080322","368492.041978","369258.109206","370025.241832","380834.709962"
"Blocked","Male","done","20","M_done.wav","None","724.941196037","237","378524.8631","370791.311225","371558.331004","372324.712349","373091.703685","373858.359881","374625.04483","375391.4911","379291.403048","380057.46904","380824.874353","381590.549246","382357.723919","368492.041978","369258.109206","370025.241832","381599.642538"
"Blocked","Male","done","20","M_depth.wav","space","406.884956756","237","378524.8631","370791.311225","371558.331004","372324.712349","373091.703685","373858.359881","374625.04483","375391.4911","379291.403048","380057.46904","380824.874353","381590.549246","382357.723919","383124.630542","369258.109206","370025.241832","382367.378354"
"Blocked","Male","done","20","M_cling.wav","None","723.242309759","237","378524.8631","370791.311225","371558.331004","372324.712349","373091.703685","373858.359881","374625.04483","375391.4911","379291.403048","380057.46904","380824.874353","381590.549246","382357.723919","383124.630542","383891.150086","370025.241832","383134.231182"
"Blocked","Male","done","20","M_jaw.wav","None","723.818292492","237","378524.8631","370791.311225","371558.331004","372324.712349","373091.703685","373858.359881","374625.04483","375391.4911","379291.403048","380057.46904","380824.874353","381590.549246","382357.723919","383124.630542","383891.150086","384657.796079","383900.813796"
"Blocked","Male","done","20","M_jaw.wav","None","725.125151803","237","378524.8631","385424.3351","371558.331004","372324.712349","373091.703685","373858.359881","374625.04483","375391.4911","379291.403048","380057.46904","380824.874353","381590.549246","382357.723919","383124.630542","383891.150086","384657.796079","384666.973466"
"Blocked","Male","done","20","M_done.wav","None","725.387945771","237","378524.8631","385424.3351","386190.85217","372324.712349","373091.703685","373858.359881","374625.04483","375391.4911","379291.403048","380057.46904","380824.874353","381590.549246","382357.723919","383124.630542","383891.150086","384657.796079","385434.049823"
"Blocked","Male","done","20","M_cave.wav","space","478.429555078","237","378524.8631","385424.3351","386190.85217","386957.315754","373091.703685","373858.359881","374625.04483","375391.4911","379291.403048","380057.46904","380824.874353","381590.549246","382357.723919","383124.630542","383891.150086","384657.796079","386199.714513"
"Blocked","Male","done","20","M_done.wav","None","729.196295375","237","378524.8631","385424.3351","386190.85217","386957.315754","387723.916608","373858.359881","374625.04483","375391.4911","379291.403048","380057.46904","380824.874353","381590.549246","382357.723919","383124.630542","383891.150086","384657.796079","386963.174515"
"Blocked","Male","done","20","M_knife.wav","None","726.710572839","237","378524.8631","385424.3351","386190.85217","386957.315754","387723.916608","388490.879191","374625.04483","375391.4911","379291.403048","380057.46904","380824.874353","381590.549246","382357.723919","383124.630542","383891.150086","384657.796079","387733.097396"
"Blocked","Male","done","20","M_done.wav","space","226.049568504","237","378524.8631","385424.3351","386190.85217","386957.315754","387723.916608","388490.879191","389256.851195","375391.4911","379291.403048","380057.46904","380824.874353","381590.549246","382357.723919","383124.630542","383891.150086","384657.796079","388499.998763"
"Blocked","Male","done","20","M_cave.wav","space","636.600038502","237","378524.8631","385424.3351","386190.85217","386957.315754","387723.916608","388490.879191","389256.851195","390024.45716","379291.403048","380057.46904","380824.874353","381590.549246","382357.723919","383124.630542","383891.150086","384657.796079","389265.455382"
"Blocked","Male","cave","11","M_ball.wav","None","724.687676993","237","393157.680759","385424.3351","386190.85217","386957.315754","387723.916608","388490.879191","389256.851195","390024.45716","379291.403048","380057.46904","380824.874353","381590.549246","382357.723919","383124.630542","383891.150086","384657.796079","390034.061201"
"Blocked","Male","cave","11","M_cling.wav","None","722.267498379","237","393157.680759","385424.3351","386190.85217","386957.315754","387723.916608","388490.879191","389256.851195","390024.45716","393924.438363","380057.46904","380824.874353","381590.549246","382357.723919","383124.630542","383891.150086","384657.796079","393167.497817"
"Blocked","Male","cave","11","M_lash.wav","None","722.142284736","237","393157.680759","385424.3351","386190.85217","386957.315754","387723.916608","388490.879191","389256.851195","390024.45716","393924.438363","394691.063642","380824.874353","381590.549246","382357.723919","383124.630542","383891.150086","384657.796079","393934.448961"
"Blocked","Male","cave","11","M_cave.wav","None","722.978897276","237","393157.680759","385424.3351","386190.85217","386957.315754","387723.916608","388490.879191","389256.851195","390024.45716","393924.438363","394691.063642","395457.35038","381590.549246","382357.723919","383124.630542","383891.150086","384657.796079","394701.051053"
"Blocked","Male","cave","11","M_romp.wav","space","515.20711882","237","393157.680759","385424.3351","386190.85217","386957.315754","387723.916608","388490.879191","389256.851195","390024.45716","393924.438363","394691.063642","395457.35038","396224.317601","382357.723919","383124.630542","383891.150086","384657.796079","395466.674623"
"Blocked","Male","cave","11","M_cave.wav","None","722.739291028","237","393157.680759","385424.3351","386190.85217","386957.315754","387723.916608","388490.879191","389256.851195","390024.45716","393924.438363","394691.063642","395457.35038","396224.317601","396990.068858","383124.630542","383891.150086","384657.796079","396234.37272"
"Blocked","Male","cave","11","M_lash.wav","space","446.838618373","237","393157.680759","385424.3351","386190.85217","386957.315754","387723.916608","388490.879191","389256.851195","390024.45716","393924.438363","394691.063642","395457.35038","396224.317601","396990.068858","397757.742222","383891.150086","384657.796079","396998.956862"
