"Condition","Talker","Target","Trial","current_stimulus","response_response","response_time_response","subject_nr","time_Audio1","time_Audio10","time_Audio11","time_Audio12","time_Audio13","time_Audio14","time_Audio15","time_Audio16","time_Audio2","time_Audio3","time_Audio4","time_Audio5","time_Audio6","time_Audio7","time_Audio8","time_Audio9","time_response","title"
"Blocked","Male","done","23","M_cling.wav","NA","NA","113","335998.485988","NA","NA","NA","NA","NA","NA","NA","NA","NA","NA","NA","NA","NA","NA","NA","NA","Mapping"
"Blocked","Male","done","23","M_cave.wav","None","719.305242877","113","335998.485988","NA","NA","NA","NA","NA","NA","NA","336765.772141","NA","NA","NA","NA","NA","NA","NA","336012.169291","Mapping"
"Blocked","Male","done","23","M_done.wav","None","722.187955864","113","335998.485988","NA","NA","NA","NA","NA","NA","NA","336765.772141","337533.261729","NA","NA","NA","NA","NA","NA","336775.293998","Mapping"
"Blocked","Male","done","23","M_depth.wav","space","464.246350341","113","335998.485988","NA","NA","NA","NA","NA","NA","NA","336765.772141","337533.261729","338300.202229","NA","NA","NA","NA","NA","337542.350747","Mapping"
"Blocked","Male","done","23","M_ball.wav","None","719.820940401","113","335998.485988","NA","NA","NA","NA","NA","NA","NA","336765.772141","337533.261729","338300.202229","339050.478396","NA","NA","NA","NA","338309.972969","Mapping"
"Blocked","Male","done","23","M_done.wav","space","482.75488941","113","335998.485988","NA","NA","NA","NA","NA","NA","NA","336765.772141","337533.261729","338300.202229","339050.478396","339817.996737","NA","NA","NA","339059.820625","Mapping"
"Blocked","Male","done","23","M_priest.wav","None","734.264186118","113","335998.485988","NA","NA","NA","NA","NA","NA","NA","336765.772141","337533.261729","338300.202229","339050.478396","339817.996737","340585.187047","NA","NA","339827.57239","Mapping"
"Blocked","Male","done","23","M_done.wav","None","733.845568262","113","335998.485988","NA","NA","NA","NA","NA","NA","NA","336765.772141","337533.261729","338300.202229","339050.478396","339817.996737","340585.187047","341352.090755","NA","340594.406226","Mapping"
"Blocked","Male","done","23","M_lash.wav","space","589.224515017","113","335998.485988","NA","NA","NA","NA","NA","NA","NA","336765.772141","337533.261729","338300.202229","339050.478396","339817.996737","340585.187047","341352.090755","342119.597038","341361.304678","Mapping"
"Blocked","Male","done","23","M_done.wav","None","732.242824044","113","335998.485988","342886.915036","NA","NA","NA","NA","NA","NA","336765.772141","337533.261729","338300.202229","339050.478396","339817.996737","340585.187047","341352.090755","342119.597038","342129.013469","Mapping"
"Blocked","Male","done","23","M_greet.wav","space","502.058616839","113","335998.485988","342886.915036","343654.002083","NA","NA","NA","NA","NA","336765.772141","337533.261729","338300.202229","339050.478396","339817.996737","340585.187047","341352.090755","342119.597038","342896.409377","Mapping"
"Blocked","Male","done","23","M_knife.wav","None","731.332624331","113","335998.485988","342886.915036","343654.002083","344421.095004","NA","NA","NA","NA","336765.772141","337533.261729","338300.202229","339050.478396","339817.996737","340585.187047","341352.090755","342119.597038","343662.979799","Mapping"
"Blocked","Male","done","23","M_reek.wav","None","730.230428744","113","335998.485988","342886.915036","343654.002083","344421.095004","345188.017572","NA","NA","NA","336765.772141","337533.261729","338300.202229","339050.478396","339817.996737","340585.187047","341352.090755","342119.597038","344430.484536","Mapping"
"Blocked","Male","done","23","M_ball.wav","None","733.824853785","113","335998.485988","342886.915036","343654.002083","344421.095004","345188.017572","345955.632993","NA","NA","336765.772141","337533.261729","338300.202229","339050.478396","339817.996737","340585.187047","341352.090755","342119.597038","345196.930362","Mapping"
"Blocked","Male","done","23","M_jaw.wav","None","732.511803508","113","335998.485988","342886.915036","343654.002083","344421.095004","345188.017572","345955.632993","346723.01468","NA","336765.772141","337533.261729","338300.202229","339050.478396","339817.996737","340585.187047","341352.090755","342119.597038","345965.007993","Mapping"
"Blocked","Male","done","23","M_romp.wav","None","730.865157209","113","335998.485988","342886.915036","343654.002083","344421.095004","345188.017572","345955.632993","346723.01468","347490.213337","336765.772141","337533.261729","338300.202229","339050.478396","339817.996737","340585.187047","341352.090755","342119.597038","346732.988236","Mapping"
"Blocked","Male","cave","11","M_park.wav","None","729.975980241","113","350859.46279","342886.915036","343654.002083","344421.095004","345188.017572","345955.632993","346723.01468","347490.213337","336765.772141","337533.261729","338300.202229","339050.478396","339817.996737","340585.187047","341352.090755","342119.597038","347500.258931","Mapping"
"Blocked","Male","cave","11","M_greet.wav","None","723.009423818","113","350859.46279","342886.915036","343654.002083","344421.095004","345188.017572","345955.632993","346723.01468","347490.213337","351626.873539","337533.261729","338300.202229","339050.478396","339817.996737","340585.187047","341352.090755","342119.597038","350868.671766","Mapping"
"Blocked","Male","cave","11","M_cave.wav","None","722.166004591","113","350859.46279","342886.915036","343654.002083","344421.095004","345188.017572","345955.632993","346723.01468","347490.213337","351626.873539","352394.439492","338300.202229","339050.478396","339817.996737","340585.187047","341352.090755","342119.597038","351635.955446","Mapping"
"Blocked","Male","cave","11","M_lash.wav","space","482.575570233","113","350859.46279","342886.915036","343654.002083","344421.095004","345188.017572","345955.632993","346723.01468","347490.213337","351626.873539","352394.439492","353161.36206","339050.478396","339817.996737","340585.187047","341352.090755","342119.597038","352403.691443","Mapping"
"Blocked","Male","cave","11","M_cave.wav","None","720.285624731","113","350859.46279","342886.915036","343654.002083","344421.095004","345188.017572","345955.632993","346723.01468","347490.213337","351626.873539","352394.439492","353161.36206","353911.804252","339817.996737","340585.187047","341352.090755","342119.597038","353170.430054","Mapping"
"Blocked","Male","cave","11","M_romp.wav","space","613.019264769","113","350859.46279","342886.915036","343654.002083","344421.095004","345188.017572","345955.632993","346723.01468","347490.213337","351626.873539","352394.439492","353161.36206","353911.804252","354678.79793","340585.187047","341352.090755","342119.597038","353921.205533","Mapping"
"Blocked","Male","cave","11","M_priest.wav","None","735.536735505","113","350859.46279","342886.915036","343654.002083","344421.095004","345188.017572","345955.632993","346723.01468","347490.213337","351626.873539","352394.439492","353161.36206","353911.804252","354678.79793","355446.274841","341352.090755","342119.597038","354688.059155","Mapping"
"Blocked","Male","cave","11","M_cling.wav","None","734.210081398","113","350859.46279","342886.915036","343654.002083","344421.095004","345188.017572","345955.632993","346723.01468","347490.213337","351626.873539","352394.439492","353161.36206","353911.804252","354678.79793","355446.274841","356213.187516","342119.597038","355455.88945","Mapping"
"Blocked","Male","cave","11","M_ball.wav","None","734.470712487","113","350859.46279","342886.915036","343654.002083","344421.095004","345188.017572","345955.632993","346723.01468","347490.213337","351626.873539","352394.439492","353161.36206","353911.804252","354678.79793","355446.274841","356213.187516","356980.399468","356222.190584","Mapping"
"Blocked","Male","cave","11","M_cave.wav","None","734.089504462","113","350859.46279","357747.747455","343654.002083","344421.095004","345188.017572","345955.632993","346723.01468","347490.213337","351626.873539","352394.439492","353161.36206","353911.804252","354678.79793","355446.274841","356213.187516","356980.399468","356989.153035","Mapping"
"Blocked","Male","cave","11","M_knife.wav","space","441.057885066","113","350859.46279","357747.747455","358514.926944","344421.095004","345188.017572","345955.632993","346723.01468","347490.213337","351626.873539","352394.439492","353161.36206","353911.804252","354678.79793","355446.274841","356213.187516","356980.399468","357757.116891","Mapping"
"Blocked","Male","cave","11","M_bluff.wav","None","732.398028485","113","350859.46279","357747.747455","358514.926944","359282.192383","345188.017572","345955.632993","346723.01468","347490.213337","351626.873539","352394.439492","353161.36206","353911.804252","354678.79793","355446.274841","356213.187516","356980.399468","358524.057081","Mapping"
"Blocked","Male","cave","11","M_cave.wav","None","731.278209947","113","350859.46279","357747.747455","358514.926944","359282.192383","360049.589529","345955.632993","346723.01468","347490.213337","351626.873539","352394.439492","353161.36206","353911.804252","354678.79793","355446.274841","356213.187516","356980.399468","359291.702182","Mapping"
"Blocked","Male","cave","11","M_priest.wav","space","587.236233987","113","350859.46279","357747.747455","358514.926944","359282.192383","360049.589529","360816.510551","346723.01468","347490.213337","351626.873539","352394.439492","353161.36206","353911.804252","354678.79793","355446.274841","356213.187516","356980.399468","360058.838079","Mapping"
"Blocked","Male","cave","11","M_bluff.wav","None","729.79789786","113","350859.46279","357747.747455","358514.926944","359282.192383","360049.589529","360816.510551","361584.119788","347490.213337","351626.873539","352394.439492","353161.36206","353911.804252","354678.79793","355446.274841","356213.187516","356980.399468","360825.805476","Mapping"
"Blocked","Male","cave","11","M_knife.wav","None","729.073818773","113","350859.46279","357747.747455","358514.926944","359282.192383","360049.589529","360816.510551","361584.119788","362351.192613","351626.873539","352394.439492","353161.36206","353911.804252","354678.79793","355446.274841","356213.187516","356980.399468","361593.028558","Mapping"
"Blocked","Male","done","21","M_bluff.wav","None","727.909788955","113","365486.638699","357747.747455","358514.926944","359282.192383","360049.589529","360816.510551","361584.119788","362351.192613","351626.873539","352394.439492","353161.36206","353911.804252","354678.79793","355446.274841","356213.187516","356980.399468","362360.732711","Mapping"
"Blocked","Male","done","21","M_cave.wav","None","722.533300053","113","365486.638699","357747.747455","358514.926944","359282.192383","360049.589529","360816.510551","361584.119788","362351.192613","366254.044502","352394.439492","353161.36206","353911.804252","354678.79793","355446.274841","356213.187516","356980.399468","365495.753378","Mapping"
"Blocked","Male","done","21","M_jolt.wav","None","719.798989128","113","365486.638699","357747.747455","358514.926944","359282.192383","360049.589529","360816.510551","361584.119788","362351.192613","366254.044502","367021.90324","353161.36206","353911.804252","354678.79793","355446.274841","356213.187516","356980.399468","366265.023174","Mapping"
"Blocked","Male","done","21","M_cave.wav","None","720.374975353","113","365486.638699","357747.747455","358514.926944","359282.192383","360049.589529","360816.510551","361584.119788","362351.192613","366254.044502","367021.90324","367772.491361","353911.804252","354678.79793","355446.274841","356213.187516","356980.399468","367030.980818","Mapping"
"Blocked","Male","done","21","M_done.wav","None","736.3677877","113","365486.638699","357747.747455","358514.926944","359282.192383","360049.589529","360816.510551","361584.119788","362351.192613","366254.044502","367021.90324","367772.491361","368538.988818","354678.79793","355446.274841","356213.187516","356980.399468","367781.571103","Mapping"
"Blocked","Male","done","21","M_depth.wav","space","497.902118601","113","365486.638699","357747.747455","358514.926944","359282.192383","360049.589529","360816.510551","361584.119788","362351.192613","366254.044502","367021.90324","367772.491361","368538.988818","369306.476242","355446.274841","356213.187516","356980.399468","368547.945201","Mapping"
"Blocked","Male","done","21","M_done.wav","None","734.238216188","113","365486.638699","357747.747455","358514.926944","359282.192383","360049.589529","360816.510551","361584.119788","362351.192613","366254.044502","367021.90324","367772.491361","368538.988818","369306.476242","370073.984689","356213.187516","356980.399468","369315.651827","Mapping"
"Blocked","Male","done","21","M_reek.wav","space","474.349758588","113","365486.638699","357747.747455","358514.926944","359282.192383","360049.589529","360816.510551","361584.119788","362351.192613","366254.044502","367021.90324","367772.491361","368538.988818","369306.476242","370073.984689","370840.583245","356980.399468","370083.460171","Mapping"
"Blocked","Male","done","21","M_done.wav","None","733.189197723","113","365486.638699","357747.747455","358514.926944","359282.192383","360049.589529","360816.510551","361584.119788","362351.192613","366254.044502","367021.90324","367772.491361","368538.988818","369306.476242","370073.984689","370840.583245","371608.271321","370849.894248","Mapping"
"Blocked","Male","done","21","M_lash.wav","space","492.354967166","113","365486.638699","372375.064037","358514.926944","359282.192383","360049.589529","360816.510551","361584.119788","362351.192613","366254.044502","367021.90324","367772.491361","368538.988818","369306.476242","370073.984689","370840.583245","371608.271321","371617.448762","Mapping"
"Blocked","Male","done","21","M_done.wav","None","731.580888852","113","365486.638699","372375.064037","373142.438613","359282.192383","360049.589529","360816.510551","361584.119788","362351.192613","366254.044502","367021.90324","367772.491361","368538.988818","369306.476242","370073.984689","370840.583245","371608.271321","372384.342267","Mapping"
"Blocked","Male","done","21","M_greet.wav","space","453.933942132","113","365486.638699","372375.064037","373142.438613","373909.782891","360049.589529","360816.510551","361584.119788","362351.192613","366254.044502","367021.90324","367772.491361","368538.988818","369306.476242","370073.984689","370840.583245","371608.271321","373151.857207","Mapping"
"Blocked","Male","done","21","M_tile.wav","None","729.896832723","113","365486.638699","372375.064037","373142.438613","373909.782891","374676.889415","360816.510551","361584.119788","362351.192613","366254.044502","367021.90324","367772.491361","368538.988818","369306.476242","370073.984689","370840.583245","371608.271321","373918.954147","Mapping"
"Blocked","Male","done","21","M_knife.wav","None","729.894668795","113","365486.638699","372375.064037","373142.438613","373909.782891","374676.889415","375444.096111","361584.119788","362351.192613","366254.044502","367021.90324","367772.491361","368538.988818","369306.476242","370073.984689","370840.583245","371608.271321","374685.795712","Mapping"
"Blocked","Male","done","21","M_park.wav","None","729.02898863","113","365486.638699","372375.064037","373142.438613","373909.782891","374676.889415","375444.096111","376211.276837","362351.192613","366254.044502","367021.90324","367772.491361","368538.988818","369306.476242","370073.984689","370840.583245","371608.271321","375453.355792","Mapping"
"Blocked","Male","done","21","M_cad.wav","None","728.518856224","113","365486.638699","372375.064037","373142.438613","373909.782891","374676.889415","375444.096111","376211.276837","376978.051312","366254.044502","367021.90324","367772.491361","368538.988818","369306.476242","370073.984689","370840.583245","371608.271321","376220.46819","Mapping"
"Blocked","Male","ball","6","M_jolt.wav","None","730.652756523","113","380114.273727","372375.064037","373142.438613","373909.782891","374676.889415","375444.096111","376211.276837","376978.051312","366254.044502","367021.90324","367772.491361","368538.988818","369306.476242","370073.984689","370840.583245","371608.271321","376986.945861","Mapping"
"Blocked","Male","ball","6","M_ball.wav","None","723.420003429","113","380114.273727","372375.064037","373142.438613","373909.782891","374676.889415","375444.096111","376211.276837","376978.051312","380881.48537","367021.90324","367772.491361","368538.988818","369306.476242","370073.984689","370840.583245","371608.271321","380123.275558","Mapping"
"Blocked","Male","ball","6","M_priest.wav","space","402.750016656","113","380114.273727","372375.064037","373142.438613","373909.782891","374676.889415","375444.096111","376211.276837","376978.051312","380881.48537","381648.839232","367772.491361","368538.988818","369306.476242","370073.984689","370840.583245","371608.271321","380890.806885","Mapping"
"Blocked","Male","ball","6","M_cave.wav","None","720.941995736","113","380114.273727","372375.064037","373142.438613","373909.782891","374676.889415","375444.096111","376211.276837","376978.051312","380881.48537","381648.839232","382416.185673","368538.988818","369306.476242","370073.984689","370840.583245","371608.271321","381658.376857","Mapping"
"Blocked","Male","ball","6","M_cad.wav","None","720.500189811","113","380114.273727","372375.064037","373142.438613","373909.782891","374676.889415","375444.096111","376211.276837","376978.051312","380881.48537","381648.839232","382416.185673","383166.729274","369306.476242","370073.984689","370840.583245","371608.271321","382425.255522","Mapping"
"Blocked","Male","ball","6","M_bluff.wav","None","736.271635629","113","380114.273727","372375.064037","373142.438613","373909.782891","374676.889415","375444.096111","376211.276837","376978.051312","380881.48537","381648.839232","382416.185673","383166.729274","383933.691725","370073.984689","370840.583245","371608.271321","383176.157143","Mapping"
"Blocked","Male","ball","6","M_dime.wav","None","735.962154809","113","380114.273727","372375.064037","373142.438613","373909.782891","374676.889415","375444.096111","376211.276837","376978.051312","380881.48537","381648.839232","382416.185673","383166.729274","383933.691725","384700.922845","370840.583245","371608.271321","383943.145873","Mapping"
"Blocked","Male","ball","6","M_ball.wav","None","735.384623054","113","380114.273727","372375.064037","373142.438613","373909.782891","374676.889415","375444.096111","376211.276837","376978.051312","380881.48537","381648.839232","382416.185673","383166.729274","383933.691725","384700.922845","385468.255065","371608.271321","384710.497261","Mapping"
"Blocked","Male","ball","6","M_cave.wav","space","400.248202961","113","380114.273727","372375.064037","373142.438613","373909.782891","374676.889415","375444.096111","376211.276837","376978.051312","380881.48537","381648.839232","382416.185673","383166.729274","383933.691725","384700.922845","385468.255065","386235.593159","385477.248239","Mapping"
"Blocked","Male","ball","6","M_ball.wav","None","734.780192841","113","380114.273727","387002.584363","373142.438613","373909.782891","374676.889415","375444.096111","376211.276837","376978.051312","380881.48537","381648.839232","382416.185673","383166.729274","383933.691725","384700.922845","385468.255065","386235.593159","386244.469776","Mapping"
"Blocked","Male","ball","6","M_done.wav","None","735.040515661","113","380114.273727","387002.584363","387769.872989","373909.782891","374676.889415","375444.096111","376211.276837","376978.051312","380881.48537","381648.839232","382416.185673","383166.729274","383933.691725","384700.922845","385468.255065","386235.593159","387011.443975","Mapping"
"Blocked","Male","ball","6","M_ball.wav","None","733.53546951","113","380114.273727","387002.584363","387769.872989","388537.108747","374676.889415","375444.096111","376211.276837","376978.051312","380881.48537","381648.839232","382416.185673","383166.729274","383933.691725","384700.922845","385468.255065","386235.593159","387779.632908","Mapping"
"Blocked","Male","ball","6","M_romp.wav","space","523.288481869","113","380114.273727","387002.584363","387769.872989","388537.108747","389304.453643","375444.096111","376211.276837","376978.051312","380881.48537","381648.839232","382416.185673","383166.729274","383933.691725","384700.922845","385468.255065","386235.593159","388546.073478","Mapping"
"Blocked","Male","ball","6","M_cling.wav","None","732.63547197","113","380114.273727","387002.584363","387769.872989","388537.108747","389304.453643","390071.367863","376211.276837","376978.051312","380881.48537","381648.839232","382416.185673","383166.729274","383933.691725","384700.922845","385468.255065","386235.593159","389313.331188","Mapping"
"Blocked","Male","ball","6","M_reek.wav","None","732.72698652","113","380114.273727","387002.584363","387769.872989","388537.108747","389304.453643","390071.367863","390838.722344","376978.051312","380881.48537","381648.839232","382416.185673","383166.729274","383933.691725","384700.922845","385468.255065","386235.593159","390080.163477","Mapping"
"Blocked","Male","ball","6","M_jolt.wav","None","731.448563281","113","380114.273727","387002.584363","387769.872989","388537.108747","389304.453643","390071.367863","390838.722344","391606.123199","380881.48537","381648.839232","382416.185673","383166.729274","383933.691725","384700.922845","385468.255065","386235.593159","390848.159797","Mapping"
"Blocked","Male","tile","15","M_cad.wav","None","730.781989638","113","394741.66451","387002.584363","387769.872989","388537.108747","389304.453643","390071.367863","390838.722344","391606.123199","380881.48537","381648.839232","382416.185673","383166.729274","383933.691725","384700.922845","385468.255065","386235.593159","391615.629907","Mapping"
"Blocked","Male","tile","15","M_tile.wav","None","722.137251403","113","394741.66451","387002.584363","387769.872989","388537.108747","389304.453643","390071.367863","390838.722344","391606.123199","395508.987455","381648.839232","382416.185673","383166.729274","383933.691725","384700.922845","385468.255065","386235.593159","394750.870085","Mapping"
"Blocked","Male","tile","15","M_depth.wav","space","422.930554021","113","394741.66451","387002.584363","387769.872989","388537.108747","389304.453643","390071.367863","390838.722344","391606.123199","395508.987455","396276.324621","382416.185673","383166.729274","383933.691725","384700.922845","385468.255065","386235.593159","395518.292892","Mapping"
"Blocked","Male","tile","15","M_greet.wav","None","720.130729955","113","394741.66451","387002.584363","387769.872989","388537.108747","389304.453643","390071.367863","390838.722344","391606.123199","395508.987455","396276.324621","397027.229025","383166.729274","383933.691725","384700.922845","385468.255065","386235.593159","396285.960563","Mapping"
"Blocked","Male","tile","15","M_greet.wav","None","736.402106006","113","394741.66451","387002.584363","387769.872989","388537.108747","389304.453643","390071.367863","390838.722344","391606.123199","395508.987455","396276.324621","397027.229025","397794.188074","383933.691725","384700.922845","385468.255065","386235.593159","397036.514366","Mapping"
"Blocked","Male","tile","15","M_lash.wav","None","736.107774545","113","394741.66451","387002.584363","387769.872989","388537.108747","389304.453643","390071.367863","390838.722344","391606.123199","395508.987455","396276.324621","397027.229025","397794.188074","398561.233383","384700.922845","385468.255065","386235.593159","397803.383447","Mapping"
"Blocked","Male","tile","15","M_tile.wav","None","736.16497172","113","394741.66451","387002.584363","387769.872989","388537.108747","389304.453643","390071.367863","390838.722344","391606.123199","395508.987455","396276.324621","397027.229025","397794.188074","398561.233383","399328.330324","385468.255065","386235.593159","398570.161631","Mapping"
"Blocked","Male","tile","15","M_cave.wav","space","483.445577789","113","394741.66451","387002.584363","387769.872989","388537.108747","389304.453643","390071.367863","390838.722344","391606.123199","395508.987455","396276.324621","397027.229025","397794.188074","398561.233383","399328.330324","400095.688823","386235.593159","399337.691103","Mapping"
"Blocked","Male","tile","15","M_priest.wav","None","735.169130843","113","394741.66451","387002.584363","387769.872989","388537.108747","389304.453643","390071.367863","390838.722344","391606.123199","395508.987455","396276.324621","397027.229025","397794.188074","398561.233383","399328.330324","400095.688823","400862.568107","400104.649225","Mapping"
"Blocked","Male","tile","15","M_depth.wav","None","735.173459165","113","394741.66451","401630.006372","387769.872989","388537.108747","389304.453643","390071.367863","390838.722344","391606.123199","395508.987455","396276.324621","397027.229025","397794.188074","398561.233383","399328.330324","400095.688823","400862.568107","400871.838917","Mapping"
"Blocked","Male","tile","15","M_tile.wav","None","734.969096724","113","394741.66451","401630.006372","402397.560576","388537.108747","389304.453643","390071.367863","390838.722344","391606.123199","395508.987455","396276.324621","397027.229025","397794.188074","398561.233383","399328.330324","400095.688823","400862.568107","401638.892264","Mapping"
"Blocked","Male","tile","15","M_cad.wav","space","414.41226704","113","394741.66451","401630.006372","402397.560576","403164.440788","389304.453643","390071.367863","390838.722344","391606.123199","395508.987455","396276.324621","397027.229025","397794.188074","398561.233383","399328.330324","400095.688823","400862.568107","402406.675565","Mapping"
"Blocked","Male","tile","15","M_cave.wav","None","733.877103776","113","394741.66451","401630.006372","402397.560576","403164.440788","403931.714884","390071.367863","390838.722344","391606.123199","395508.987455","396276.324621","397027.229025","397794.188074","398561.233383","399328.330324","400095.688823","400862.568107","403173.577108","Mapping"
"Blocked","Male","tile","15","M_priest.wav","None","733.498060144","113","394741.66451","401630.006372","402397.560576","403164.440788","403931.714884","404699.114502","390838.722344","391606.123199","395508.987455","396276.324621","397027.229025","397794.188074","398561.233383","399328.330324","400095.688823","400862.568107","403941.035161","Mapping"
"Blocked","Male","tile","15","M_tile.wav","None","733.375628013","113","394741.66451","401630.006372","402397.560576","403164.440788","403931.714884","404699.114502","405466.375922","391606.123199","395508.987455","396276.324621","397027.229025","397794.188074","398561.233383","399328.330324","400095.688823","400862.568107","404708.033476","Mapping"
"Blocked","Male","tile","15","M_reek.wav","space","449.079643469","113","394741.66451","401630.006372","402397.560576","403164.440788","403931.714884","404699.114502","405466.375922","406233.614154","395508.987455","396276.324621","397027.229025","397794.188074","398561.233383","399328.330324","400095.688823","400862.568107","405475.939827","Mapping"
"Blocked","Male","ball","4","M_cad.wav","None","731.999197509","113","409369.265529","401630.006372","402397.560576","403164.440788","403931.714884","404699.114502","405466.375922","406233.614154","395508.987455","396276.324621","397027.229025","397794.188074","398561.233383","399328.330324","400095.688823","400862.568107","406242.62526","Mapping"
"Blocked","Male","ball","4","M_dime.wav","None","720.562641975","113","409369.265529","401630.006372","402397.560576","403164.440788","403931.714884","404699.114502","405466.375922","406233.614154","410136.477482","396276.324621","397027.229025","397794.188074","398561.233383","399328.330324","400095.688823","400862.568107","409379.960074","Mapping"
"Blocked","Male","ball","4","M_ball.wav","None","721.831790172","113","409369.265529","401630.006372","402397.560576","403164.440788","403931.714884","404699.114502","405466.375922","406233.614154","410136.477482","410904.019629","397027.229025","397794.188074","398561.233383","399328.330324","400095.688823","400862.568107","410145.440666","Mapping"
"Blocked","Male","ball","4","M_depth.wav","space","467.313329224","113","409369.265529","401630.006372","402397.560576","403164.440788","403931.714884","404699.114502","405466.375922","406233.614154","410136.477482","410904.019629","411671.031238","397794.188074","398561.233383","399328.330324","400095.688823","400862.568107","410913.552616","Mapping"
"Blocked","Male","ball","4","M_ball.wav","None","719.705000985","113","409369.265529","401630.006372","402397.560576","403164.440788","403931.714884","404699.114502","405466.375922","406233.614154","410136.477482","410904.019629","411671.031238","412438.272252","398561.233383","399328.330324","400095.688823","400862.568107","411680.617712","Mapping"
"Blocked","Male","ball","4","M_gnash.wav","space","413.328003138","113","409369.265529","401630.006372","402397.560576","403164.440788","403931.714884","404699.114502","405466.375922","406233.614154","410136.477482","410904.019629","411671.031238","412438.272252","413188.548419","399328.330324","400095.688823","400862.568107","412447.490503","Mapping"
"Blocked","Male","ball","4","M_park.wav","None","736.539377831","113","409369.265529","401630.006372","402397.560576","403164.440788","403931.714884","404699.114502","405466.375922","406233.614154","410136.477482","410904.019629","411671.031238","412438.272252","413188.548419","413955.942164","400095.688823","400862.568107","413197.769144","Mapping"
"Blocked","Male","ball","4","M_ball.wav","None","728.926034644","113","409369.265529","401630.006372","402397.560576","403164.440788","403931.714884","404699.114502","405466.375922","406233.614154","410136.477482","410904.019629","411671.031238","412438.272252","413188.548419","413955.942164","414723.306846","400862.568107","413972.197463","Mapping"
"Blocked","Male","ball","4","M_done.wav","space","424.50856464","113","409369.265529","401630.006372","402397.560576","403164.440788","403931.714884","404699.114502","405466.375922","406233.614154","410136.477482","410904.019629","411671.031238","412438.272252","413188.548419","413955.942164","414723.306846","415490.625462","414732.255809","Mapping"
"Blocked","Male","ball","4","M_tile.wav","None","734.62529853","113","409369.265529","416257.485578","402397.560576","403164.440788","403931.714884","404699.114502","405466.375922","406233.614154","410136.477482","410904.019629","411671.031238","412438.272252","413188.548419","413955.942164","414723.306846","415490.625462","415499.566696","Mapping"
"Blocked","Male","ball","4","M_depth.wav","None","734.582014382","113","409369.265529","416257.485578","417024.70495","403164.440788","403931.714884","404699.114502","405466.375922","406233.614154","410136.477482","410904.019629","411671.031238","412438.272252","413188.548419","413955.942164","414723.306846","415490.625462","416266.522964","Mapping"
"Blocked","Male","ball","4","M_ball.wav","None","734.244708437","113","409369.265529","416257.485578","417024.70495","417791.98863","403931.714884","404699.114502","405466.375922","406233.614154","410136.477482","410904.019629","411671.031238","412438.272252","413188.548419","413955.942164","414723.306846","415490.625462","417033.72595","Mapping"
"Blocked","Male","ball","4","M_knife.wav","space","386.976715643","113","409369.265529","416257.485578","417024.70495","417791.98863","418559.332907","404699.114502","405466.375922","406233.614154","410136.477482","410904.019629","411671.031238","412438.272252","413188.548419","413955.942164","414723.306846","415490.625462","417801.738656","Mapping"
"Blocked","Male","ball","4","M_done.wav","None","732.662988361","113","409369.265529","416257.485578","417024.70495","417791.98863","418559.332907","419326.554444","405466.375922","406233.614154","410136.477482","410904.019629","411671.031238","412438.272252","413188.548419","413955.942164","414723.306846","415490.625462","418568.287126","Mapping"
"Blocked","Male","ball","4","M_knife.wav","None","731.911702082","113","409369.265529","416257.485578","417024.70495","417791.98863","418559.332907","419326.554444","420093.838432","406233.614154","410136.477482","410904.019629","411671.031238","412438.272252","413188.548419","413955.942164","414723.306846","415490.625462","419335.474344","Mapping"
"Blocked","Male","ball","4","M_cling.wav","None","731.230906677","113","409369.265529","416257.485578","417024.70495","417791.98863","418559.332907","419326.554444","420093.838432","420860.978966","410136.477482","410904.019629","411671.031238","412438.272252","413188.548419","413955.942164","414723.306846","415490.625462","420103.099349","Mapping"
"Blocked","Male","done","20","M_priest.wav","None","730.86144682","113","423996.682283","416257.485578","417024.70495","417791.98863","418559.332907","419326.554444","420093.838432","420860.978966","410136.477482","410904.019629","411671.031238","412438.272252","413188.548419","413955.942164","414723.306846","415490.625462","420870.693437","Mapping"
"Blocked","Male","done","20","M_gnash.wav","None","722.906160634","113","423996.682283","416257.485578","417024.70495","417791.98863","418559.332907","419326.554444","420093.838432","420860.978966","424764.117457","410904.019629","411671.031238","412438.272252","413188.548419","413955.942164","414723.306846","415490.625462","424005.497375","Mapping"
"Blocked","Male","done","20","M_done.wav","None","721.982356627","113","423996.682283","416257.485578","417024.70495","417791.98863","418559.332907","419326.554444","420093.838432","420860.978966","424764.117457","425531.151017","411671.031238","412438.272252","413188.548419","413955.942164","414723.306846","415490.625462","424773.500187","Mapping"
"Blocked","Male","done","20","M_depth.wav","space","472.022626549","113","423996.682283","416257.485578","417024.70495","417791.98863","418559.332907","419326.554444","420093.838432","420860.978966","424764.117457","425531.151017","426298.479526","412438.272252","413188.548419","413955.942164","414723.306846","415490.625462","425540.466348","Mapping"
"Blocked","Male","done","20","M_gnash.wav","None","721.137391403","113","423996.682283","416257.485578","417024.70495","417791.98863","418559.332907","419326.554444","420093.838432","420860.978966","424764.117457","425531.151017","426298.479526","427065.550496","413188.548419","413955.942164","414723.306846","415490.625462","426307.382732","Mapping"
"Blocked","Male","done","20","M_done.wav","None","721.029181965","113","423996.682283","416257.485578","417024.70495","417791.98863","418559.332907","419326.554444","420093.838432","420860.978966","424764.117457","425531.151017","426298.479526","427065.550496","427816.477778","413955.942164","414723.306846","415490.625462","427074.398669","Mapping"
"Blocked","Male","done","20","M_lash.wav","space","514.806676656","113","423996.682283","416257.485578","417024.70495","417791.98863","418559.332907","419326.554444","420093.838432","420860.978966","424764.117457","425531.151017","426298.479526","427065.550496","427816.477778","428583.387361","414723.306846","415490.625462","427825.611317","Mapping"
"Blocked","Male","done","20","M_knife.wav","None","735.438418575","113","423996.682283","416257.485578","417024.70495","417791.98863","418559.332907","419326.554444","420093.838432","420860.978966","424764.117457","425531.151017","426298.479526","427065.550496","427816.477778","428583.387361","429350.626829","415490.625462","428592.644877","Mapping"
"Blocked","Male","done","20","M_romp.wav","None","734.782666434","113","423996.682283","416257.485578","417024.70495","417791.98863","418559.332907","419326.554444","420093.838432","420860.978966","424764.117457","425531.151017","426298.479526","427065.550496","427816.477778","428583.387361","429350.626829","430118.024593","429359.830859","Mapping"
"Blocked","Male","done","20","M_done.wav","None","734.200805891","113","423996.682283","430885.031874","417024.70495","417791.98863","418559.332907","419326.554444","420093.838432","420860.978966","424764.117457","425531.151017","426298.479526","427065.550496","427816.477778","428583.387361","429350.626829","430118.024593","430126.988706","Mapping"
"Blocked","Male","done","20","M_greet.wav","space","493.926793803","113","423996.682283","430885.031874","431652.514969","417791.98863","418559.332907","419326.554444","420093.838432","420860.978966","424764.117457","425531.151017","426298.479526","427065.550496","427816.477778","428583.387361","429350.626829","430118.024593","430894.44243","Mapping"
"Blocked","Male","done","20","M_jaw.wav","None","732.773980591","113","423996.682283","430885.031874","431652.514969","432419.508337","418559.332907","419326.554444","420093.838432","420860.978966","424764.117457","425531.151017","426298.479526","427065.550496","427816.477778","428583.387361","429350.626829","430118.024593","431661.750534","Mapping"
"Blocked","Male","done","20","M_cave.wav","None","732.560961507","113","423996.682283","430885.031874","431652.514969","432419.508337","433186.882913","419326.554444","420093.838432","420860.978966","424764.117457","425531.151017","426298.479526","427065.550496","427816.477778","428583.387361","429350.626829","430118.024593","432428.994331","Mapping"
"Blocked","Male","done","20","M_reek.wav","None","732.626196928","113","423996.682283","430885.031874","431652.514969","432419.508337","433186.882913","433953.836089","420093.838432","420860.978966","424764.117457","425531.151017","426298.479526","427065.550496","427816.477778","428583.387361","429350.626829","430118.024593","433195.960491","Mapping"
"Blocked","Male","done","20","M_done.wav","None","733.059036545","113","423996.682283","430885.031874","431652.514969","432419.508337","433186.882913","433953.836089","434721.072775","420860.978966","424764.117457","425531.151017","426298.479526","427065.550496","427816.477778","428583.387361","429350.626829","430118.024593","433962.989414","Mapping"
"Blocked","Male","done","20","M_cling.wav","space","577.847011387","113","423996.682283","430885.031874","431652.514969","432419.508337","433186.882913","433953.836089","434721.072775","435488.386444","424764.117457","425531.151017","426298.479526","427065.550496","427816.477778","428583.387361","429350.626829","430118.024593","434730.42768","Mapping"
"Blocked","Male","done","19","M_reek.wav","None","732.055466622","113","438624.176329","430885.031874","431652.514969","432419.508337","433186.882913","433953.836089","434721.072775","435488.386444","424764.117457","425531.151017","426298.479526","427065.550496","427816.477778","428583.387361","429350.626829","430118.024593","435497.306345","Mapping"
"Blocked","Male","done","19","M_jolt.wav","None","722.87307959","113","438624.176329","430885.031874","431652.514969","432419.508337","433186.882913","433953.836089","434721.072775","435488.386444","439391.880791","425531.151017","426298.479526","427065.550496","427816.477778","428583.387361","429350.626829","430118.024593","438633.254525","Mapping"
"Blocked","Male","done","19","M_gnash.wav","None","722.232476342","113","438624.176329","430885.031874","431652.514969","432419.508337","433186.882913","433953.836089","434721.072775","435488.386444","439391.880791","440158.667942","426298.479526","427065.550496","427816.477778","428583.387361","429350.626829","430118.024593","439400.856652","Mapping"
"Blocked","Male","done","19","M_done.wav","None","721.462949179","113","438624.176329","430885.031874","431652.514969","432419.508337","433186.882913","433953.836089","434721.072775","435488.386444","439391.880791","440158.667942","440925.494666","427065.550496","427816.477778","428583.387361","429350.626829","430118.024593","440168.126419","Mapping"
"Blocked","Male","done","19","M_greet.wav","space","445.426166523","113","438624.176329","430885.031874","431652.514969","432419.508337","433186.882913","433953.836089","434721.072775","435488.386444","439391.880791","440158.667942","440925.494666","441676.834073","427816.477778","428583.387361","429350.626829","430118.024593","440934.713535","Mapping"
"Blocked","Male","done","19","M_done.wav","None","736.388811376","113","438624.176329","430885.031874","431652.514969","432419.508337","433186.882913","433953.836089","434721.072775","435488.386444","439391.880791","440158.667942","440925.494666","441676.834073","442443.751385","428583.387361","429350.626829","430118.024593","441686.106429","Mapping"
"Blocked","Male","done","19","M_park.wav","space","599.360386375","113","438624.176329","430885.031874","431652.514969","432419.508337","433186.882913","433953.836089","434721.072775","435488.386444","439391.880791","440158.667942","440925.494666","441676.834073","442443.751385","443210.779381","429350.626829","430118.024593","442452.753835","Mapping"
"Blocked","Male","done","19","M_priest.wav","None","735.866621137","113","438624.176329","430885.031874","431652.514969","432419.508337","433186.882913","433953.836089","434721.072775","435488.386444","439391.880791","440158.667942","440925.494666","441676.834073","442443.751385","443210.779381","443977.924551","430118.024593","443220.108315","Mapping"
"Blocked","Male","done","19","M_done.wav","None","736.288639717","113","438624.176329","430885.031874","431652.514969","432419.508337","433186.882913","433953.836089","434721.072775","435488.386444","439391.880791","440158.667942","440925.494666","441676.834073","442443.751385","443210.779381","443977.924551","444745.170204","443986.705016","Mapping"
"Blocked","Male","done","19","M_park.wav","space","465.816013049","113","438624.176329","445512.471815","431652.514969","432419.508337","433186.882913","433953.836089","434721.072775","435488.386444","439391.880791","440158.667942","440925.494666","441676.834073","442443.751385","443210.779381","443977.924551","444745.170204","444754.227994","Mapping"
"Blocked","Male","done","19","M_bluff.wav","None","735.050099436","113","438624.176329","445512.471815","446279.729834","432419.508337","433186.882913","433953.836089","434721.072775","435488.386444","439391.880791","440158.667942","440925.494666","441676.834073","442443.751385","443210.779381","443977.924551","444745.170204","445521.761794","Mapping"
"Blocked","Male","done","19","M_ball.wav","None","735.446148086","113","438624.176329","445512.471815","446279.729834","447047.143365","433186.882913","433953.836089","434721.072775","435488.386444","439391.880791","440158.667942","440925.494666","441676.834073","442443.751385","443210.779381","443977.924551","444745.170204","446288.831837","Mapping"
"Blocked","Male","done","19","M_park.wav","None","734.648486134","113","438624.176329","445512.471815","446279.729834","447047.143365","447814.13426","433953.836089","434721.072775","435488.386444","439391.880791","440158.667942","440925.494666","441676.834073","442443.751385","443210.779381","443977.924551","444745.170204","447056.581128","Mapping"
"Blocked","Male","done","19","M_bluff.wav","None","734.61540509","113","438624.176329","445512.471815","446279.729834","447047.143365","447814.13426","448581.550884","434721.072775","435488.386444","439391.880791","440158.667942","440925.494666","441676.834073","442443.751385","443210.779381","443977.924551","444745.170204","447823.548216","Mapping"
"Blocked","Male","done","19","M_done.wav","None","734.561299905","113","438624.176329","445512.471815","446279.729834","447047.143365","447814.13426","448581.550884","449348.532812","435488.386444","439391.880791","440158.667942","440925.494666","441676.834073","442443.751385","443210.779381","443977.924551","444745.170204","448590.611148","Mapping"
"Blocked","Male","done","19","M_cling.wav","space","478.12752286","113","438624.176329","445512.471815","446279.729834","447047.143365","447814.13426","448581.550884","449348.532812","450115.706427","439391.880791","440158.667942","440925.494666","441676.834073","442443.751385","443210.779381","443977.924551","444745.170204","449357.79713","Mapping"
"Blocked","Male","done","22","M_jolt.wav","None","733.958415687","113","453251.527847","445512.471815","446279.729834","447047.143365","447814.13426","448581.550884","449348.532812","450115.706427","439391.880791","440158.667942","440925.494666","441676.834073","442443.751385","443210.779381","443977.924551","444745.170204","450124.713823","Mapping"
"Blocked","Male","done","22","M_priest.wav","None","723.22831722","113","453251.527847","445512.471815","446279.729834","447047.143365","447814.13426","448581.550884","449348.532812","450115.706427","454018.980025","440158.667942","440925.494666","441676.834073","442443.751385","443210.779381","443977.924551","444745.170204","453260.534007","Mapping"
"Blocked","Male","done","22","M_done.wav","None","722.183936741","113","453251.527847","445512.471815","446279.729834","447047.143365","447814.13426","448581.550884","449348.532812","450115.706427","454018.980025","454786.259995","440925.494666","441676.834073","442443.751385","443210.779381","443977.924551","444745.170204","454028.464473","Mapping"
"Blocked","Male","done","22","M_priest.wav","space","472.028810065","113","453251.527847","445512.471815","446279.729834","447047.143365","447814.13426","448581.550884","449348.532812","450115.706427","454018.980025","454786.259995","455553.390944","441676.834073","442443.751385","443210.779381","443977.924551","444745.170204","454795.786799","Mapping"
"Blocked","Male","done","22","M_cad.wav","None","721.524165012","113","453251.527847","445512.471815","446279.729834","447047.143365","447814.13426","448581.550884","449348.532812","450115.706427","454018.980025","454786.259995","455553.390944","456320.433161","442443.751385","443210.779381","443977.924551","444745.170204","455562.813558","Mapping"
"Blocked","Male","done","22","M_done.wav","None","722.269267775","113","453251.527847","445512.471815","446279.729834","447047.143365","447814.13426","448581.550884","449348.532812","450115.706427","454018.980025","454786.259995","455553.390944","456320.433161","457087.916875","443210.779381","443977.924551","444745.170204","456329.398819","Mapping"
"Blocked","Male","done","22","M_knife.wav","space","482.424076181","113","453251.527847","445512.471815","446279.729834","447047.143365","447814.13426","448581.550884","449348.532812","450115.706427","454018.980025","454786.259995","455553.390944","456320.433161","457087.916875","457855.085852","443977.924551","444745.170204","457097.298987","Mapping"
"Blocked","Male","done","22","M_done.wav","None","720.128566027","113","453251.527847","445512.471815","446279.729834","447047.143365","447814.13426","448581.550884","449348.532812","450115.706427","454018.980025","454786.259995","455553.390944","456320.433161","457087.916875","457855.085852","458622.169807","444745.170204","457864.595961","Mapping"
"Blocked","Male","done","22","M_lash.wav","space","539.994243067","113","453251.527847","445512.471815","446279.729834","447047.143365","447814.13426","448581.550884","449348.532812","450115.706427","454018.980025","454786.259995","455553.390944","456320.433161","457087.916875","457855.085852","458622.169807","459373.063699","458631.704341","Mapping"
"Blocked","Male","done","22","M_depth.wav","None","736.235462595","113","453251.527847","460139.893515","446279.729834","447047.143365","447814.13426","448581.550884","449348.532812","450115.706427","454018.980025","454786.259995","455553.390944","456320.433161","457087.916875","457855.085852","458622.169807","459373.063699","459382.359552","Mapping"
"Blocked","Male","done","22","M_ball.wav","None","736.417564098","113","453251.527847","460139.893515","460907.120617","447047.143365","447814.13426","448581.550884","449348.532812","450115.706427","454018.980025","454786.259995","455553.390944","456320.433161","457087.916875","457855.085852","458622.169807","459373.063699","460149.270062","Mapping"
"Blocked","Male","done","22","M_bluff.wav","None","736.504750326","113","453251.527847","460139.893515","460907.120617","461691.112531","447814.13426","448581.550884","449348.532812","450115.706427","454018.980025","454786.259995","455553.390944","456320.433161","457087.916875","457855.085852","458622.169807","459373.063699","460916.517569","Mapping"
"Blocked","Male","done","22","M_done.wav","None","726.905600633","113","453251.527847","460139.893515","460907.120617","461691.112531","462458.495764","448581.550884","449348.532812","450115.706427","454018.980025","454786.259995","455553.390944","456320.433161","457087.916875","457855.085852","458622.169807","459373.063699","461694.230214","Mapping"
"Blocked","Male","done","22","M_depth.wav","space","576.058455277","113","453251.527847","460139.893515","460907.120617","461691.112531","462458.495764","463208.555511","449348.532812","450115.706427","454018.980025","454786.259995","455553.390944","456320.433161","457087.916875","457855.085852","458622.169807","459373.063699","462467.558811","Mapping"
"Blocked","Male","done","22","M_gnash.wav","None","737.265312113","113","453251.527847","460139.893515","460907.120617","461691.112531","462458.495764","463208.555511","463976.209888","450115.706427","454018.980025","454786.259995","455553.390944","456320.433161","457087.916875","457855.085852","458622.169807","459373.063699","463217.461499","Mapping"
"Blocked","Male","done","22","M_reek.wav","None","736.33841658","113","453251.527847","460139.893515","460907.120617","461691.112531","462458.495764","463208.555511","463976.209888","464743.558803","454018.980025","454786.259995","455553.390944","456320.433161","457087.916875","457855.085852","458622.169807","459373.063699","463985.303852","Mapping"
"Blocked","Male","tile","14","M_cave.wav","None","736.935735215","113","467879.144325","460139.893515","460907.120617","461691.112531","462458.495764","463208.555511","463976.209888","464743.558803","454018.980025","454786.259995","455553.390944","456320.433161","457087.916875","457855.085852","458622.169807","459373.063699","464752.671626","Mapping"
"Blocked","Male","tile","14","M_depth.wav","None","723.216877785","113","467879.144325","460139.893515","460907.120617","461691.112531","462458.495764","463208.555511","463976.209888","464743.558803","468646.208802","454786.259995","455553.390944","456320.433161","457087.916875","457855.085852","458622.169807","459373.063699","467888.353301","Mapping"
"Blocked","Male","tile","14","M_cave.wav","None","723.318904173","113","467879.144325","460139.893515","460907.120617","461691.112531","462458.495764","463208.555511","463976.209888","464743.558803","468646.208802","469413.57534","455553.390944","456320.433161","457087.916875","457855.085852","458622.169807","459373.063699","468655.535263","Mapping"
"Blocked","Male","tile","14","M_bluff.wav","None","723.147314042","113","467879.144325","460139.893515","460907.120617","461691.112531","462458.495764","463208.555511","463976.209888","464743.558803","468646.208802","469413.57534","470181.068947","456320.433161","457087.916875","457855.085852","458622.169807","459373.063699","469422.936738","Mapping"
"Blocked","Male","tile","14","M_bluff.wav","None","723.054253496","113","467879.144325","460139.893515","460907.120617","461691.112531","462458.495764","463208.555511","463976.209888","464743.558803","468646.208802","469413.57534","470181.068947","470948.091687","457087.916875","457855.085852","458622.169807","459373.063699","470190.437146","Mapping"
"Blocked","Male","tile","14","M_knife.wav","None","722.694378346","113","467879.144325","460139.893515","460907.120617","461691.112531","462458.495764","463208.555511","463976.209888","464743.558803","468646.208802","469413.57534","470181.068947","470948.091687","471715.350323","457855.085852","458622.169807","459373.063699","470957.48431","Mapping"
"Blocked","Male","tile","14","M_cave.wav","None","722.825157922","113","467879.144325","460139.893515","460907.120617","461691.112531","462458.495764","463208.555511","463976.209888","464743.558803","468646.208802","469413.57534","470181.068947","470948.091687","471715.350323","472482.026482","458622.169807","459373.063699","471724.457273","Mapping"
"Blocked","Male","tile","14","M_jolt.wav","None","725.395607762","113","467879.144325","460139.893515","460907.120617","461691.112531","462458.495764","463208.555511","463976.209888","464743.558803","468646.208802","469413.57534","470181.068947","470948.091687","471715.350323","472482.026482","473249.715176","459373.063699","472490.986575","Mapping"
"Blocked","Male","tile","14","M_tile.wav","None","724.720377941","113","467879.144325","460139.893515","460907.120617","461691.112531","462458.495764","463208.555511","463976.209888","464743.558803","468646.208802","469413.57534","470181.068947","470948.091687","471715.350323","472482.026482","473249.715176","474016.765432","473258.849641","Mapping"
"Blocked","Male","tile","14","M_dime.wav","space","513.31152441","113","467879.144325","474784.225648","460907.120617","461691.112531","462458.495764","463208.555511","463976.209888","464743.558803","468646.208802","469413.57534","470181.068947","470948.091687","471715.350323","472482.026482","473249.715176","474016.765432","474026.024184","Mapping"
"Blocked","Male","tile","14","M_tile.wav","None","723.249031696","113","467879.144325","474784.225648","475551.46728","461691.112531","462458.495764","463208.555511","463976.209888","464743.558803","468646.208802","469413.57534","470181.068947","470948.091687","471715.350323","472482.026482","473249.715176","474016.765432","474793.552418","Mapping"
"Blocked","Male","tile","14","M_bluff.wav","None","723.173903301","113","467879.144325","474784.225648","475551.46728","476318.798573","462458.495764","463208.555511","463976.209888","464743.558803","468646.208802","469413.57534","470181.068947","470948.091687","471715.350323","472482.026482","473249.715176","474016.765432","475560.982336","Mapping"
"Blocked","Male","tile","14","M_tile.wav","space","362.951324321","113","467879.144325","474784.225648","475551.46728","476318.798573","477085.895204","463208.555511","463976.209888","464743.558803","468646.208802","469413.57534","470181.068947","470948.091687","471715.350323","472482.026482","473249.715176","474016.765432","476328.307754","Mapping"
"Blocked","Male","tile","14","M_depth.wav","space","636.309756432","113","467879.144325","474784.225648","475551.46728","476318.798573","477085.895204","477852.938967","463976.209888","464743.558803","468646.208802","469413.57534","470181.068947","470948.091687","471715.350323","472482.026482","473249.715176","474016.765432","477094.963198","Mapping"
"Blocked","Male","tile","14","M_tile.wav","None","722.276997287","113","467879.144325","474784.225648","475551.46728","476318.798573","477085.895204","477852.938967","478620.351571","464743.558803","468646.208802","469413.57534","470181.068947","470948.091687","471715.350323","472482.026482","473249.715176","474016.765432","477862.089818","Mapping"
"Blocked","Male","tile","14","M_cave.wav","space","477.494649123","113","467879.144325","474784.225648","475551.46728","476318.798573","477085.895204","477852.938967","478620.351571","479387.78458","468646.208802","469413.57534","470181.068947","470948.091687","471715.350323","472482.026482","473249.715176","474016.765432","478629.74605","Mapping"
"Blocked","Male","ball","3","M_done.wav","None","721.063190605","113","482523.271477","474784.225648","475551.46728","476318.798573","477085.895204","477852.938967","478620.351571","479387.78458","468646.208802","469413.57534","470181.068947","470948.091687","471715.350323","472482.026482","473249.715176","474016.765432","479397.003141","Mapping"
"Blocked","Male","ball","3","M_ball.wav","None","722.788366489","113","482523.271477","474784.225648","475551.46728","476318.798573","477085.895204","477852.938967","478620.351571","479387.78458","483290.71067","469413.57534","470181.068947","470948.091687","471715.350323","472482.026482","473249.715176","474016.765432","482532.19818","Mapping"
"Blocked","Male","ball","3","M_tile.wav","space","374.987981282","113","482523.271477","474784.225648","475551.46728","476318.798573","477085.895204","477852.938967","478620.351571","479387.78458","483290.71067","484057.755361","470181.068947","470948.091687","471715.350323","472482.026482","473249.715176","474016.765432","483300.109786","Mapping"
"Blocked","Male","ball","3","M_tile.wav","None","713.471180294","113","482523.271477","474784.225648","475551.46728","476318.798573","477085.895204","477852.938967","478620.351571","479387.78458","483290.71067","484057.755361","484824.956182","470948.091687","471715.350323","472482.026482","473249.715176","474016.765432","484075.07761","Mapping"
"Blocked","Male","ball","3","M_bluff.wav","None","720.682291314","113","482523.271477","474784.225648","475551.46728","476318.798573","477085.895204","477852.938967","478620.351571","479387.78458","483290.71067","484057.755361","484824.956182","485592.336942","471715.350323","472482.026482","473249.715176","474016.765432","484834.676837","Mapping"
"Blocked","Male","ball","3","M_ball.wav","None","720.93581222","113","482523.271477","474784.225648","475551.46728","476318.798573","477085.895204","477852.938967","478620.351571","479387.78458","483290.71067","484057.755361","484824.956182","485592.336942","486359.402965","472482.026482","473249.715176","474016.765432","485601.76512","Mapping"
"Blocked","Male","ball","3","M_greet.wav","space","522.434860002","113","482523.271477","474784.225648","475551.46728","476318.798573","477085.895204","477852.938967","478620.351571","479387.78458","483290.71067","484057.755361","484824.956182","485592.336942","486359.402965","487126.422922","473249.715176","474016.765432","486368.622762","Mapping"
"Blocked","Male","ball","3","M_ball.wav","None","720.332309604","113","482523.271477","474784.225648","475551.46728","476318.798573","477085.895204","477852.938967","478620.351571","479387.78458","483290.71067","484057.755361","484824.956182","485592.336942","486359.402965","487126.422922","487893.989494","474016.765432","487135.951581","Mapping"
"Blocked","Male","ball","3","M_lash.wav","space","523.387107532","113","482523.271477","474784.225648","475551.46728","476318.798573","477085.895204","477852.938967","478620.351571","479387.78458","483290.71067","484057.755361","484824.956182","485592.336942","486359.402965","487126.422922","487893.989494","488661.172383","487903.626054","Mapping"
"Blocked","Male","ball","3","M_park.wav","None","719.730353449","113","482523.271477","489428.185229","475551.46728","476318.798573","477085.895204","477852.938967","478620.351571","479387.78458","483290.71067","484057.755361","484824.956182","485592.336942","486359.402965","487126.422922","487893.989494","488661.172383","488671.59362","Mapping"
"Blocked","Male","ball","3","M_priest.wav","None","720.605617389","113","482523.271477","489428.185229","490195.579283","476318.798573","477085.895204","477852.938967","478620.351571","479387.78458","483290.71067","484057.755361","484824.956182","485592.336942","486359.402965","487126.422922","487893.989494","488661.172383","489437.753771","Mapping"
"Blocked","Male","ball","3","M_dime.wav","None","720.669924747","113","482523.271477","489428.185229","490195.579283","490962.676224","477085.895204","477852.938967","478620.351571","479387.78458","483290.71067","484057.755361","484824.956182","485592.336942","486359.402965","487126.422922","487893.989494","488661.172383","490205.178124","Mapping"
"Blocked","Male","ball","3","M_cave.wav","None","721.072156448","113","482523.271477","489428.185229","490195.579283","490962.676224","491730.067495","477852.938967","478620.351571","479387.78458","483290.71067","484057.755361","484824.956182","485592.336942","486359.402965","487126.422922","487893.989494","488661.172383","490972.025254","Mapping"
"Blocked","Male","ball","3","M_jaw.wav","None","721.512107179","113","482523.271477","489428.185229","490195.579283","490962.676224","491730.067495","492497.417338","478620.351571","479387.78458","483290.71067","484057.755361","484824.956182","485592.336942","486359.402965","487126.422922","487893.989494","488661.172383","491739.071491","Mapping"
"Blocked","Male","ball","3","M_ball.wav","None","721.124406438","113","482523.271477","489428.185229","490195.579283","490962.676224","491730.067495","492497.417338","493264.523553","479387.78458","483290.71067","484057.755361","484824.956182","485592.336942","486359.402965","487126.422922","487893.989494","488661.172383","492506.581484","Mapping"
"Blocked","Male","ball","3","M_gnash.wav","space","392.297244631","113","482523.271477","489428.185229","490195.579283","490962.676224","491730.067495","492497.417338","493264.523553","494015.193604","483290.71067","484057.755361","484824.956182","485592.336942","486359.402965","487126.422922","487893.989494","488661.172383","493274.575021","Mapping"
"Blocked","Male","ball","2","M_jaw.wav","None","736.242264044","113","497150.727186","489428.185229","490195.579283","490962.676224","491730.067495","492497.417338","493264.523553","494015.193604","483290.71067","484057.755361","484824.956182","485592.336942","486359.402965","487126.422922","487893.989494","488661.172383","494024.72721","Mapping"
"Blocked","Male","ball","2","M_gnash.wav","None","722.528044134","113","497150.727186","489428.185229","490195.579283","490962.676224","491730.067495","492497.417338","493264.523553","494015.193604","497917.891217","484057.755361","484824.956182","485592.336942","486359.402965","487126.422922","487893.989494","488661.172383","497159.999542","Mapping"
"Blocked","Male","ball","2","M_bluff.wav","None","722.419525031","113","497150.727186","489428.185229","490195.579283","490962.676224","491730.067495","492497.417338","493264.523553","494015.193604","497917.891217","498685.189428","484824.956182","485592.336942","486359.402965","487126.422922","487893.989494","488661.172383","497927.542308","Mapping"
"Blocked","Male","ball","2","M_ball.wav","None","722.470538225","113","497150.727186","489428.185229","490195.579283","490962.676224","491730.067495","492497.417338","493264.523553","494015.193604","497917.891217","498685.189428","499452.410964","485592.336942","486359.402965","487126.422922","487893.989494","488661.172383","498694.565356","Mapping"
"Blocked","Male","ball","2","M_cad.wav","space","341.219674796","113","497150.727186","489428.185229","490195.579283","490962.676224","491730.067495","492497.417338","493264.523553","494015.193604","497917.891217","498685.189428","499452.410964","500219.722469","486359.402965","487126.422922","487893.989494","488661.172383","499461.480813","Mapping"
"Blocked","Male","ball","2","M_tile.wav","None","722.031205893","113","497150.727186","489428.185229","490195.579283","490962.676224","491730.067495","492497.417338","493264.523553","494015.193604","497917.891217","498685.189428","499452.410964","500219.722469","500986.422434","487126.422922","487893.989494","488661.172383","500228.797883","Mapping"
"Blocked","Male","ball","2","M_ball.wav","None","722.460335586","113","497150.727186","489428.185229","490195.579283","490962.676224","491730.067495","492497.417338","493264.523553","494015.193604","497917.891217","498685.189428","499452.410964","500219.722469","500986.422434","501754.131842","487893.989494","488661.172383","500995.51949","Mapping"
"Blocked","Male","ball","2","M_tile.wav","space","389.596324414","113","497150.727186","489428.185229","490195.579283","490962.676224","491730.067495","492497.417338","493264.523553","494015.193604","497917.891217","498685.189428","499452.410964","500219.722469","500986.422434","501754.131842","502521.048845","488661.172383","501765.085163","Mapping"
"Blocked","Male","ball","2","M_ball.wav","space","575.945299119","113","497150.727186","489428.185229","490195.579283","490962.676224","491730.067495","492497.417338","493264.523553","494015.193604","497917.891217","498685.189428","499452.410964","500219.722469","500986.422434","501754.131842","502521.048845","503288.329124","502530.672729","Mapping"
"Blocked","Male","ball","2","M_reek.wav","None","721.314547118","113","497150.727186","504055.892294","490195.579283","490962.676224","491730.067495","492497.417338","493264.523553","494015.193604","497917.891217","498685.189428","499452.410964","500219.722469","500986.422434","501754.131842","502521.048845","503288.329124","503297.454005","Mapping"
"Blocked","Male","ball","2","M_bluff.wav","None","720.287789125","113","497150.727186","504055.892294","504822.922454","490962.676224","491730.067495","492497.417338","493264.523553","494015.193604","497917.891217","498685.189428","499452.410964","500219.722469","500986.422434","501754.131842","502521.048845","503288.329124","504065.471658","Mapping"
"Blocked","Male","ball","2","M_cling.wav","None","720.958072226","113","497150.727186","504055.892294","504822.922454","505590.652577","491730.067495","492497.417338","493264.523553","494015.193604","497917.891217","498685.189428","499452.410964","500219.722469","500986.422434","501754.131842","502521.048845","503288.329124","504832.333319","Mapping"
"Blocked","Male","ball","2","M_ball.wav","None","720.452886075","113","497150.727186","504055.892294","504822.922454","505590.652577","506357.556285","492497.417338","493264.523553","494015.193604","497917.891217","498685.189428","499452.410964","500219.722469","500986.422434","501754.131842","502521.048845","503288.329124","505600.252346","Mapping"
"Blocked","Male","ball","2","M_priest.wav","space","483.914281707","113","497150.727186","504055.892294","504822.922454","505590.652577","506357.556285","507124.711659","493264.523553","494015.193604","497917.891217","498685.189428","499452.410964","500219.722469","500986.422434","501754.131842","502521.048845","503288.329124","506366.606966","Mapping"
"Blocked","Male","ball","2","M_depth.wav","None","720.248833299","113","497150.727186","504055.892294","504822.922454","505590.652577","506357.556285","507124.711659","507892.112206","494015.193604","497917.891217","498685.189428","499452.410964","500219.722469","500986.422434","501754.131842","502521.048845","503288.329124","507134.156842","Mapping"
"Blocked","Male","ball","2","M_reek.wav","None","718.340628315","113","497150.727186","504055.892294","504822.922454","505590.652577","506357.556285","507124.711659","507892.112206","508659.188122","497917.891217","498685.189428","499452.410964","500219.722469","500986.422434","501754.131842","502521.048845","503288.329124","507904.245324","Mapping"
"Blocked","Male","ball","5","M_knife.wav","None","721.814785618","113","511794.994393","504055.892294","504822.922454","505590.652577","506357.556285","507124.711659","507892.112206","508659.188122","497917.891217","498685.189428","499452.410964","500219.722469","500986.422434","501754.131842","502521.048845","503288.329124","508668.336501","Mapping"
"Blocked","Male","ball","5","M_ball.wav","None","720.685692504","113","511794.994393","504055.892294","504822.922454","505590.652577","506357.556285","507124.711659","507892.112206","508659.188122","512562.126888","498685.189428","499452.410964","500219.722469","500986.422434","501754.131842","502521.048845","503288.329124","511805.494468","Mapping"
"Blocked","Male","ball","5","M_lash.wav","space","454.925454222","113","511794.994393","504055.892294","504822.922454","505590.652577","506357.556285","507124.711659","507892.112206","508659.188122","512562.126888","513329.26433","499452.410964","500219.722469","500986.422434","501754.131842","502521.048845","503288.329124","512571.482102","Mapping"
"Blocked","Male","ball","5","M_jolt.wav","None","721.271881368","113","511794.994393","504055.892294","504822.922454","505590.652577","506357.556285","507124.711659","507892.112206","508659.188122","512562.126888","513329.26433","514096.610153","500219.722469","500986.422434","501754.131842","502521.048845","503288.329124","513338.503296","Mapping"
"Blocked","Male","ball","5","M_reek.wav","None","721.084832679","113","511794.994393","504055.892294","504822.922454","505590.652577","506357.556285","507124.711659","507892.112206","508659.188122","512562.126888","513329.26433","514096.610153","514863.76058","500986.422434","501754.131842","502521.048845","503288.329124","514106.047916","Mapping"
"Blocked","Male","ball","5","M_ball.wav","None","720.906440634","113","511794.994393","504055.892294","504822.922454","505590.652577","506357.556285","507124.711659","507892.112206","508659.188122","512562.126888","513329.26433","514096.610153","514863.76058","515630.960475","501754.131842","502521.048845","503288.329124","514873.768146","Mapping"
"Blocked","Male","ball","5","M_reek.wav","space","473.928048741","113","511794.994393","504055.892294","504822.922454","505590.652577","506357.556285","507124.711659","507892.112206","508659.188122","512562.126888","513329.26433","514096.610153","514863.76058","515630.960475","516398.202416","502521.048845","503288.329124","515640.397928","Mapping"
"Blocked","Male","ball","5","M_ball.wav","None","720.984970685","113","511794.994393","504055.892294","504822.922454","505590.652577","506357.556285","507124.711659","507892.112206","508659.188122","512562.126888","513329.26433","514096.610153","514863.76058","515630.960475","516398.202416","517165.456106","503288.329124","516407.826609","Mapping"
"Blocked","Male","ball","5","M_done.wav","space","427.331916522","113","511794.994393","504055.892294","504822.922454","505590.652577","506357.556285","507124.711659","507892.112206","508659.188122","512562.126888","513329.26433","514096.610153","514863.76058","515630.960475","516398.202416","517165.456106","517932.743496","517174.992804","Mapping"
"Blocked","Male","ball","5","M_cave.wav","None","719.297204167","113","511794.994393","518700.455687","504822.922454","505590.652577","506357.556285","507124.711659","507892.112206","508659.188122","512562.126888","513329.26433","514096.610153","514863.76058","515630.960475","516398.202416","517165.456106","517932.743496","517942.987268","Mapping"
"Blocked","Male","ball","5","M_priest.wav","None","719.854639843","113","511794.994393","518700.455687","519466.971386","505590.652577","506357.556285","507124.711659","507892.112206","508659.188122","512562.126888","513329.26433","514096.610153","514863.76058","515630.960475","516398.202416","517165.456106","517932.743496","518710.010317","Mapping"
"Blocked","Male","ball","5","M_reek.wav","None","720.968275331","113","511794.994393","518700.455687","519466.971386","520234.405323","506357.556285","507124.711659","507892.112206","508659.188122","512562.126888","513329.26433","514096.610153","514863.76058","515630.960475","516398.202416","517165.456106","517932.743496","519476.279296","Mapping"
"Blocked","Male","ball","5","M_depth.wav","None","720.556149725","113","511794.994393","518700.455687","519466.971386","520234.405323","521001.670452","507124.711659","507892.112206","508659.188122","512562.126888","513329.26433","514096.610153","514863.76058","515630.960475","516398.202416","517165.456106","517932.743496","520243.93089","Mapping"
"Blocked","Male","ball","5","M_ball.wav","None","721.592491958","113","511794.994393","518700.455687","519466.971386","520234.405323","521001.670452","521769.049357","507892.112206","508659.188122","512562.126888","513329.26433","514096.610153","514863.76058","515630.960475","516398.202416","517165.456106","517932.743496","521011.272694","Mapping"
"Blocked","Male","ball","5","M_priest.wav","space","447.372708935","113","511794.994393","518700.455687","519466.971386","520234.405323","521001.670452","521769.049357","522536.722283","508659.188122","512562.126888","513329.26433","514096.610153","514863.76058","515630.960475","516398.202416","517165.456106","517932.743496","521778.782996","Mapping"
"Blocked","Male","ball","5","M_gnash.wav","None","719.6264714","113","511794.994393","518700.455687","519466.971386","520234.405323","521001.670452","521769.049357","522536.722283","523303.300434","512562.126888","513329.26433","514096.610153","514863.76058","515630.960475","516398.202416","517165.456106","517932.743496","522546.5765","Mapping"
"Blocked","Male","cave","8","M_tile.wav","None","720.979405101","113","526439.018901","518700.455687","519466.971386","520234.405323","521001.670452","521769.049357","522536.722283","523303.300434","512562.126888","513329.26433","514096.610153","514863.76058","515630.960475","516398.202416","517165.456106","517932.743496","523312.874851","Mapping"
"Blocked","Male","cave","8","M_jaw.wav","None","722.469611093","113","526439.018901","518700.455687","519466.971386","520234.405323","521001.670452","521769.049357","522536.722283","523303.300434","527206.512198","513329.26433","514096.610153","514863.76058","515630.960475","516398.202416","517165.456106","517932.743496","526448.750376","Mapping"
"Blocked","Male","cave","8","M_tile.wav","None","722.58678684","113","526439.018901","518700.455687","519466.971386","520234.405323","521001.670452","521769.049357","522536.722283","523303.300434","527206.512198","527973.659843","514096.610153","514863.76058","515630.960475","516398.202416","517165.456106","517932.743496","527215.7524","Mapping"
"Blocked","Male","cave","8","M_romp.wav","None","722.797023132","113","526439.018901","518700.455687","519466.971386","520234.405323","521001.670452","521769.049357","522536.722283","523303.300434","527206.512198","527973.659843","528740.66465","514863.76058","515630.960475","516398.202416","517165.456106","517932.743496","527983.050921","Mapping"
"Blocked","Male","cave","8","M_cave.wav","None","724.136662669","113","526439.018901","518700.455687","519466.971386","520234.405323","521001.670452","521769.049357","522536.722283","523303.300434","527206.512198","527973.659843","528740.66465","529507.90721","515630.960475","516398.202416","517165.456106","517932.743496","528749.862805","Mapping"
"Blocked","Male","cave","8","M_lash.wav","space","508.103534114","113","526439.018901","518700.455687","519466.971386","520234.405323","521001.670452","521769.049357","522536.722283","523303.300434","527206.512198","527973.659843","528740.66465","529507.90721","530275.161519","516398.202416","517165.456106","517932.743496","529517.884786","Mapping"
"Blocked","Male","cave","8","M_dime.wav","None","722.791767213","113","526439.018901","518700.455687","519466.971386","520234.405323","521001.670452","521769.049357","522536.722283","523303.300434","527206.512198","527973.659843","528740.66465","529507.90721","530275.161519","531042.249493","517165.456106","517932.743496","530284.65215","Mapping"
"Blocked","Male","cave","8","M_greet.wav","None","723.226462025","113","526439.018901","518700.455687","519466.971386","520234.405323","521001.670452","521769.049357","522536.722283","523303.300434","527206.512198","527973.659843","528740.66465","529507.90721","530275.161519","531042.249493","531809.99291","517932.743496","531051.834112","Mapping"
"Blocked","Male","cave","8","M_greet.wav","None","723.130000755","113","526439.018901","518700.455687","519466.971386","520234.405323","521001.670452","521769.049357","522536.722283","523303.300434","527206.512198","527973.659843","528740.66465","529507.90721","530275.161519","531042.249493","531809.99291","532576.794283","531819.567636","Mapping"
"Blocked","Male","cave","8","M_lash.wav","None","723.695165943","113","526439.018901","533344.047355","519466.971386","520234.405323","521001.670452","521769.049357","522536.722283","523303.300434","527206.512198","527973.659843","528740.66465","529507.90721","530275.161519","531042.249493","531809.99291","532576.794283","532586.607998","Mapping"
"Blocked","Male","cave","8","M_cave.wav","None","724.356792402","113","526439.018901","533344.047355","534111.175522","520234.405323","521001.670452","521769.049357","522536.722283","523303.300434","527206.512198","527973.659843","528740.66465","529507.90721","530275.161519","531042.249493","531809.99291","532576.794283","533353.561792","Mapping"
"Blocked","Male","cave","8","M_priest.wav","space","457.221050747","113","526439.018901","533344.047355","534111.175522","534878.514543","521001.670452","521769.049357","522536.722283","523303.300434","527206.512198","527973.659843","528740.66465","529507.90721","530275.161519","531042.249493","531809.99291","532576.794283","534120.676355","Mapping"
"Blocked","Male","cave","8","M_cave.wav","None","724.04143773","113","526439.018901","533344.047355","534111.175522","534878.514543","535645.590151","521769.049357","522536.722283","523303.300434","527206.512198","527973.659843","528740.66465","529507.90721","530275.161519","531042.249493","531809.99291","532576.794283","534888.019396","Mapping"
"Blocked","Male","cave","8","M_lash.wav","space","562.991331331","113","526439.018901","533344.047355","534111.175522","534878.514543","535645.590151","536413.169707","522536.722283","523303.300434","527206.512198","527973.659843","528740.66465","529507.90721","530275.161519","531042.249493","531809.99291","532576.794283","535654.799127","Mapping"
"Blocked","Male","cave","8","M_cave.wav","None","722.320590168","113","526439.018901","533344.047355","534111.175522","534878.514543","535645.590151","536413.169707","537180.263247","523303.300434","527206.512198","527973.659843","528740.66465","529507.90721","530275.161519","531042.249493","531809.99291","532576.794283","536422.896236","Mapping"
"Blocked","Male","cave","8","M_greet.wav","space","492.228206713","113","526439.018901","533344.047355","534111.175522","534878.514543","535645.590151","536413.169707","537180.263247","537947.550018","527206.512198","527973.659843","528740.66465","529507.90721","530275.161519","531042.249493","531809.99291","532576.794283","537189.581669","Mapping"
"Blocked","Male","tile","13","M_cling.wav","None","722.110971808","113","541083.233239","533344.047355","534111.175522","534878.514543","535645.590151","536413.169707","537180.263247","537947.550018","527206.512198","527973.659843","528740.66465","529507.90721","530275.161519","531042.249493","531809.99291","532576.794283","537957.078987","Mapping"
"Blocked","Male","tile","13","M_tile.wav","None","722.01729333","113","541083.233239","533344.047355","534111.175522","534878.514543","535645.590151","536413.169707","537180.263247","537947.550018","541849.979888","527973.659843","528740.66465","529507.90721","530275.161519","531042.249493","531809.99291","532576.794283","541092.719851","Mapping"
"Blocked","Male","tile","13","M_knife.wav","space","486.183908302","113","541083.233239","533344.047355","534111.175522","534878.514543","535645.590151","536413.169707","537180.263247","537947.550018","541849.979888","542617.68806","528740.66465","529507.90721","530275.161519","531042.249493","531809.99291","532576.794283","541859.543793","Mapping"
"Blocked","Male","tile","13","M_tile.wav","None","721.301870886","113","541083.233239","533344.047355","534111.175522","534878.514543","535645.590151","536413.169707","537180.263247","537947.550018","541849.979888","542617.68806","543384.830449","529507.90721","530275.161519","531042.249493","531809.99291","532576.794283","542626.75018","Mapping"
"Blocked","Male","tile","13","M_depth.wav","space","439.278604463","113","541083.233239","533344.047355","534111.175522","534878.514543","535645.590151","536413.169707","537180.263247","537947.550018","541849.979888","542617.68806","543384.830449","544152.13237","530275.161519","531042.249493","531809.99291","532576.794283","543394.376112","Mapping"
"Blocked","Male","tile","13","M_park.wav","None","719.509295654","113","541083.233239","533344.047355","534111.175522","534878.514543","535645.590151","536413.169707","537180.263247","537947.550018","541849.979888","542617.68806","543384.830449","544152.13237","544919.634324","531042.249493","531809.99291","532576.794283","544162.047802","Mapping"
"Blocked","Male","tile","13","M_priest.wav","None","720.498643816","113","541083.233239","533344.047355","534111.175522","534878.514543","535645.590151","536413.169707","537180.263247","537947.550018","541849.979888","542617.68806","543384.830449","544152.13237","544919.634324","545686.597703","531809.99291","532576.794283","544929.27645","Mapping"
"Blocked","Male","tile","13","M_knife.wav","None","721.399568953","113","541083.233239","533344.047355","534111.175522","534878.514543","535645.590151","536413.169707","537180.263247","537947.550018","541849.979888","542617.68806","543384.830449","544152.13237","544919.634324","545686.597703","546453.866233","532576.794283","545696.109048","Mapping"
"Blocked","Male","tile","13","M_tile.wav","None","721.57363221","113","541083.233239","533344.047355","534111.175522","534878.514543","535645.590151","536413.169707","537180.263247","537947.550018","541849.979888","542617.68806","543384.830449","544152.13237","544919.634324","545686.597703","546453.866233","547220.882171","546463.65305","Mapping"
"Blocked","Male","tile","13","M_park.wav","space","563.252271619","113","541083.233239","547988.188111","534111.175522","534878.514543","535645.590151","536413.169707","537180.263247","537947.550018","541849.979888","542617.68806","543384.830449","544152.13237","544919.634324","545686.597703","546453.866233","547220.882171","547230.323025","Mapping"
"Blocked","Male","tile","13","M_gnash.wav","None","721.662055235","113","541083.233239","547988.188111","548755.381203","534878.514543","535645.590151","536413.169707","537180.263247","537947.550018","541849.979888","542617.68806","543384.830449","544152.13237","544919.634324","545686.597703","546453.866233","547220.882171","547997.504988","Mapping"
"Blocked","Male","tile","13","M_lash.wav","None","722.852055915","113","541083.233239","547988.188111","548755.381203","549522.693018","535645.590151","536413.169707","537180.263247","537947.550018","541849.979888","542617.68806","543384.830449","544152.13237","544919.634324","545686.597703","546453.866233","547220.882171","548765.047444","Mapping"
"Blocked","Male","tile","13","M_greet.wav","None","723.364970647","113","541083.233239","547988.188111","548755.381203","549522.693018","550289.947945","536413.169707","537180.263247","537947.550018","541849.979888","542617.68806","543384.830449","544152.13237","544919.634324","545686.597703","546453.866233","547220.882171","549532.219822","Mapping"
"Blocked","Male","tile","13","M_tile.wav","None","723.851297051","113","541083.233239","547988.188111","548755.381203","549522.693018","550289.947945","551057.309227","537180.263247","537947.550018","541849.979888","542617.68806","543384.830449","544152.13237","544919.634324","545686.597703","546453.866233","547220.882171","550299.957056","Mapping"
"Blocked","Male","tile","13","M_cad.wav","space","406.429773197","113","541083.233239","547988.188111","548755.381203","549522.693018","550289.947945","551057.309227","551824.335366","537947.550018","541849.979888","542617.68806","543384.830449","544152.13237","544919.634324","545686.597703","546453.866233","547220.882171","551067.011949","Mapping"
"Blocked","Male","tile","13","M_done.wav","None","723.377337679","113","541083.233239","547988.188111","548755.381203","549522.693018","550289.947945","551057.309227","551824.335366","552591.5804","541849.979888","542617.68806","543384.830449","544152.13237","544919.634324","545686.597703","546453.866233","547220.882171","551834.249562","Mapping"
"Blocked","Male","cave","9","M_bluff.wav","None","728.796491865","113","555727.260838","547988.188111","548755.381203","549522.693018","550289.947945","551057.309227","551824.335366","552591.5804","541849.979888","542617.68806","543384.830449","544152.13237","544919.634324","545686.597703","546453.866233","547220.882171","552600.51576","Mapping"
"Blocked","Male","cave","9","M_knife.wav","None","722.649548668","113","555727.260838","547988.188111","548755.381203","549522.693018","550289.947945","551057.309227","551824.335366","552591.5804","556494.518857","542617.68806","543384.830449","544152.13237","544919.634324","545686.597703","546453.866233","547220.882171","555736.674794","Mapping"
"Blocked","Male","cave","9","M_jolt.wav","None","722.988709342","113","555727.260838","547988.188111","548755.381203","549522.693018","550289.947945","551057.309227","551824.335366","552591.5804","556494.518857","557261.983711","543384.830449","544152.13237","544919.634324","545686.597703","546453.866233","547220.882171","556504.012889","Mapping"
"Blocked","Male","cave","9","M_cave.wav","None","723.310865927","113","555727.260838","547988.188111","548755.381203","549522.693018","550289.947945","551057.309227","551824.335366","552591.5804","556494.518857","557261.983711","558029.506999","544152.13237","544919.634324","545686.597703","546453.866233","547220.882171","557271.133635","Mapping"
"Blocked","Male","cave","9","M_bluff.wav","space","530.302651227","113","555727.260838","547988.188111","548755.381203","549522.693018","550289.947945","551057.309227","551824.335366","552591.5804","556494.518857","557261.983711","558029.506999","558795.994562","544919.634324","545686.597703","546453.866233","547220.882171","558038.993919","Mapping"
"Blocked","Male","cave","9","M_priest.wav","None","721.989776939","113","555727.260838","547988.188111","548755.381203","549522.693018","550289.947945","551057.309227","551824.335366","552591.5804","556494.518857","557261.983711","558029.506999","558795.994562","559563.404384","545686.597703","546453.866233","547220.882171","558806.558636","Mapping"
"Blocked","Male","cave","9","M_romp.wav","None","723.031683825","113","555727.260838","547988.188111","548755.381203","549522.693018","550289.947945","551057.309227","551824.335366","552591.5804","556494.518857","557261.983711","558029.506999","558795.994562","559563.404384","560330.531623","546453.866233","547220.882171","559572.920676","Mapping"
"Blocked","Male","cave","9","M_park.wav","None","723.844185937","113","555727.260838","547988.188111","548755.381203","549522.693018","550289.947945","551057.309227","551824.335366","552591.5804","556494.518857","557261.983711","558029.506999","558795.994562","559563.404384","560330.531623","561097.878683","547220.882171","560340.006177","Mapping"
"Blocked","Male","cave","9","M_romp.wav","None","724.507976789","113","555727.260838","547988.188111","548755.381203","549522.693018","550289.947945","551057.309227","551824.335366","552591.5804","556494.518857","557261.983711","558029.506999","558795.994562","559563.404384","560330.531623","561097.878683","561864.931102","561107.028298","Mapping"
"Blocked","Male","cave","9","M_cave.wav","None","725.074378774","113","555727.260838","562632.333504","548755.381203","549522.693018","550289.947945","551057.309227","551824.335366","552591.5804","556494.518857","557261.983711","558029.506999","558795.994562","559563.404384","560330.531623","561097.878683","561864.931102","561874.205623","Mapping"
"Blocked","Male","cave","9","M_reek.wav","space","519.199691713","113","555727.260838","562632.333504","563399.620585","549522.693018","550289.947945","551057.309227","551824.335366","552591.5804","556494.518857","557261.983711","558029.506999","558795.994562","559563.404384","560330.531623","561097.878683","561864.931102","562641.970992","Mapping"
"Blocked","Male","cave","9","M_cave.wav","None","723.974965513","113","555727.260838","562632.333504","563399.620585","564166.982176","550289.947945","551057.309227","551824.335366","552591.5804","556494.518857","557261.983711","558029.506999","558795.994562","559563.404384","560330.531623","561097.878683","561864.931102","563409.22932","Mapping"
"Blocked","Male","cave","9","M_dime.wav","space","584.757917561","113","555727.260838","562632.333504","563399.620585","564166.982176","564934.105396","551057.309227","551824.335366","552591.5804","556494.518857","557261.983711","558029.506999","558795.994562","559563.404384","560330.531623","561097.878683","561864.931102","564176.367998","Mapping"
"Blocked","Male","cave","9","M_ball.wav","None","724.071736448","113","555727.260838","562632.333504","563399.620585","564166.982176","564934.105396","565701.406698","551824.335366","552591.5804","556494.518857","557261.983711","558029.506999","558795.994562","559563.404384","560330.531623","561097.878683","561864.931102","564943.358274","Mapping"
"Blocked","Male","cave","9","M_cave.wav","None","724.403168075","113","555727.260838","562632.333504","563399.620585","564166.982176","564934.105396","565701.406698","566468.198177","552591.5804","556494.518857","557261.983711","558029.506999","558795.994562","559563.404384","560330.531623","561097.878683","561864.931102","565710.827148","Mapping"
"Blocked","Male","cave","9","M_bluff.wav","space","436.053948011","113","555727.260838","562632.333504","563399.620585","564166.982176","564934.105396","565701.406698","566468.198177","567235.735069","556494.518857","557261.983711","558029.506999","558795.994562","559563.404384","560330.531623","561097.878683","561864.931102","566477.086852","Mapping"
"Blocked","Male","tile","17","M_priest.wav","None","724.628554191","113","570371.542885","562632.333504","563399.620585","564166.982176","564934.105396","565701.406698","566468.198177","567235.735069","556494.518857","557261.983711","558029.506999","558795.994562","559563.404384","560330.531623","561097.878683","561864.931102","567244.85624","Mapping"
"Blocked","Male","tile","17","M_bluff.wav","None","722.038007341","113","570371.542885","562632.333504","563399.620585","564166.982176","564934.105396","565701.406698","566468.198177","567235.735069","571138.902621","557261.983711","558029.506999","558795.994562","559563.404384","560330.531623","561097.878683","561864.931102","570381.078655","Mapping"
"Blocked","Male","tile","17","M_greet.wav","None","722.264011856","113","570371.542885","562632.333504","563399.620585","564166.982176","564934.105396","565701.406698","566468.198177","567235.735069","571138.902621","571905.79489","558029.506999","558795.994562","559563.404384","560330.531623","561097.878683","561864.931102","571148.752818","Mapping"
"Blocked","Male","tile","17","M_tile.wav","None","724.006192293","113","570371.542885","562632.333504","563399.620585","564166.982176","564934.105396","565701.406698","566468.198177","567235.735069","571138.902621","571905.79489","572673.115979","558795.994562","559563.404384","560330.531623","561097.878683","561864.931102","571915.139592","Mapping"
"Blocked","Male","tile","17","M_done.wav","space","446.335748304","113","570371.542885","562632.333504","563399.620585","564166.982176","564934.105396","565701.406698","566468.198177","567235.735069","571138.902621","571905.79489","572673.115979","573440.412336","559563.404384","560330.531623","561097.878683","561864.931102","572682.620523","Mapping"
"Blocked","Male","tile","17","M_tile.wav","None","723.687127233","113","570371.542885","562632.333504","563399.620585","564166.982176","564934.105396","565701.406698","566468.198177","567235.735069","571138.902621","571905.79489","572673.115979","573440.412336","574207.401375","560330.531623","561097.878683","561864.931102","573449.924299","Mapping"
"Blocked","Male","tile","17","M_priest.wav","space","511.717437301","113","570371.542885","562632.333504","563399.620585","564166.982176","564934.105396","565701.406698","566468.198177","567235.735069","571138.902621","571905.79489","572673.115979","573440.412336","574207.401375","574974.914769","561097.878683","561864.931102","574217.178608","Mapping"
"Blocked","Male","tile","17","M_tile.wav","None","724.090904929","113","570371.542885","562632.333504","563399.620585","564166.982176","564934.105396","565701.406698","566468.198177","567235.735069","571138.902621","571905.79489","572673.115979","573440.412336","574207.401375","574974.914769","575742.02995","561864.931102","574983.945353","Mapping"
"Blocked","Male","tile","17","M_park.wav","space","400.993305258","113","570371.542885","562632.333504","563399.620585","564166.982176","564934.105396","565701.406698","566468.198177","567235.735069","571138.902621","571905.79489","572673.115979","573440.412336","574207.401375","574974.914769","575742.02995","576509.309611","575751.915084","Mapping"
"Blocked","Male","tile","17","M_jolt.wav","None","722.632234916","113","570371.542885","577276.252275","563399.620585","564166.982176","564934.105396","565701.406698","566468.198177","567235.735069","571138.902621","571905.79489","572673.115979","573440.412336","574207.401375","574974.914769","575742.02995","576509.309611","576519.076023","Mapping"
"Blocked","Male","tile","17","M_cling.wav","None","723.94157527","113","570371.542885","577276.252275","578043.688686","564166.982176","564934.105396","565701.406698","566468.198177","567235.735069","571138.902621","571905.79489","572673.115979","573440.412336","574207.401375","574974.914769","575742.02995","576509.309611","577285.737032","Mapping"
"Blocked","Male","tile","17","M_tile.wav","None","724.032162223","113","570371.542885","577276.252275","578043.688686","578810.998645","564934.105396","565701.406698","566468.198177","567235.735069","571138.902621","571905.79489","572673.115979","573440.412336","574207.401375","574974.914769","575742.02995","576509.309611","578053.234967","Mapping"
"Blocked","Male","tile","17","M_depth.wav","space","532.484472264","113","570371.542885","577276.252275","578043.688686","578810.998645","579578.047354","565701.406698","566468.198177","567235.735069","571138.902621","571905.79489","572673.115979","573440.412336","574207.401375","574974.914769","575742.02995","576509.309611","578820.347366","Mapping"
"Blocked","Male","tile","17","M_jaw.wav","None","724.114711396","113","570371.542885","577276.252275","578043.688686","578810.998645","579578.047354","580345.521484","566468.198177","567235.735069","571138.902621","571905.79489","572673.115979","573440.412336","574207.401375","574974.914769","575742.02995","576509.309611","579587.930942","Mapping"
"Blocked","Male","tile","17","M_park.wav","None","724.988120142","113","570371.542885","577276.252275","578043.688686","578810.998645","579578.047354","580345.521484","581112.764971","567235.735069","571138.902621","571905.79489","572673.115979","573440.412336","574207.401375","574974.914769","575742.02995","576509.309611","580355.009951","Mapping"
"Blocked","Male","tile","17","M_dime.wav","None","726.113812998","113","570371.542885","577276.252275","578043.688686","578810.998645","579578.047354","580345.521484","581112.764971","581879.912307","571138.902621","571905.79489","572673.115979","573440.412336","574207.401375","574974.914769","575742.02995","576509.309611","581122.009811","Mapping"
"Blocked","Male","ball","1","M_knife.wav","None","726.383409929","113","585015.505558","577276.252275","578043.688686","578810.998645","579578.047354","580345.521484","581112.764971","581879.912307","571138.902621","571905.79489","572673.115979","573440.412336","574207.401375","574974.914769","575742.02995","576509.309611","581889.632343","Mapping"
"Blocked","Male","ball","1","M_park.wav","None","722.502382938","113","585015.505558","577276.252275","578043.688686","578810.998645","579578.047354","580345.521484","581112.764971","581879.912307","585782.77378","571905.79489","572673.115979","573440.412336","574207.401375","574974.914769","575742.02995","576509.309611","585024.728447","Mapping"
"Blocked","Male","ball","1","M_cad.wav","None","722.732406575","113","585015.505558","577276.252275","578043.688686","578810.998645","579578.047354","580345.521484","581112.764971","581879.912307","585782.77378","586550.221629","572673.115979","573440.412336","574207.401375","574974.914769","575742.02995","576509.309611","585792.334902","Mapping"
"Blocked","Male","ball","1","M_bluff.wav","None","723.664248362","113","585015.505558","577276.252275","578043.688686","578810.998645","579578.047354","580345.521484","581112.764971","581879.912307","585782.77378","586550.221629","587317.185626","573440.412336","574207.401375","574974.914769","575742.02995","576509.309611","586559.478527","Mapping"
"Blocked","Male","ball","1","M_gnash.wav","None","724.554971326","113","585015.505558","577276.252275","578043.688686","578810.998645","579578.047354","580345.521484","581112.764971","581879.912307","585782.77378","586550.221629","587317.185626","588084.250103","574207.401375","574974.914769","575742.02995","576509.309611","587326.174163","Mapping"
"Blocked","Male","ball","1","M_priest.wav","None","725.10344116","113","585015.505558","577276.252275","578043.688686","578810.998645","579578.047354","580345.521484","581112.764971","581879.912307","585782.77378","586550.221629","587317.185626","588084.250103","588851.752367","574974.914769","575742.02995","576509.309611","588094.182849","Mapping"
"Blocked","Male","ball","1","M_tile.wav","None","725.986124948","113","585015.505558","577276.252275","578043.688686","578810.998645","579578.047354","580345.521484","581112.764971","581879.912307","585782.77378","586550.221629","587317.185626","588084.250103","588851.752367","589618.993072","575742.02995","576509.309611","588861.289374","Mapping"
"Blocked","Male","ball","1","M_ball.wav","None","727.396564558","113","585015.505558","577276.252275","578043.688686","578810.998645","579578.047354","580345.521484","581112.764971","581879.912307","585782.77378","586550.221629","587317.185626","588084.250103","588851.752367","589618.993072","590386.180909","576509.309611","589628.250897","Mapping"
"Blocked","Male","ball","1","M_greet.wav","space","548.545302823","113","585015.505558","577276.252275","578043.688686","578810.998645","579578.047354","580345.521484","581112.764971","581879.912307","585782.77378","586550.221629","587317.185626","588084.250103","588851.752367","589618.993072","590386.180909","591153.293926","590395.978856","Mapping"
"Blocked","Male","ball","1","M_ball.wav","None","727.164994925","113","585015.505558","591920.509898","578043.688686","578810.998645","579578.047354","580345.521484","581112.764971","581879.912307","585782.77378","586550.221629","587317.185626","588084.250103","588851.752367","589618.993072","590386.180909","591153.293926","591162.655324","Mapping"
"Blocked","Male","ball","1","M_cling.wav","space","454.342357349","113","585015.505558","591920.509898","592688.610408","578810.998645","579578.047354","580345.521484","581112.764971","581879.912307","585782.77378","586550.221629","587317.185626","588084.250103","588851.752367","589618.993072","590386.180909","591153.293926","591930.169645","Mapping"
"Blocked","Male","ball","1","M_lash.wav","None","726.247065701","113","585015.505558","591920.509898","592688.610408","593455.147439","579578.047354","580345.521484","581112.764971","581879.912307","585782.77378","586550.221629","587317.185626","588084.250103","588851.752367","589618.993072","590386.180909","591153.293926","592697.864213","Mapping"
"Blocked","Male","ball","1","M_ball.wav","None","727.253727149","113","585015.505558","591920.509898","592688.610408","593455.147439","594222.168942","580345.521484","581112.764971","581879.912307","585782.77378","586550.221629","587317.185626","588084.250103","588851.752367","589618.993072","590386.180909","591153.293926","593464.90303","Mapping"
"Blocked","Male","ball","1","M_cad.wav","space","544.198663905","113","585015.505558","591920.509898","592688.610408","593455.147439","594222.168942","594989.216723","581112.764971","581879.912307","585782.77378","586550.221629","587317.185626","588084.250103","588851.752367","589618.993072","590386.180909","591153.293926","594232.232776","Mapping"
